timestamp(unix),attitude_roll(radians),attitude_pitch(radians),attitude_yaw(radians),rotation_rate_x(radians/s),rotation_rate_y(radians/s),rotation_rate_z(radians/s),gravity_x(G),gravity_y(G),gravity_z(G),user_acc_x(G),user_acc_y(G),user_acc_z(G),magnetic_field_x(microteslas),magnetic_field_y(microteslas),magnetic_field_z(microteslas),latitude(degree),longitude(degree),altitude(meter),speed(m/s),course(degree),timestamp(unix),User Mark
1512180023.182702,-0.044636,0.799068,-0.111308,0.048295,0.211212,-0.024957,-0.031118,-0.716706,-0.696680,-0.060801,0.013414,-0.061804,30.303726,-32.251030,-31.950645,,,,,,,
1512180023.202691,-0.040211,0.802262,-0.112980,0.203813,0.091933,-0.088150,-0.027942,-0.718930,-0.694520,-0.026516,0.009717,-0.027083,30.977798,-32.475014,-31.806480,,,,,,,
1512180023.222680,-0.038855,0.806619,-0.115287,0.200648,-0.085369,-0.098405,-0.026879,-0.721951,-0.691421,-0.004036,-0.000522,0.008407,30.752045,-32.625359,-31.954643,,,,,,,
1512180023.242699,-0.039605,0.809720,-0.117873,0.117322,-0.137860,-0.091270,-0.027308,-0.724094,-0.689160,0.012049,-0.006741,0.034879,30.749527,-33.150352,-32.254875,,,,,,,
1512180023.262688,-0.040738,0.810912,-0.119753,0.026156,-0.103879,-0.055157,-0.028054,-0.724916,-0.688266,0.006615,-0.003218,0.023425,30.976181,-32.775017,-32.331612,,,,,,,
1512180023.282677,-0.040244,0.811321,-0.121422,0.026459,0.008304,-0.068623,-0.027702,-0.725198,-0.687983,-0.001930,0.010735,0.016688,30.750122,-33.000359,-32.404808,,,,,,,
1512180023.302697,-0.037402,0.812068,-0.123831,0.034285,0.062828,-0.088577,-0.025726,-0.725712,-0.687518,0.010925,0.014439,0.018664,30.675507,-32.925468,-32.329124,,,,,,,
1512180023.322686,-0.034342,0.812917,-0.126326,0.051377,0.077816,-0.089341,-0.023602,-0.726296,-0.686977,0.015286,0.014320,0.008968,30.898331,-33.375130,-32.631248,,,,,,,
1512180023.342675,-0.030193,0.815117,-0.128699,0.142861,0.134547,-0.073956,-0.020703,-0.727806,-0.685471,0.011654,0.023139,0.006973,31.801559,-32.698784,-32.263588,,,,,,,
1512180023.362664,-0.027131,0.818211,-0.130227,0.128652,0.063988,-0.056285,-0.018542,-0.729924,-0.683276,0.030246,0.017720,0.001925,31.425201,-32.999336,-32.260536,,,,,,,
1512180023.382683,-0.024816,0.818682,-0.132516,-0.064841,0.054141,-0.088973,-0.016952,-0.730246,-0.682974,0.019256,0.004553,0.026541,31.722122,-33.673897,-32.338402,,,,,,,
1512180023.402672,-0.019591,0.813395,-0.134296,-0.380289,0.286389,-0.019177,-0.013459,-0.726624,-0.686904,0.003205,0.000855,0.055602,32.026108,-32.773445,-32.490532,,,,,,,
1512180023.422661,-0.011801,0.803269,-0.133674,-0.550627,0.488964,0.040889,-0.008194,-0.719630,-0.694309,-0.005997,0.003733,0.017658,32.254898,-31.948097,-32.342064,,,,,,,
1512180023.442681,0.001329,0.793127,-0.134380,-0.467523,0.682669,-0.075563,0.000933,-0.712550,-0.701620,-0.040056,0.003474,-0.065775,32.855118,-31.872200,-32.572136,,,,,,,
1512180023.462670,0.021710,0.783849,-0.139458,-0.464485,0.971420,-0.246152,0.015374,-0.706011,-0.708034,-0.038216,-0.017836,-0.007481,33.834137,-31.045738,-31.980049,,,,,,,
1512180023.482659,0.049914,0.774295,-0.147780,-0.480642,1.170298,-0.355497,0.035669,-0.699212,-0.714024,-0.048059,-0.090003,-0.013119,34.661240,-30.594490,-31.836861,,,,,,,
1512180023.502678,0.076872,0.761422,-0.156518,-0.736218,0.848318,-0.323007,0.055589,-0.689951,-0.721718,-0.092592,-0.010565,0.037910,35.563904,-29.993126,-31.919228,,,,,,,
1512180023.522667,0.086712,0.740473,-0.162390,-1.201343,-0.034682,-0.346678,0.063926,-0.674637,-0.735376,-0.077003,0.079407,0.107385,35.941376,-29.392570,-32.372124,,,,,,,
1512180023.542656,0.079908,0.713688,-0.172563,-1.311506,-1.075904,-0.569372,0.060342,-0.654626,-0.753540,-0.100320,-0.023535,0.104065,36.473618,-27.666771,-33.425789,,,,,,,
1512180023.562676,0.057471,0.687860,-0.185638,-1.175792,-1.760436,-0.558062,0.044378,-0.634885,-0.771331,-0.026785,-0.091372,0.056197,35.957169,-25.642540,-34.545387,,,,,,,
1512180023.582665,0.025188,0.669586,-0.194836,-0.707130,-1.899132,-0.282042,0.019747,-0.620662,-0.783829,0.064542,-0.070821,0.042039,35.216278,-23.468651,-35.887993,,,,,,,
1512180023.602654,0.010382,0.660168,-0.198450,-0.341871,-0.308351,-0.115570,0.008201,-0.613250,-0.789846,0.052239,0.058333,0.165762,34.394348,-22.644890,-37.155602,,,,,,,
1512180023.622643,0.017531,0.655734,-0.201616,-0.187030,0.508071,-0.156327,0.013895,-0.609741,-0.792479,-0.092081,0.132050,0.177031,34.324600,-21.445000,-37.454414,,,,,,,
1512180023.642663,0.032004,0.651389,-0.206487,-0.223834,0.489919,-0.187838,0.025447,-0.606292,-0.794835,-0.041163,0.115370,0.033727,34.401398,-21.069878,-37.229881,,,,,,,
1512180023.662652,0.027722,0.645567,-0.206679,-0.350335,-0.732901,0.118429,0.022140,-0.601651,-0.798452,0.066330,0.078458,-0.269633,35.082031,-19.868858,-36.785057,,,,,,,
1512180023.682641,-0.001907,0.639098,-0.196612,-0.268494,-1.204731,0.562519,-0.001530,-0.596472,-0.802633,0.001835,0.107366,-0.081950,34.561523,-18.819633,-37.230110,,,,,,,
1512180023.702660,-0.025011,0.636385,-0.182298,-0.042128,-0.425569,0.514142,-0.020113,-0.594292,-0.803998,0.109987,0.076958,0.008237,33.586044,-18.896095,-37.521858,,,,,,,
1512180023.722649,-0.040160,0.639186,-0.170962,0.244560,-0.486966,0.450918,-0.032223,-0.596542,-0.801934,0.108807,0.045502,-0.078360,32.836227,-18.897224,-37.140495,,,,,,,
1512180023.742638,-0.053729,0.641203,-0.158302,0.005560,-0.223661,0.541120,-0.043036,-0.598160,-0.800220,0.309440,-0.133346,-0.068799,32.535919,-18.972679,-37.062981,,,,,,,
1512180023.762658,-0.062940,0.638451,-0.148900,-0.160251,-0.236163,0.251904,-0.050509,-0.595952,-0.801430,0.094301,0.043157,-0.071343,32.087051,-18.748344,-36.834038,,,,,,,
1512180023.782647,-0.076502,0.637470,-0.145172,0.098958,-0.719338,0.089806,-0.061418,-0.595165,-0.801253,0.074144,0.033504,-0.142656,31.488052,-18.524254,-36.828835,,,,,,,
1512180023.802636,-0.095670,0.644757,-0.143217,0.511694,-1.000668,0.064955,-0.076347,-0.601005,-0.795590,0.034828,0.045585,-0.123355,31.412079,-18.674355,-37.428276,,,,,,,
1512180023.822655,-0.120330,0.656564,-0.137304,0.627166,-1.054237,0.235946,-0.095083,-0.610399,-0.786366,0.007375,0.025453,-0.060527,30.435608,-18.975822,-37.645119,,,,,,,
1512180023.842644,-0.145303,0.666971,-0.128765,0.513930,-0.919862,0.256091,-0.113763,-0.618609,-0.777419,-0.016517,0.004977,-0.026597,29.382202,-19.727409,-37.711540,,,,,,,
1512180023.862633,-0.164114,0.675080,-0.122207,0.406036,-0.622864,0.155354,-0.127543,-0.624960,-0.770167,-0.057241,-0.005869,-0.007451,28.479843,-20.253761,-37.704140,,,,,,,
1512180023.882653,-0.176334,0.682901,-0.117788,0.433105,-0.418638,0.075437,-0.136082,-0.631046,-0.763716,-0.061534,-0.012066,0.012907,27.652466,-20.780006,-37.697365,,,,,,,
1512180023.902642,-0.186838,0.690869,-0.114208,0.378749,-0.426194,0.074625,-0.143158,-0.637207,-0.757280,-0.086166,-0.032379,0.040513,27.350220,-21.230446,-38.145027,,,,,,,
1512180023.922631,-0.198762,0.695523,-0.109691,0.184305,-0.435214,0.164524,-0.151590,-0.640787,-0.752603,-0.100287,-0.041326,0.059824,26.673828,-21.531471,-38.214424,,,,,,,
1512180023.942650,-0.207562,0.695188,-0.103522,-0.058387,-0.098285,0.286904,-0.158251,-0.640530,-0.751450,-0.106306,-0.034519,0.059449,26.673187,-21.681465,-38.139503,,,,,,,
1512180023.962639,-0.212167,0.690782,-0.095029,-0.190765,0.078670,0.371955,-0.162303,-0.637140,-0.753465,-0.151051,0.048975,0.044008,26.294296,-22.507042,-38.511696,,,,,,,
1512180023.982628,-0.214501,0.685369,-0.088815,-0.212380,0.115302,0.198003,-0.164793,-0.632958,-0.756443,-0.110887,-0.106635,0.013264,26.524094,-21.456688,-38.363121,,,,,,,
1512180024.002617,-0.209525,0.680136,-0.093006,-0.361515,0.088210,-0.262657,-0.161714,-0.628899,-0.760483,-0.139419,0.000313,0.019257,26.976273,-20.931007,-38.741692,,,,,,,
1512180024.022637,-0.203743,0.673424,-0.101825,-0.373414,-0.020902,-0.192850,-0.158164,-0.623666,-0.765522,-0.034020,-0.023673,0.041340,27.352814,-20.555443,-39.044701,,,,,,,
1512180024.042626,-0.205718,0.668854,-0.102917,-0.152338,-0.212344,0.096457,-0.160256,-0.620087,-0.767991,-0.045966,0.033249,0.050492,27.278702,-20.330559,-39.268974,,,,,,,
1512180024.062585,-0.214792,0.666094,-0.099429,-0.105913,-0.411124,0.180657,-0.167582,-0.617920,-0.768174,-0.092198,-0.008743,0.048310,26.829727,-20.106239,-39.265038,,,,,,,
1512180024.082604,-0.226941,0.663184,-0.097840,-0.119305,-0.615905,0.013446,-0.177307,-0.615629,-0.767830,-0.157761,-0.005846,0.092812,26.531937,-19.581688,-39.562233,,,,,,,
1512180024.102593,-0.239507,0.662390,-0.101301,-0.039303,-0.790568,-0.192821,-0.187057,-0.615003,-0.766016,-0.132890,-0.024752,0.091456,26.232010,-19.507133,-40.084663,,,,,,,
1512180024.122583,-0.251304,0.663993,-0.107244,0.059841,-0.699499,-0.252899,-0.195835,-0.616266,-0.762800,-0.114315,-0.012426,0.148085,26.458130,-19.206795,-40.536430,,,,,,,
1512180024.142602,-0.257897,0.667367,-0.112352,0.131145,-0.393929,-0.230547,-0.200328,-0.618920,-0.759477,-0.063450,-0.042014,0.173952,26.308884,-19.057014,-40.385094,,,,,,,
1512180024.162591,-0.264919,0.670987,-0.117609,0.110001,-0.625712,-0.251912,-0.205068,-0.621759,-0.755885,-0.006892,0.015955,0.190745,25.860382,-18.682686,-40.756096,,,,,,,
1512180024.182580,-0.278277,0.673094,-0.120941,0.032815,-0.850571,-0.043803,-0.214786,-0.623408,-0.751817,0.014606,0.022716,0.197099,26.161621,-18.382240,-40.983498,,,,,,,
1512180024.202600,-0.302819,0.671424,-0.117050,-0.075975,-1.273278,0.262308,-0.233481,-0.622102,-0.747312,0.142859,0.032548,0.074018,25.338974,-17.858467,-40.976250,,,,,,,
1512180024.222589,-0.335043,0.670352,-0.110093,0.194434,-1.351947,0.280877,-0.257656,-0.621262,-0.740031,0.203518,0.007126,-0.037694,24.218292,-16.885155,-41.116234,,,,,,,
1512180024.242578,-0.363609,0.676247,-0.103074,0.443210,-1.126833,0.075254,-0.277381,-0.625870,-0.728935,0.188239,-0.026504,-0.085442,23.393555,-16.811378,-41.259178,,,,,,,
1512180024.262597,-0.384359,0.683084,-0.100740,0.242924,-0.882276,-0.050461,-0.290834,-0.631188,-0.719039,0.279191,-0.100211,-0.090577,22.941864,-17.187065,-41.255531,,,,,,,
1512180024.282586,-0.400811,0.681002,-0.101546,-0.336797,-0.809695,0.069319,-0.303136,-0.629571,-0.715366,0.264699,-0.084647,-0.048367,22.494339,-16.662743,-41.026466,,,,,,,
1512180024.302575,-0.411253,0.666528,-0.103343,-0.899084,-0.379484,0.313193,-0.314199,-0.618261,-0.720439,0.218160,-0.066370,0.007228,21.973877,-15.613518,-41.396507,,,,,,,
1512180024.322564,-0.408542,0.644551,-0.108933,-1.222587,0.306193,0.117936,-0.317567,-0.600840,-0.733582,0.094727,-0.038504,0.021592,21.979721,-14.338509,-41.170921,,,,,,,
1512180024.342584,-0.389037,0.616038,-0.125318,-1.720796,0.476668,-0.045398,-0.309573,-0.577806,-0.755185,0.174731,-0.011443,-0.227877,22.662109,-12.687477,-41.250893,,,,,,,
1512180024.362573,-0.368520,0.585340,-0.132302,-1.355639,1.060392,0.530131,-0.300265,-0.552483,-0.777563,0.196093,-0.050926,-0.012629,23.195435,-10.886681,-40.804543,,,,,,,
1512180024.382562,-0.352583,0.561047,-0.125666,-0.836416,0.830102,0.709554,-0.292384,-0.532073,-0.794613,0.133739,-0.028474,-0.068714,24.025085,-9.910439,-40.286095,,,,,,,
1512180024.402581,-0.346905,0.548871,-0.117700,-0.217673,0.311444,0.399027,-0.290049,-0.521725,-0.802293,0.034113,-0.069950,-0.041914,24.325348,-9.909996,-39.763649,,,,,,,
1512180024.422570,-0.348336,0.548086,-0.111878,0.164897,-0.011241,0.197696,-0.291337,-0.521055,-0.802262,0.003755,-0.116641,0.005219,24.475128,-9.984764,-39.539955,,,,,,,
1512180024.442559,-0.352180,0.550053,-0.106915,0.118692,-0.041130,0.154283,-0.294064,-0.522732,-0.800173,-0.040485,-0.075946,0.090609,24.474197,-10.209770,-39.390068,,,,,,,
1512180024.462579,-0.352132,0.548027,-0.104280,-0.165605,0.140050,0.142264,-0.294391,-0.521005,-0.801179,-0.087842,-0.074653,0.133485,24.700836,-9.834435,-39.466805,,,,,,,
1512180024.482568,-0.348612,0.541401,-0.102634,-0.326765,0.221898,0.222301,-0.292742,-0.515337,-0.805438,-0.147566,-0.055037,0.155856,24.927719,-9.459084,-39.093544,,,,,,,
1512180024.502557,-0.350023,0.534968,-0.100440,-0.197054,-0.191170,0.158781,-0.295008,-0.509813,-0.808121,-0.205114,-0.047117,0.133011,24.928238,-9.384087,-38.718513,,,,,,,
1512180024.522576,-0.360580,0.534334,-0.100587,0.061679,-0.724353,-0.106908,-0.303637,-0.509268,-0.805264,-0.276792,-0.072397,0.137860,24.704926,-9.009422,-38.716438,,,,,,,
1512180024.542565,-0.375659,0.539040,-0.107589,0.108788,-0.999062,-0.520814,-0.314862,-0.513312,-0.798356,-0.318164,-0.048699,0.157914,24.106125,-8.710320,-39.011192,,,,,,,
1512180024.562554,-0.387446,0.546554,-0.123283,0.111158,-0.989844,-0.857620,-0.322784,-0.519746,-0.790996,-0.285020,-0.034423,0.143412,23.735474,-7.735878,-39.082558,,,,,,,
1512180024.582574,-0.400032,0.555930,-0.141108,0.158099,-1.210864,-0.870502,-0.330800,-0.527734,-0.782347,-0.190013,-0.049552,0.137328,23.286682,-7.436546,-39.378578,,,,,,,
1512180024.602563,-0.421871,0.566575,-0.157623,0.254150,-1.713905,-0.836746,-0.345486,-0.536746,-0.769768,-0.150516,-0.023481,0.143440,22.614151,-6.837563,-39.822563,,,,,,,
1512180024.622552,-0.454254,0.578881,-0.173156,0.287180,-2.222270,-0.860423,-0.367302,-0.547088,-0.752186,-0.099129,-0.006227,0.104664,21.191650,-6.239693,-40.185188,,,,,,,
1512180024.642541,-0.494200,0.592919,-0.187458,0.422043,-2.431475,-0.838943,-0.393365,-0.558785,-0.730084,-0.066153,0.014565,0.060757,19.993042,-5.866493,-40.774803,,,,,,,
1512180024.662561,-0.533489,0.610929,-0.201442,0.528771,-2.324099,-1.034241,-0.416553,-0.573628,-0.705289,-0.046856,0.084432,0.080549,18.196228,-5.119179,-41.134163,,,,,,,
1512180024.682550,-0.569831,0.633187,-0.217890,0.650533,-2.227509,-1.173931,-0.434907,-0.591717,-0.678768,0.040620,0.056057,0.110103,16.997681,-4.745979,-41.573784,,,,,,,
1512180024.702539,-0.602559,0.657296,-0.233604,0.646131,-2.075732,-1.222504,-0.448668,-0.610978,-0.652228,0.077147,0.102159,0.092246,15.348099,-4.598457,-42.084694,,,,,,,
1512180024.722558,-0.627227,0.685725,-0.254465,0.740468,-1.759675,-1.627274,-0.454238,-0.633234,-0.626643,0.074722,0.171061,0.140162,13.925491,-4.075584,-41.997337,,,,,,,
1512180024.742547,-0.655615,0.717287,-0.275393,0.825593,-2.370764,-1.517293,-0.459424,-0.657343,-0.597351,0.110242,0.158136,0.010696,12.277695,-3.628059,-41.608101,,,,,,,
1512180024.762536,-0.688020,0.747533,-0.294623,0.714972,-2.195874,-1.460727,-0.465695,-0.679831,-0.566530,0.091046,0.159934,0.130937,10.705353,-3.030418,-41.669441,,,,,,,
1512180024.782556,-0.724269,0.774839,-0.308322,0.731258,-2.376014,-1.098654,-0.473440,-0.699601,-0.535173,0.051794,0.064576,0.069201,9.205124,-3.107674,-41.431725,,,,,,,
1512180024.802545,-0.771351,0.795742,-0.311118,0.673755,-2.415563,-0.586848,-0.487801,-0.714383,-0.501702,0.131356,0.065717,0.045022,7.482117,-2.735252,-40.816902,,,,,,,
1512180024.822534,-0.816039,0.807683,-0.307482,0.382048,-1.833549,-0.194609,-0.503477,-0.722687,-0.473532,0.043379,0.024216,-0.008967,5.532700,-2.663170,-40.275291,,,,,,,
1512180024.842553,-0.846641,0.808871,-0.306535,-0.126216,-1.315585,0.009843,-0.517087,-0.723508,-0.457336,0.036069,0.150769,-0.049180,3.960098,-2.215538,-39.511696,,,,,,,
1512180024.862542,-0.869782,0.804754,-0.318066,-0.584719,-1.921653,-0.142826,-0.529802,-0.720660,-0.447165,0.200655,0.266375,-0.144219,3.140350,-1.166771,-38.454201,,,,,,,
1512180024.882531,-0.913776,0.798202,-0.336508,-0.725347,-3.344689,-0.153013,-0.552683,-0.716103,-0.426307,0.180155,0.210899,-0.116387,1.342636,-0.719460,-37.913704,,,,,,,
1512180024.902551,-0.973378,0.793764,-0.358076,-0.754397,-3.896590,-0.357906,-0.579716,-0.712998,-0.394412,0.124760,0.036194,-0.154233,-0.898560,1.077171,-36.468758,,,,,,,
1512180024.922540,-1.026782,0.794543,-0.387110,-0.883031,-3.436822,-0.680118,-0.599468,-0.713543,-0.362618,0.018444,-0.201526,-0.282859,-6.138153,3.094322,-33.798210,,,,,,,
1512180024.942529,-1.055998,0.800995,-0.422901,-0.914975,-2.251580,-1.012265,-0.605785,-0.718049,-0.342678,-0.118580,0.007630,-0.311604,-7.483307,3.992302,-32.211327,,,,,,,
1512180024.962518,-1.067800,0.807663,-0.452895,-0.602687,-1.448670,-0.581723,-0.605579,-0.722674,-0.333189,-0.121762,0.029803,-0.223192,-8.757263,4.140388,-31.450432,,,,,,,
1512180024.982537,-1.093399,0.812187,-0.463927,0.024811,-1.978987,-0.388983,-0.610999,-0.725793,-0.316074,0.002097,-0.002448,-0.300839,-10.103699,4.813362,-30.388634,,,,,,,
1512180025.002526,-1.153286,0.828738,-0.458781,0.808670,-3.184875,-0.919116,-0.617754,-0.737079,-0.274029,0.043734,-0.033566,-0.263721,-11.682205,3.911003,-29.250679,,,,,,,
1512180025.022515,-1.222655,0.864205,-0.440064,1.440902,-2.367411,-1.658683,-0.610294,-0.760580,-0.221490,0.123676,-0.025980,-0.181678,-13.487228,2.708290,-28.485939,,,,,,,
1512180025.042535,-1.282987,0.907965,-0.408957,1.679110,-1.626549,-1.781650,-0.590039,-0.788253,-0.174669,-0.006640,-0.105805,-0.215544,-14.018570,1.207497,-27.657173,,,,,,,
1512180025.062522,-1.355657,0.952179,-0.368884,1.695068,-2.359114,-1.879913,-0.566539,-0.814681,-0.123801,-0.001927,-0.063584,-0.231836,-15.075439,-0.369087,-27.198967,,,,,,,
1512180025.082511,-1.443366,0.993660,-0.328540,1.339647,-2.887470,-1.814405,-0.541201,-0.838029,-0.069341,0.119616,0.048203,-0.188609,-16.802872,-1.046684,-25.984627,,,,,,,
1512180025.102530,-1.534736,1.030551,-0.291317,1.042635,-3.006693,-1.716784,-0.514010,-0.857583,-0.018543,0.018420,-0.007057,-0.210003,-18.235123,-2.773827,-24.923317,,,,,,,
1512180025.122519,-1.623972,1.062839,-0.252421,0.933455,-2.644010,-1.542267,-0.485704,-0.873740,0.025852,-0.143752,-0.098398,-0.152668,-19.364395,-3.825523,-24.014244,,,,,,,
1512180025.142508,-1.715832,1.088753,-0.205244,1.057340,-2.469016,-1.354374,-0.458721,-0.886049,0.067002,0.084744,-0.024260,-0.150467,-20.495102,-5.252220,-22.580360,,,,,,,
1512180025.162528,-1.821627,1.112886,-0.137923,1.344873,-2.067431,-1.638774,-0.428239,-0.896978,0.109726,0.092042,0.242590,-0.156418,-21.025696,-6.603020,-21.601524,,,,,,,
1512180025.182517,-1.945067,1.143637,-0.042479,1.548125,-1.814638,-2.381196,-0.385607,-0.910146,0.151460,-0.022139,0.319417,-0.208696,-21.709473,-8.704048,-20.246758,,,,,,,
1512180025.202506,-2.087326,1.105655,0.165332,4.868762,2.145220,-0.370552,-0.390030,-0.893758,0.221522,0.060440,0.510778,-0.281611,-20.520523,-11.102257,-20.783058,,,,,,,
1512180025.222526,-2.232056,1.073925,0.337735,3.707791,-0.578805,-1.212386,-0.376202,-0.879078,0.292732,-0.175159,0.450642,-0.211739,-19.856216,-13.576271,-19.889931,,,,,,,
1512180025.242515,-2.374223,1.067886,0.473254,1.938837,-1.219168,-2.319091,-0.334609,-0.876184,0.346897,-0.185944,0.193734,0.276867,-19.487854,-15.225716,-18.318901,,,,,,,
1512180025.262504,-2.483708,1.083810,0.575654,0.501353,-0.842501,-2.144584,-0.286134,-0.883747,0.370293,-0.072738,-0.256542,0.315528,-18.446289,-17.174156,-17.653725,,,,,,,
1512180025.282493,-2.508228,1.100162,0.609538,-0.464048,1.434040,-0.831935,-0.268379,-0.891281,0.365500,0.057655,-0.582291,0.607889,-17.922714,-17.473366,-17.808327,,,,,,,
1512180025.302512,-2.456656,1.101886,0.614108,0.358144,3.604475,0.422028,-0.285892,-0.892061,0.349989,0.666873,0.215441,0.185045,-16.649658,-17.846458,-18.344337,,,,,,,
1512180025.322501,-2.378809,1.061681,0.593285,1.480263,2.223266,2.384365,-0.336766,-0.873176,0.352352,0.657811,0.283958,-0.027843,-15.823563,-17.620216,-18.201241,,,,,,,
1512180025.342490,-2.227646,1.031615,0.523135,-0.162486,4.897793,2.318699,-0.406598,-0.858129,0.313515,0.307126,0.582800,-0.047097,-14.621613,-17.093422,-19.036186,,,,,,,
1512180025.362510,-2.095422,0.978488,0.499821,1.842687,6.250718,3.035802,-0.483195,-0.829654,0.279635,0.466380,0.049564,0.228483,-12.594131,-16.490364,-19.503120,,,,,,,
1512180025.382499,-1.885131,0.894343,0.503230,2.316609,11.866337,4.437424,-0.595357,-0.779798,0.193559,0.835698,-0.369280,0.393843,-9.519806,-16.560753,-20.204292,,,,,,,
1512180025.402488,-1.666578,0.799508,0.427035,-1.951712,1.868634,2.970914,-0.693865,-0.717013,0.066664,0.517946,-0.162824,0.283404,-7.030991,-13.332024,-21.648827,,,,,,,
1512180025.422507,-1.654103,0.813879,0.352743,-2.287974,-1.813567,-0.478415,-0.684302,-0.726956,0.057139,0.538565,0.614484,0.072393,-7.401901,-12.357582,-22.245186,,,,,,,
1512180025.442496,-1.649506,0.815183,0.313511,-1.547344,-0.772048,0.623319,-0.683612,-0.727851,0.053918,-0.181287,-1.602456,-0.755883,-8.146362,-11.158699,-21.938271,,,,,,,
1512180025.462485,-1.654691,0.797161,0.298362,-0.246919,-1.103024,1.004533,-0.696283,-0.715375,0.058552,0.441293,0.356046,-0.910694,-8.368988,-10.634026,-21.936119,,,,,,,
1512180025.482505,-1.665639,0.776049,0.306230,0.787809,0.174888,1.092201,-0.710479,-0.700465,0.067587,0.315413,0.173518,-0.064138,-9.043289,-10.485039,-21.855309,,,,,,,
1512180025.502494,-1.705591,0.765874,0.324218,0.667777,-2.455811,-0.226749,-0.714239,-0.693167,0.096863,-0.283167,0.875021,-0.138947,-9.345078,-10.935493,-21.402962,,,,,,,
1512180025.522483,-1.742627,0.764125,0.331595,0.285966,-1.055711,0.174494,-0.711355,-0.691906,0.123450,0.074331,-0.591450,0.048486,-10.244598,-10.861839,-21.095284,,,,,,,
1512180025.542502,-1.773072,0.760881,0.344391,0.354926,-1.012281,-0.126049,-0.709463,-0.689560,0.145497,-0.219675,0.062714,0.098751,-11.144867,-10.938194,-20.937675,,,,,,,
1512180025.562491,-1.791645,0.760012,0.351428,0.198662,-0.619660,-0.004349,-0.707223,-0.688930,0.158779,0.153299,0.023464,0.130818,-11.220993,-11.238304,-20.487175,,,,,,,
1512180025.582480,-1.803189,0.759884,0.354014,0.050823,-0.346414,-0.011937,-0.705429,-0.688837,0.166953,0.046646,-0.013738,0.094858,-11.447266,-11.538658,-20.335396,,,,,,,
1512180025.602469,-1.809121,0.759660,0.355027,0.037928,-0.207592,0.001152,-0.704576,-0.688675,0.171171,0.078111,0.006744,0.049044,-11.672531,-11.613991,-20.183525,,,,,,,
1512180025.622489,-1.812507,0.759593,0.355267,0.023214,-0.139232,-0.008418,-0.704037,-0.688627,0.173566,0.073284,0.019681,0.023959,-11.447189,-11.538658,-20.185402,,,,,,,
1512180025.642478,-1.815462,0.759316,0.355276,0.001876,-0.127516,-0.006553,-0.703706,-0.688426,0.175692,-0.008758,-0.050115,0.012143,-11.598099,-11.763878,-19.959221,,,,,,,
1512180025.662467,-1.818540,0.759151,0.355500,0.003545,-0.161754,0.018933,-0.703272,-0.688306,0.177885,0.064783,-0.048205,0.002367,-11.745804,-11.239098,-20.107704,,,,,,,
1512180025.682487,-1.822192,0.759009,0.355840,0.016716,-0.176640,-0.004380,-0.702712,-0.688203,0.180477,0.016570,-0.035430,0.007069,-11.748123,-11.764107,-20.032951,,,,,,,
1512180025.702476,-1.825662,0.758719,0.356072,0.012088,-0.179892,0.017931,-0.702274,-0.687993,0.182965,0.043644,-0.029033,0.006488,-11.897415,-11.614326,-19.956612,,,,,,,
1512180025.722465,-1.829525,0.758628,0.356550,0.015393,-0.174534,0.011601,-0.701623,-0.687926,0.185692,0.070718,-0.022004,0.007866,-12.123016,-11.764656,-19.804756,,,,,,,
1512180025.742484,-1.833750,0.758349,0.356939,0.018782,-0.204412,-0.001246,-0.701018,-0.687724,0.188704,0.000151,-0.039342,0.005189,-12.199295,-12.064781,-19.654274,,,,,,,
1512180025.762473,-1.837925,0.758083,0.357363,0.015221,-0.201255,0.021101,-0.700401,-0.687531,0.191678,0.057792,-0.035110,0.002657,-11.975235,-12.289436,-19.506279,,,,,,,
1512180025.782462,-1.842801,0.757900,0.357979,0.028393,-0.223622,-0.003306,-0.699579,-0.687398,0.195125,0.023203,-0.031139,0.007206,-12.350113,-12.290001,-19.278099,,,,,,,
1512180025.802482,-1.847880,0.757495,0.358602,0.032365,-0.243942,0.013739,-0.698847,-0.687103,0.198751,0.034235,-0.017746,-0.001577,-12.348129,-11.840004,-19.352882,,,,,,,
1512180025.822471,-1.853770,0.757304,0.359539,0.036763,-0.257810,0.004156,-0.697790,-0.686965,0.202901,0.061269,-0.015687,0.005931,-12.574860,-12.215340,-19.426140,,,,,,,
1512180025.842460,-1.859944,0.756990,0.360432,0.042244,-0.287684,-0.005459,-0.696730,-0.686737,0.207267,0.006224,-0.034729,-0.005653,-12.875565,-12.365791,-19.498665,,,,,,,
1512180025.862479,-1.866939,0.756709,0.361605,0.047238,-0.332578,0.012580,-0.695448,-0.686533,0.212191,0.057386,-0.033911,-0.012912,-12.725449,-12.365562,-19.274940,,,,,,,
1512180025.882468,-1.875829,0.756433,0.363361,0.072123,-0.399786,-0.012879,-0.693715,-0.686331,0.218423,0.017186,-0.041467,-0.022195,-13.025940,-12.516014,-18.897469,,,,,,,
1512180025.902457,-1.886505,0.756000,0.365762,0.099705,-0.477731,-0.008486,-0.691626,-0.686016,0.225908,0.049872,-0.014469,-0.009615,-13.024551,-12.216011,-18.822334,,,,,,,
1512180025.922446,-1.897040,0.755740,0.368224,0.084934,-0.408312,-0.014857,-0.689376,-0.685827,0.233239,0.059631,-0.015985,0.026847,-13.176514,-12.666252,-18.671257,,,,,,,
1512180025.942466,-1.905145,0.755416,0.369725,0.050810,-0.317576,-0.009705,-0.687674,-0.685591,0.238891,0.012762,-0.032380,0.025818,-13.626358,-12.666924,-18.367439,,,,,,,
1512180025.962455,-1.911400,0.755184,0.370783,0.031342,-0.262095,0.010463,-0.686315,-0.685422,0.243242,0.063971,-0.044680,0.011809,-13.476578,-12.741692,-18.143745,,,,,,,
1512180025.982444,-1.916850,0.755024,0.371565,0.023254,-0.218262,-0.014020,-0.685083,-0.685306,0.247015,0.010736,-0.038998,0.013788,-13.925415,-12.517372,-17.839821,,,,,,,
1512180026.002463,-1.922307,0.754709,0.372279,0.045245,-0.296253,0.005212,-0.683927,-0.685077,0.250824,0.048856,-0.010068,-0.024918,-14.076279,-12.742592,-17.538643,,,,,,,
1512180026.022452,-1.930581,0.754456,0.374064,0.076253,-0.384844,-0.004240,-0.681991,-0.684893,0.256536,0.071792,-0.015883,-0.015630,-14.225235,-12.517815,-17.462273,,,,,,,
1512180026.042441,-1.939351,0.754021,0.375855,0.062437,-0.363495,-0.005430,-0.679993,-0.684575,0.262614,0.014741,-0.050731,0.009282,-14.225693,-12.667824,-17.012352,,,,,,,
1512180026.062417,-1.946570,0.753757,0.377136,0.035591,-0.293069,0.009349,-0.678247,-0.684383,0.267582,0.062921,-0.038685,0.006832,-14.526733,-12.893272,-17.084908,,,,,,,
1512180026.082406,-1.954222,0.753544,0.378450,0.058335,-0.381641,-0.016213,-0.676315,-0.684227,0.272819,0.020050,-0.038551,-0.030723,-14.074188,-12.367592,-16.713478,,,,,,,
1512180026.102395,-1.962767,0.753294,0.380029,0.070978,-0.381642,-0.007503,-0.674116,-0.684046,0.278653,0.050398,-0.010946,-0.014814,-14.375229,-12.668037,-16.111076,,,,,,,
1512180026.122414,-1.972063,0.753041,0.381954,0.068954,-0.383766,-0.013935,-0.671657,-0.683860,0.284976,0.049632,-0.028984,-0.004077,-14.599258,-12.518379,-15.509102,,,,,,,
1512180026.142403,-1.981823,0.752827,0.383728,0.069095,-0.493765,-0.028176,-0.668978,-0.683705,0.291576,0.018343,-0.016353,-0.052760,-14.600830,-12.893379,-15.284264,,,,,,,
1512180026.162392,-1.998225,0.752448,0.386677,0.138809,-0.917768,-0.009451,-0.664341,-0.683428,0.302616,0.062550,0.005633,-0.165058,-14.898544,-12.443825,-14.756523,,,,,,,
1512180026.182412,-2.028708,0.751070,0.394234,0.315130,-1.405568,-0.058698,-0.655654,-0.682421,0.323139,0.020095,-0.101911,-0.140965,-14.975494,-12.968941,-13.931114,,,,,,,
1512180026.202401,-2.069064,0.749804,0.404978,0.415115,-1.807991,-0.130078,-0.642842,-0.681495,0.349741,0.055256,0.034309,-0.154429,-15.799973,-12.970177,-12.874123,,,,,,,
1512180026.222390,-2.103185,0.747069,0.416453,0.338757,-0.012588,-0.066303,-0.632140,-0.679491,0.372413,0.114760,-0.011869,1.120660,-15.197693,-12.519279,-12.354012,,,,,,,
1512180026.242379,-2.096759,0.748117,0.411934,-0.078684,-0.148136,0.093482,-0.633904,-0.680259,0.367985,0.095955,-0.004723,-0.260106,-15.347015,-12.369499,-12.352669,,,,,,,
1512180026.262399,-2.100428,0.747865,0.412348,0.018925,-0.040981,-0.002811,-0.632697,-0.680075,0.370395,0.075324,0.005209,0.142956,-15.346939,-12.369499,-12.202660,,,,,,,
1512180026.282388,-2.100481,0.747741,0.411846,-0.001195,-0.026037,-0.009444,-0.632750,-0.679984,0.370471,-0.043413,-0.060906,-0.022769,-15.046112,-12.219048,-11.905144,,,,,,,
1512180026.302377,-2.100560,0.747670,0.411532,-0.018525,-0.007935,0.008494,-0.632763,-0.679932,0.370545,0.024135,-0.034134,0.006515,-15.197952,-12.594276,-12.204048,,,,,,,
1512180026.322396,-2.100713,0.747569,0.411313,-0.012036,-0.007919,0.002188,-0.632765,-0.679858,0.370677,0.007551,-0.038373,0.006612,-14.818405,-11.618706,-11.906776,,,,,,,
1512180026.342385,-2.100746,0.747352,0.411073,-0.004763,-0.010064,0.014015,-0.632879,-0.679699,0.370772,0.015692,-0.037952,-0.023314,-14.516754,-11.318260,-11.309196,,,,,,,
1512180026.362374,-2.100825,0.747275,0.410941,0.001684,-0.004709,0.010927,-0.632895,-0.679642,0.370848,0.070029,-0.016296,-0.006423,-14.668442,-11.693474,-11.308098,,,,,,,
1512180026.382394,-2.100936,0.746973,0.410878,0.017712,-0.013227,0.007930,-0.633031,-0.679421,0.371022,0.003393,-0.042350,-0.038625,-15.116989,-11.394157,-11.079140,,,,,,,
1512180026.402383,-2.100926,0.746810,0.410771,0.020787,-0.010026,0.016519,-0.633131,-0.679301,0.371072,0.043836,-0.030370,-0.078699,-15.039551,-10.869041,-10.929527,,,,,,,
1512180026.422372,-2.100967,0.746632,0.410742,-0.008834,0.003833,0.002274,-0.633220,-0.679171,0.371159,0.018962,-0.022505,0.022395,-14.890106,-11.018822,-10.705879,,,,,,,
1512180026.442391,-2.101123,0.746349,0.410823,0.016623,-0.003617,0.010081,-0.633327,-0.678963,0.371356,0.032558,-0.011177,0.000516,-14.438492,-10.643135,-10.859520,,,,,,,
1512180026.462380,-2.101071,0.746327,0.410779,0.002908,-0.003621,0.001354,-0.633359,-0.678946,0.371330,0.026029,-0.029611,-0.047569,-14.438126,-10.568138,-10.784492,,,,,,,
1512180026.482369,-2.101159,0.746070,0.410911,0.009270,0.002800,0.004671,-0.633477,-0.678758,0.371474,0.018319,-0.036727,-0.013762,-14.437744,-10.493141,-10.709450,,,,,,,
1512180026.502389,-2.101213,0.746038,0.411012,0.018808,0.000664,0.006929,-0.633476,-0.678735,0.371519,0.066581,-0.017585,-0.046613,-14.135269,-9.967690,-10.486763,,,,,,,
1512180026.522378,-2.101372,0.745984,0.411181,-0.000089,0.001740,-0.010397,-0.633448,-0.678695,0.371638,0.009532,-0.028291,0.000081,-14.437302,-10.418144,-10.484428,,,,,,,
1512180026.542367,-2.101552,0.745944,0.411374,0.010404,-0.004673,-0.000673,-0.633405,-0.678666,0.371766,0.027280,-0.011627,-0.032136,-14.437744,-10.493141,-10.709450,,,,,,,
1512180026.562356,-2.101627,0.746103,0.411545,-0.003290,0.001734,-0.010444,-0.633284,-0.678782,0.371759,0.037306,-0.021764,-0.025888,-13.983246,-9.517448,-10.487831,,,,,,,
1512180026.582375,-2.101924,0.746063,0.411895,0.005184,0.002808,-0.007119,-0.633197,-0.678753,0.371961,0.028888,-0.022190,0.024432,-13.907532,-9.367332,-10.413399,,,,,,,
1512180026.602364,-2.102131,0.746201,0.412156,0.015752,-0.005730,-0.001665,-0.633040,-0.678854,0.372044,0.048552,-0.023798,-0.059117,-13.983139,-9.517448,-10.262825,,,,,,,
1512180026.622353,-2.102371,0.746226,0.412518,0.004206,-0.000386,-0.012474,-0.632935,-0.678873,0.372188,0.008012,-0.050085,0.002889,-13.907913,-9.442345,-10.488426,,,,,,,
1512180026.642373,-2.102800,0.746212,0.413031,0.022134,-0.003584,-0.000498,-0.632784,-0.678862,0.372464,0.049044,-0.029039,-0.012784,-13.909821,-9.817345,-10.938606,,,,,,,
1512180026.662362,-2.103024,0.746293,0.413420,0.009497,0.000684,-0.010263,-0.632653,-0.678922,0.372578,0.019494,-0.034808,-0.033573,-13.681824,-9.217003,-10.340233,,,,,,,
1512180026.682351,-2.103408,0.746135,0.414007,0.013639,0.003880,-0.002729,-0.632602,-0.678806,0.372875,0.027561,-0.028927,0.008396,-13.530884,-8.991768,-10.491417,,,,,,,
1512180026.702370,-2.103747,0.746127,0.414601,0.022200,0.007107,-0.003656,-0.632481,-0.678800,0.373092,0.059422,-0.026370,-0.027115,-13.906113,-9.067345,-10.263268,,,,,,,
1512180026.722360,-2.104050,0.745993,0.415244,0.017001,0.010314,-0.012252,-0.632446,-0.678701,0.373331,0.002075,-0.045161,0.007269,-13.756409,-9.142113,-10.189568,,,,,,,
1512180026.742349,-2.104315,0.745923,0.415887,0.027544,0.006041,-0.005720,-0.632388,-0.678650,0.373522,0.022037,-0.019958,-0.027880,-13.679077,-8.616997,-10.264961,,,,,,,
1512180026.762368,-2.104541,0.745870,0.416541,0.017021,0.009249,-0.013321,-0.632335,-0.678611,0.373683,0.014201,-0.035912,-0.012599,-13.830429,-8.917229,-10.263832,,,,,,,
1512180026.782357,-2.104871,0.745727,0.417301,0.025418,0.011379,-0.005732,-0.632295,-0.678506,0.373941,0.036714,-0.018485,0.009924,-13.680435,-8.917000,-10.265099,,,,,,,
1512180026.802346,-2.105198,0.745683,0.418040,0.029583,0.006038,0.000710,-0.632199,-0.678473,0.374164,0.065823,-0.023995,-0.034656,-13.829193,-8.617226,-10.488686,,,,,,,
1512180026.822366,-2.105571,0.745538,0.418823,0.032822,0.004975,-0.002448,-0.632144,-0.678367,0.374450,0.046801,-0.051476,-0.020660,-13.831451,-9.142235,-10.263939,,,,,,,
1512180026.842355,-2.105861,0.745523,0.419521,0.036025,0.007119,-0.002393,-0.632044,-0.678356,0.374638,0.064447,-0.011173,-0.035863,-13.830765,-8.992226,-10.263863,,,,,,,
1512180026.862344,-2.106058,0.745529,0.420161,0.021238,0.009245,-0.011131,-0.631966,-0.678361,0.374761,0.043633,-0.021484,-0.018788,-13.606903,-9.216896,-10.490883,,,,,,,
1512180026.882333,-2.106235,0.745414,0.420819,0.025373,0.010309,-0.002535,-0.631967,-0.678276,0.374912,0.052225,-0.018623,-0.022938,-13.607681,-9.366890,-10.715950,,,,,,,
1512180026.902352,-2.106395,0.745454,0.421460,0.023339,0.016729,-0.007872,-0.631884,-0.678305,0.374999,0.074694,-0.014688,-0.015594,-13.455887,-8.991661,-10.492043,,,,,,,
1512180026.922341,-2.106642,0.745319,0.422206,0.027660,0.014601,-0.012084,-0.631870,-0.678206,0.375202,0.046253,-0.028504,-0.005314,-13.604752,-8.766884,-10.265678,,,,,,,
1512180026.942330,-2.106740,0.745324,0.422843,0.030719,0.014590,-0.003510,-0.631830,-0.678210,0.375262,0.059213,-0.021070,-0.041934,-13.754196,-8.617104,-10.489326,,,,,,,
1512180026.962350,-2.106885,0.745425,0.423570,0.010823,0.021010,-0.025098,-0.631716,-0.678284,0.375318,0.035800,-0.021362,-0.001203,-13.380127,-8.841545,-10.342613,,,,,,,
1512180026.982339,-2.106955,0.745361,0.424272,0.012754,0.026332,-0.012257,-0.631727,-0.678237,0.375385,0.044493,-0.019273,0.020306,-13.457047,-9.216667,-10.792152,,,,,,,
1512180027.002328,-2.106880,0.745588,0.424906,0.018141,0.025282,-0.015379,-0.631624,-0.678404,0.375259,0.065751,-0.026583,-0.005050,-13.229416,-8.691322,-10.268822,,,,,,,
1512180027.022347,-2.106728,0.745645,0.425544,0.019202,0.028484,-0.015354,-0.631647,-0.678446,0.375144,0.013468,-0.046576,-0.010428,-13.529190,-8.616768,-10.491234,,,,,,,
1512180027.042336,-2.106500,0.745818,0.426142,0.024419,0.030611,-0.008877,-0.631632,-0.678573,0.374939,0.046625,-0.028855,-0.013077,-13.454453,-8.691658,-10.341911,,,,,,,
1512180027.062328,-2.106277,0.746028,0.426741,0.007586,0.033819,-0.021901,-0.631593,-0.678727,0.374726,0.009599,-0.040221,-0.000321,-13.380203,-8.841545,-10.492622,,,,,,,
1512180027.082348,-2.106124,0.746066,0.427425,0.014827,0.032733,-0.009009,-0.631628,-0.678755,0.374616,0.015875,-0.022890,0.005770,-13.303864,-8.541435,-10.493111,,,,,,,
1512180027.102337,-2.105956,0.746129,0.428052,0.018102,0.029547,-0.013235,-0.631655,-0.678801,0.374488,-0.006483,-0.016939,-0.013450,-13.226761,-8.091316,-10.343544,,,,,,,
1512180027.122326,-2.106023,0.745942,0.428848,0.028749,0.024218,-0.013101,-0.631738,-0.678664,0.374596,-0.033453,-0.041749,-0.012077,-12.927536,-8.240868,-10.571159,,,,,,,
1512180027.142345,-2.106124,0.745772,0.429626,0.033844,0.020992,0.000820,-0.631800,-0.678539,0.374718,0.000345,-0.001285,-0.036446,-13.003860,-8.540993,-10.495674,,,,,,,
1512180027.162334,-2.106213,0.745611,0.430385,0.023369,0.025272,-0.009977,-0.631861,-0.678421,0.374830,-0.034170,0.029007,-0.009062,-13.152878,-8.316200,-10.569283,,,,,,,
1512180027.182323,-2.106261,0.745273,0.431075,0.031679,0.019918,0.002918,-0.632039,-0.678173,0.374977,-0.043253,0.029033,-0.024452,-13.601608,-8.016884,-10.715324,,,,,,,
1512180027.202312,-2.106296,0.745052,0.431789,0.032730,0.018851,0.003996,-0.632155,-0.678010,0.375076,-0.025224,0.037736,-0.048843,-13.528488,-8.466774,-10.416161,,,,,,,
1512180027.222332,-2.106406,0.744666,0.432586,0.036035,0.023141,-0.002338,-0.632339,-0.677726,0.375279,-0.078339,0.040962,-0.007267,-13.227844,-8.316322,-10.493645,,,,,,,
1512180027.242321,-2.106353,0.744341,0.433262,0.041186,0.024194,0.008400,-0.632548,-0.677487,0.375357,-0.054341,0.077466,-0.049781,-13.228638,-8.466331,-10.718712,,,,,,,
1512180027.262310,-2.106292,0.744027,0.433978,0.023300,0.029536,-0.005699,-0.632754,-0.677256,0.375427,-0.090986,0.070033,-0.015625,-13.378632,-8.466545,-10.717445,,,,,,,
1512180027.282330,-2.106325,0.743467,0.434831,0.040122,0.028464,0.008399,-0.633067,-0.676844,0.375642,-0.074086,0.092036,-0.000932,-13.226685,-8.016319,-10.868507,,,,,,,
1512180027.302319,-2.106400,0.743095,0.435688,0.050805,0.024208,0.006406,-0.633256,-0.676570,0.375818,-0.039855,0.098735,-0.043908,-13.378662,-8.466545,-10.792442,,,,,,,
1512180027.322308,-2.106475,0.742605,0.436605,0.039317,0.024222,-0.007618,-0.633512,-0.676209,0.376034,-0.106966,0.071183,-0.020871,-13.830353,-8.842232,-10.788795,,,,,,,
1512180027.342327,-2.106486,0.742164,0.437514,0.047658,0.026351,0.004239,-0.633765,-0.675884,0.376194,-0.069741,0.095074,-0.033069,-13.227951,-8.316322,-10.718651,,,,,,,
1512180027.362316,-2.106374,0.741901,0.438330,0.024477,0.033824,-0.012063,-0.633960,-0.675691,0.376214,-0.089917,0.085038,-0.008095,-13.603104,-8.316887,-11.015465,,,,,,,
1512180027.382305,-2.106362,0.741480,0.439214,0.024403,0.032746,-0.007804,-0.634209,-0.675380,0.376351,-0.096641,0.070735,0.018180,-13.526871,-8.091774,-10.565987,,,,,,,
1512180027.402325,-2.106341,0.741198,0.440129,0.040374,0.030633,-0.006513,-0.634381,-0.675172,0.376435,-0.076786,0.070665,-0.025193,-13.377762,-8.241539,-11.017342,,,,,,,
1512180027.422314,-2.106229,0.740918,0.440935,0.027744,0.031701,-0.016287,-0.634586,-0.674966,0.376460,-0.114056,0.066934,0.002431,-13.229416,-8.616325,-10.943779,,,,,,,
1512180027.442303,-2.106164,0.740629,0.441772,0.040302,0.028495,-0.001187,-0.634778,-0.674752,0.376519,-0.066532,0.077065,-0.016579,-13.078812,-8.466103,-11.094994,,,,,,,
1512180027.462322,-2.106037,0.740536,0.442551,0.020278,0.032755,-0.016393,-0.634880,-0.674684,0.376470,-0.084099,0.064424,0.023112,-13.228897,-8.466331,-11.243721,,,,,,,
1512180027.482311,-2.105894,0.740277,0.443323,0.026579,0.033826,-0.009899,-0.635084,-0.674493,0.376468,-0.090533,0.061867,-0.004764,-13.079269,-8.541100,-11.320030,,,,,,,
1512180027.502300,-2.105790,0.740237,0.444130,0.029721,0.032755,-0.006659,-0.635146,-0.674463,0.376416,-0.030106,0.057520,-0.014722,-13.154526,-8.616203,-11.169426,,,,,,,
1512180027.522289,-2.105779,0.740057,0.445030,0.032090,0.030648,-0.021559,-0.635254,-0.674330,0.376471,-0.096115,0.030882,0.021158,-13.154648,-8.616203,-11.394432,,,,,,,
1512180027.542309,-2.105644,0.740074,0.445860,0.036148,0.030632,-0.008706,-0.635296,-0.674342,0.376379,-0.030445,0.054515,-0.030035,-13.455994,-8.916664,-11.392021,,,,,,,
1512180027.562298,-2.105434,0.740219,0.446648,0.014051,0.038108,-0.026058,-0.635291,-0.674450,0.376196,-0.052347,0.033779,-0.000525,-13.154312,-8.541206,-11.394386,,,,,,,
1512180027.582287,-2.105227,0.740248,0.447462,0.018252,0.043450,-0.021713,-0.635352,-0.674471,0.376055,-0.038324,0.041307,0.026884,-13.380997,-8.916557,-11.392647,,,,,,,
1512180027.602306,-2.104845,0.740525,0.448147,0.021425,0.041313,-0.020610,-0.635335,-0.674675,0.375717,-0.017299,0.019692,-0.024597,-13.229675,-8.616325,-11.468788,,,,,,,
1512180027.622295,-2.104485,0.740741,0.448861,0.010943,0.043454,-0.031415,-0.635344,-0.674835,0.375414,-0.060380,0.000961,0.004713,-13.080093,-8.691093,-11.620094,,,,,,,
1512180027.642284,-2.104181,0.741038,0.449621,0.022444,0.042379,-0.017392,-0.635286,-0.675054,0.375119,0.020173,0.029577,-0.007306,-13.308289,-9.366432,-11.918495,,,,,,,
1512180027.662304,-2.103768,0.741440,0.450299,0.005670,0.043454,-0.034689,-0.635207,-0.675351,0.374718,-0.014833,-0.005558,-0.000939,-13.081818,-9.066109,-11.695274,,,,,,,
1512180027.682293,-2.103418,0.741729,0.451054,0.019381,0.041320,-0.025970,-0.635169,-0.675564,0.374397,-0.008248,-0.011387,-0.018547,-12.781143,-8.915657,-11.697746,,,,,,,
1512180027.702282,-2.102927,0.742265,0.451706,0.010972,0.044530,-0.032474,-0.635041,-0.675959,0.373901,0.014329,-0.006323,-0.021332,-13.007385,-9.140984,-12.145943,,,,,,,
1512180027.722301,-2.102470,0.742649,0.452409,0.010982,0.049867,-0.033524,-0.634988,-0.676242,0.373480,-0.008154,-0.024701,0.012308,-13.230621,-8.766319,-11.993843,,,,,,,
1512180027.742290,-2.101990,0.743104,0.453069,0.019345,0.045587,-0.023824,-0.634902,-0.676577,0.373018,0.023178,-0.021726,-0.049318,-13.456940,-8.991661,-12.592033,,,,,,,
1512180027.762279,-2.101410,0.743595,0.453744,0.002590,0.055214,-0.041088,-0.634832,-0.676938,0.372482,-0.004344,-0.048602,-0.005661,-13.384216,-9.516548,-12.442924,,,,,,,
1512180027.782299,-2.100891,0.743938,0.454506,0.021491,0.054140,-0.023761,-0.634825,-0.677191,0.372035,0.035841,-0.020731,-0.005031,-13.306595,-8.916435,-12.593285,,,,,,,
1512180027.802288,-2.100225,0.744510,0.455185,0.020543,0.053082,-0.031242,-0.634738,-0.677611,0.371417,0.043247,-0.031633,-0.062274,-13.458282,-9.291664,-12.592186,,,,,,,
1512180027.822277,-2.099586,0.744854,0.455986,0.014214,0.060560,-0.034504,-0.634774,-0.677865,0.370893,0.003716,-0.047889,-0.009550,-13.760681,-9.817116,-12.664864,,,,,,,
1512180027.842266,-2.098819,0.745341,0.456772,0.029006,0.062700,-0.026822,-0.634773,-0.678222,0.370240,0.049431,-0.029038,-0.065614,-13.312225,-10.116447,-13.043831,,,,,,,
1512180027.862286,-2.097957,0.745858,0.457530,-0.000526,0.073376,-0.045335,-0.634789,-0.678602,0.369516,-0.000557,-0.057146,-0.013849,-13.611252,-9.891899,-13.116188,,,,,,,
1512180027.882275,-2.097212,0.746181,0.458442,0.017334,0.073367,-0.030154,-0.634874,-0.678840,0.368933,0.027620,-0.027398,-0.002066,-13.766388,-11.017128,-13.265434,,,,,,,
1512180027.902264,-2.096467,0.746603,0.459381,0.023787,0.069114,-0.033272,-0.634901,-0.679149,0.368316,0.040525,-0.030369,-0.046066,-13.613464,-10.341896,-13.491386,,,,,,,
1512180027.922283,-2.095812,0.746831,0.460441,0.024841,0.065914,-0.032199,-0.635009,-0.679316,0.367823,0.005873,-0.054174,-0.035929,-13.690552,-10.792015,-13.640968,,,,,,,
1512180027.942272,-2.095185,0.747156,0.461562,0.037454,0.066979,-0.021353,-0.635048,-0.679555,0.367314,0.067146,-0.025233,-0.071431,-13.615936,-10.866905,-13.716637,,,,,,,
1512180027.962261,-2.094537,0.747464,0.462697,0.023859,0.071259,-0.037527,-0.635104,-0.679781,0.366798,0.018496,-0.034162,-0.041252,-13.617737,-11.241905,-13.941795,,,,,,,
1512180027.982281,-2.093936,0.747636,0.463898,0.037551,0.070197,-0.026669,-0.635223,-0.679907,0.366358,0.029907,-0.024240,-0.046946,-13.845291,-11.767250,-14.315132,,,,,,,
1512180028.002270,-2.093336,0.747940,0.465138,0.037638,0.069132,-0.033072,-0.635263,-0.680130,0.365873,0.030023,-0.041244,-0.082045,-13.993484,-11.392479,-14.088676,,,,,,,
1512180028.022259,-2.092966,0.747939,0.466643,0.048233,0.072348,-0.028642,-0.635400,-0.680129,0.365638,0.025384,-0.047227,-0.040245,-13.992584,-11.167473,-14.313576,,,,,,,
1512180028.042278,-2.092719,0.748063,0.468245,0.066254,0.067020,-0.023071,-0.635417,-0.680220,0.365440,0.058344,-0.018709,-0.075050,-13.770813,-11.842140,-14.690804,,,,,,,
1512180028.062222,-2.092492,0.748084,0.469926,0.054852,0.064908,-0.042430,-0.635487,-0.680236,0.365288,-0.023754,-0.059022,-0.071877,-13.995667,-11.767479,-15.063850,,,,,,,
1512180028.082211,-2.092388,0.748025,0.471825,0.065316,0.069171,-0.030538,-0.635560,-0.680192,0.365242,0.018724,-0.034682,-0.056511,-13.770966,-11.842140,-14.990807,,,,,,,
1512180028.102232,-2.092326,0.748068,0.473803,0.054830,0.075588,-0.040260,-0.635557,-0.680224,0.365188,0.028960,-0.012266,-0.025817,-13.994690,-11.542473,-15.138756,,,,,,,
1512180028.122221,-2.092338,0.747896,0.475908,0.069692,0.073465,-0.036855,-0.635654,-0.680098,0.365254,0.002643,-0.044649,-0.019520,-13.773102,-12.292137,-15.216011,,,,,,,
1512180028.142210,-2.092251,0.747940,0.478023,0.077092,0.069195,-0.033566,-0.635659,-0.680130,0.365183,0.038277,-0.050506,-0.084650,-14.450165,-12.743156,-15.285469,,,,,,,
1512180028.162199,-2.092171,0.747915,0.480251,0.068708,0.079878,-0.042180,-0.635702,-0.680112,0.365140,0.002355,-0.038012,-0.029386,-14.375580,-12.818047,-15.436150,,,,,,,
1512180028.182218,-2.092181,0.747827,0.482581,0.084553,0.079891,-0.032352,-0.635750,-0.680047,0.365176,0.059304,-0.009498,-0.021426,-14.450317,-12.743156,-15.585472,,,,,,,
1512180028.202207,-2.092098,0.747913,0.484872,0.071986,0.080964,-0.046391,-0.635729,-0.680110,0.365094,0.033388,-0.028462,-0.032254,-14.751816,-13.043617,-15.883064,,,,,,,
1512180028.222196,-2.091970,0.747786,0.487217,0.073996,0.085224,-0.038885,-0.635850,-0.680017,0.365055,0.007203,-0.049124,-0.017307,-14.529068,-13.568275,-15.660210,,,,,,,
1512180028.242216,-2.091708,0.747825,0.489512,0.083466,0.089495,-0.031271,-0.635922,-0.680046,0.364875,0.058728,-0.026757,-0.050864,-14.606201,-14.018394,-15.884789,,,,,,,
1512180028.262205,-2.091409,0.747824,0.491814,0.072929,0.098043,-0.037788,-0.636032,-0.680045,0.364685,0.030258,-0.026620,-0.014846,-14.455902,-13.943169,-15.961021,,,,,,,
1512180028.282194,-2.091101,0.747770,0.494171,0.085611,0.094844,-0.031219,-0.636175,-0.680005,0.364507,0.050375,-0.030474,-0.045049,-14.231537,-14.092827,-15.888008,,,,,,,
1512180028.302214,-2.090611,0.747873,0.496443,0.069839,0.101255,-0.044218,-0.636292,-0.680081,0.364160,0.028672,-0.027759,-0.036752,-14.307480,-14.317940,-15.737480,,,,,,,
1512180028.322203,-2.090142,0.747754,0.498788,0.069739,0.102306,-0.038889,-0.636533,-0.679994,0.363901,0.006040,-0.046004,-0.006678,-14.682892,-14.393501,-15.884315,,,,,,,
1512180028.342192,-2.089671,0.747753,0.501161,0.079252,0.096975,-0.033436,-0.636705,-0.679993,0.363602,0.042085,-0.030746,-0.042084,-14.008896,-14.617485,-15.890160,,,,,,,
1512180028.362211,-2.089088,0.747729,0.503506,0.070867,0.105522,-0.042057,-0.636930,-0.679976,0.363238,0.008359,-0.036653,-0.036914,-14.460327,-14.918175,-16.036476,,,,,,,
1512180028.382200,-2.088532,0.747655,0.505929,0.088908,0.109815,-0.036449,-0.637175,-0.679921,0.362909,0.028685,-0.012721,-0.059366,-14.384506,-14.768059,-15.737038,,,,,,,
1512180028.402189,-2.087967,0.747699,0.508370,0.078462,0.114096,-0.049379,-0.637354,-0.679954,0.362534,0.017756,-0.023751,-0.033615,-14.460693,-14.993172,-16.111504,,,,,,,
1512180028.422209,-2.087364,0.747543,0.510864,0.082627,0.113019,-0.043994,-0.637664,-0.679839,0.362202,-0.012284,-0.058717,-0.054996,-14.537048,-15.293282,-16.111015,,,,,,,
1512180028.442198,-2.086767,0.747505,0.513423,0.092088,0.118360,-0.035309,-0.637903,-0.679811,0.361833,0.050790,-0.012343,-0.053331,-14.536636,-15.218285,-15.960976,,,,,,,
1512180028.462187,-2.086283,0.747438,0.516082,0.082811,0.116248,-0.054640,-0.638117,-0.679762,0.361548,-0.020269,-0.052767,-0.029135,-14.237717,-15.442833,-16.113625,,,,,,,
1512180028.482176,-2.085921,0.747248,0.518868,0.095415,0.110902,-0.043816,-0.638361,-0.679622,0.361380,-0.008993,-0.040440,-0.034140,-14.387390,-15.368065,-16.112328,,,,,,,
1512180028.502195,-2.085656,0.747162,0.521714,0.095418,0.108768,-0.043823,-0.638507,-0.679560,0.361239,0.010944,-0.019003,-0.037799,-14.312683,-15.442955,-16.037987,,,,,,,
1512180028.522184,-2.085634,0.746896,0.524757,0.112495,0.095978,-0.045752,-0.638672,-0.679365,0.361314,-0.042007,-0.065768,-0.068482,-14.240646,-16.117836,-15.888939,,,,,,,
1512180028.542173,-2.085656,0.746776,0.527901,0.123021,0.099185,-0.037058,-0.638735,-0.679276,0.361368,0.017412,-0.024993,-0.094339,-14.466660,-16.343178,-15.887138,,,,,,,
1512180028.562193,-2.085822,0.746714,0.531157,0.110575,0.104543,-0.058544,-0.638711,-0.679231,0.361495,-0.026359,-0.008773,-0.071990,-14.089935,-15.967613,-15.815147,,,,,,,
1512180028.582182,-2.086127,0.746448,0.534544,0.119028,0.098139,-0.054180,-0.638758,-0.679035,0.361779,-0.049841,-0.047542,-0.078072,-14.466812,-16.418190,-15.512184,,,,,,,
1512180028.602171,-2.086587,0.746368,0.538098,0.123329,0.098152,-0.056249,-0.638639,-0.678977,0.362099,-0.017184,-0.045602,-0.085900,-14.014603,-15.967506,-15.140800,,,,,,,
1512180028.622190,-2.087407,0.746108,0.541993,0.135243,0.088581,-0.067835,-0.638495,-0.678786,0.362710,-0.068308,-0.057832,-0.067605,-14.091354,-16.342613,-15.290321,,,,,,,
1512180028.642179,-2.088194,0.745904,0.546007,0.152076,0.090719,-0.053723,-0.638329,-0.678636,0.363280,-0.006736,-0.021437,-0.121703,-14.242493,-16.567848,-15.514153,,,,,,,
1512180028.662168,-2.089127,0.745846,0.550204,0.139571,0.098210,-0.070936,-0.638024,-0.678593,0.363895,0.004815,-0.007213,-0.069996,-13.791992,-16.492165,-15.217949,,,,,,,
1512180028.682188,-2.090266,0.745592,0.554638,0.141706,0.100344,-0.071967,-0.637759,-0.678407,0.364707,-0.009763,-0.004104,-0.027427,-13.642563,-16.641945,-14.994286,,,,,,,
1512180028.702177,-2.091318,0.745507,0.559114,0.149133,0.095013,-0.069745,-0.637425,-0.678345,0.365407,0.019841,-0.029602,-0.088093,-13.493988,-16.941719,-15.145714,,,,,,,
1512180028.722166,-2.092520,0.745407,0.563802,0.147311,0.097186,-0.087884,-0.637045,-0.678271,0.366207,-0.026621,-0.025648,-0.056728,-13.794479,-17.092171,-14.768227,,,,,,,
1512180028.742185,-2.093758,0.745201,0.568538,0.154600,0.095036,-0.078195,-0.636712,-0.678119,0.367065,-0.009116,-0.002636,-0.045105,-13.944168,-17.017403,-14.841911,,,,,,,
1512180028.762174,-2.094919,0.745139,0.573233,0.152570,0.101457,-0.083530,-0.636323,-0.678074,0.367826,0.010514,-0.010677,-0.063336,-13.492477,-16.641716,-14.845558,,,,,,,
1512180028.782163,-2.096101,0.744962,0.577996,0.149396,0.107864,-0.084619,-0.635992,-0.677944,0.368638,0.003179,-0.031681,-0.019716,-13.493042,-16.791725,-14.620644,,,,,,,
1512180028.802152,-2.097296,0.744925,0.582772,0.161006,0.103594,-0.078071,-0.635573,-0.677916,0.369411,0.061400,0.009856,-0.031673,-13.118423,-16.866158,-14.698860,,,,,,,
1512180028.822172,-2.098229,0.744951,0.587333,0.140929,0.105719,-0.089016,-0.635212,-0.677936,0.369995,0.011448,-0.019910,-0.039428,-13.418793,-16.941612,-14.771339,,,,,,,
1512180028.842161,-2.099181,0.744891,0.591939,0.141932,0.109987,-0.084721,-0.634895,-0.677892,0.370620,0.018059,0.003652,-0.016036,-12.893341,-16.865822,-14.550758,,,,,,,
1512180028.862149,-2.099936,0.745024,0.596340,0.135593,0.113189,-0.088000,-0.634538,-0.677989,0.371054,0.024644,-0.005254,-0.023917,-13.268311,-16.866386,-14.472588,,,,,,,
1512180028.882169,-2.100635,0.745051,0.600710,0.131415,0.113192,-0.093391,-0.634263,-0.678009,0.371488,-0.021285,-0.017975,-0.019498,-13.120712,-17.391167,-14.549095,,,,,,,
1512180028.902158,-2.101294,0.745023,0.605078,0.136502,0.118511,-0.078374,-0.634035,-0.677988,0.371916,0.014177,0.003535,-0.026884,-12.818832,-16.940712,-14.851448,,,,,,,
1512180028.922148,-2.101845,0.745128,0.609328,0.126038,0.124925,-0.090232,-0.633768,-0.678066,0.372229,-0.001363,-0.008915,-0.001151,-12.820145,-17.240715,-14.776588,,,,,,,
1512180028.942167,-2.102278,0.745016,0.613516,0.127971,0.123841,-0.077411,-0.633673,-0.677983,0.372542,-0.010965,-0.010234,-0.001372,-12.747177,-17.690605,-14.777428,,,,,,,
1512180028.962156,-2.102550,0.745011,0.617583,0.135187,0.121681,-0.063459,-0.633575,-0.677980,0.372716,0.033264,0.003099,-0.046361,-12.745819,-17.390602,-14.777290,,,,,,,
1512180028.982145,-2.102786,0.744943,0.621658,0.126970,0.125981,-0.081684,-0.633527,-0.677930,0.372889,-0.024814,-0.011889,-0.045039,-13.199539,-18.216286,-14.773842,,,,,,,
1512180029.002165,-2.102948,0.744793,0.625688,0.128892,0.133434,-0.068839,-0.633554,-0.677820,0.373044,0.005136,0.010187,-0.027157,-12.746750,-17.615593,-14.627388,,,,,,,
1512180029.022154,-2.103014,0.744746,0.629644,0.117224,0.135560,-0.072198,-0.633558,-0.677785,0.373102,0.009931,0.000127,-0.020822,-12.671051,-17.465492,-14.552956,,,,,,,
1512180029.042143,-2.103155,0.744571,0.633632,0.119412,0.130225,-0.076452,-0.633607,-0.677656,0.373252,-0.032149,-0.024431,-0.022406,-12.597763,-17.840370,-14.628777,,,,,,,
1512180029.062156,-2.103235,0.744480,0.637596,0.129935,0.129159,-0.067773,-0.633630,-0.677590,0.373334,0.006113,-0.009452,-0.069104,-12.447464,-17.765144,-14.705009,,,,,,,
1512180029.082145,-2.103429,0.744389,0.641667,0.119463,0.134509,-0.078565,-0.633612,-0.677523,0.373488,-0.006021,-0.013594,-0.010527,-12.074799,-18.289589,-14.633446,,,,,,,
1512180029.102134,-2.103654,0.744256,0.645764,0.138519,0.127045,-0.070853,-0.633606,-0.677425,0.373676,-0.001068,-0.003819,-0.048374,-11.998825,-18.064476,-14.708977,,,,,,,
1512180029.122123,-2.103594,0.744359,0.649668,0.130016,0.130234,-0.073100,-0.633568,-0.677501,0.373603,0.022271,-0.006535,-0.093238,-12.073929,-18.139595,-14.258369,,,,,,,
1512180029.142143,-2.103702,0.744329,0.653761,0.122707,0.136653,-0.081711,-0.633546,-0.677478,0.373682,-0.017928,-0.020901,-0.033076,-12.073364,-17.989586,-14.483299,,,,,,,
1512180029.162132,-2.103809,0.744314,0.657872,0.125808,0.138785,-0.075260,-0.633516,-0.677467,0.373756,0.005601,0.019112,-0.029060,-12.072876,-17.914589,-14.183266,,,,,,,
1512180029.182121,-2.104000,0.744317,0.662079,0.128178,0.131339,-0.090177,-0.633443,-0.677470,0.373876,-0.033122,-0.022878,-0.034246,-12.150208,-18.439705,-14.107872,,,,,,,
1512180029.202140,-2.104089,0.744252,0.666313,0.135517,0.133472,-0.082601,-0.633448,-0.677422,0.373956,-0.044347,-0.021873,-0.065194,-11.848145,-17.989250,-14.035210,,,,,,,
1512180029.222129,-2.104098,0.744257,0.670548,0.141774,0.140940,-0.073957,-0.633442,-0.677426,0.373960,0.011448,0.014736,-0.049161,-11.699417,-18.289024,-13.886635,,,,,,,
1512180029.242118,-2.103996,0.744206,0.674702,0.133370,0.147356,-0.080449,-0.633510,-0.677388,0.373912,-0.021763,-0.007808,-0.040416,-11.699341,-18.289024,-13.736641,,,,,,,
1512180029.262138,-2.103817,0.744128,0.678870,0.137458,0.151612,-0.069715,-0.633623,-0.677331,0.373826,-0.002822,-0.016334,-0.059525,-11.249710,-18.363350,-13.815483,,,,,,,
1512180029.282127,-2.103497,0.744054,0.683006,0.139720,0.154831,-0.078203,-0.633785,-0.677276,0.373649,-0.044987,-0.033692,-0.080009,-11.026367,-18.738014,-13.742577,,,,,,,
1512180029.302116,-2.103011,0.743904,0.687042,0.139534,0.163353,-0.066449,-0.634054,-0.677165,0.373392,-0.014307,-0.012074,-0.076563,-11.253021,-19.113350,-13.665840,,,,,,,
1512180029.322135,-2.102624,0.743761,0.691172,0.135245,0.164415,-0.064373,-0.634282,-0.677061,0.373196,0.031987,-0.004214,-0.028866,-11.022430,-17.913017,-13.292198,,,,,,,
1512180029.342125,-2.102181,0.743612,0.695293,0.129030,0.164429,-0.075123,-0.634534,-0.676951,0.372966,-0.007418,-0.016744,-0.048518,-10.650574,-18.587456,-13.520699,,,,,,,
1512180029.362114,-2.101703,0.743481,0.699414,0.127932,0.160146,-0.074091,-0.634789,-0.676855,0.372707,-0.022209,-0.007288,-0.069438,-10.651108,-18.737450,-13.220757,,,,,,,
1512180029.382133,-2.101260,0.743373,0.703644,0.125839,0.169759,-0.076221,-0.635017,-0.676775,0.372463,-0.014031,0.006502,-0.048091,-10.874008,-18.287788,-13.068642,,,,,,,
1512180029.402122,-2.100907,0.743272,0.707966,0.133386,0.169781,-0.081442,-0.635207,-0.676701,0.372273,-0.020845,0.018788,-0.020481,-10.650803,-18.662453,-13.295738,,,,,,,
1512180029.422111,-2.100327,0.743327,0.712149,0.120538,0.171894,-0.077354,-0.635390,-0.676741,0.371885,-0.018907,-0.008501,-0.022535,-10.349228,-18.362007,-12.848137,,,,,,,
1512180029.442100,-2.099670,0.743412,0.716359,0.130290,0.168718,-0.087888,-0.635584,-0.676803,0.371438,-0.062399,-0.026901,-0.064706,-9.747208,-17.911095,-12.853035,,,,,,,
1512180029.462120,-2.098816,0.743557,0.720513,0.128115,0.179392,-0.084683,-0.635816,-0.676910,0.370846,-0.050479,0.006164,-0.065334,-9.973175,-18.136436,-12.776222,,,,,,,
1512180029.482109,-2.098067,0.743752,0.724782,0.128180,0.189014,-0.087846,-0.635979,-0.677054,0.370303,-0.014396,0.011801,-0.007220,-9.598434,-18.210884,-12.629448,,,,,,,
1512180029.502098,-2.097371,0.743837,0.729164,0.149578,0.173037,-0.092920,-0.636187,-0.677116,0.369832,-0.070554,-0.043587,-0.095158,-9.524078,-18.360756,-12.555153,,,,,,,
1512180029.522117,-2.096418,0.744091,0.733474,0.140921,0.189029,-0.084462,-0.636391,-0.677303,0.369139,-0.021858,-0.009434,-0.095609,-9.447983,-18.135658,-12.405693,,,,,,,
1512180029.542106,-2.095757,0.744350,0.738076,0.138008,0.207212,-0.101501,-0.636483,-0.677494,0.368630,-0.014137,0.026874,-0.006021,-9.073593,-18.285088,-12.258949,,,,,,,
1512180029.562095,-2.094761,0.744605,0.742396,0.143250,0.190126,-0.096150,-0.636699,-0.677682,0.367909,-0.040180,-0.013480,-0.087117,-9.523544,-18.285759,-12.180122,,,,,,,
1512180029.582115,-2.093369,0.745040,0.746636,0.134749,0.204000,-0.097292,-0.636956,-0.678001,0.366875,-0.064521,-0.024773,-0.134240,-9.071793,-17.910088,-12.033775,,,,,,,
1512180029.602104,-2.092155,0.745340,0.751062,0.124139,0.221080,-0.099518,-0.637224,-0.678222,0.366001,-0.047713,-0.017610,0.011105,-8.921265,-17.834862,-11.660027,,,,,,,
1512180029.622093,-2.090813,0.745783,0.755348,0.149563,0.204009,-0.090681,-0.637454,-0.678547,0.364995,-0.016065,0.033268,-0.083776,-8.848053,-18.209755,-11.885826,,,,,,,
1512180029.642112,-2.089317,0.746192,0.759626,0.136957,0.208279,-0.102579,-0.637757,-0.678847,0.363904,-0.100600,-0.036164,-0.126507,-8.173325,-18.283745,-11.741600,,,,,,,
1512180029.662101,-2.087967,0.746423,0.764076,0.142166,0.218959,-0.093935,-0.638112,-0.679017,0.362965,-0.060939,-0.025100,-0.082066,-8.243668,-17.233849,-11.890480,,,,,,,
1512180029.682090,-2.086796,0.746748,0.768634,0.133712,0.228573,-0.097219,-0.638344,-0.679255,0.362109,-0.026725,0.037654,0.004911,-7.945175,-17.608391,-11.518196,,,,,,,
1512180029.702110,-2.085640,0.746957,0.773244,0.148791,0.199777,-0.107760,-0.638638,-0.679409,0.361300,-0.110065,-0.037098,-0.116518,-7.870163,-17.608284,-11.518837,,,,,,,
1512180029.722099,-2.084216,0.747200,0.777801,0.144226,0.215749,-0.089652,-0.639008,-0.679587,0.360310,-0.047531,-0.020226,-0.132542,-7.643524,-17.232948,-11.595573,,,,,,,
1512180029.742088,-2.082895,0.747553,0.782440,0.129503,0.241386,-0.100435,-0.639275,-0.679846,0.359348,-0.020225,0.024893,-0.020999,-7.419113,-17.382607,-11.447563,,,,,,,
1512180029.762077,-2.081778,0.747742,0.787270,0.151880,0.224333,-0.100168,-0.639563,-0.679985,0.358570,-0.036523,0.008262,-0.051197,-7.266266,-16.782372,-11.148552,,,,,,,
1512180029.782096,-2.080228,0.748123,0.791903,0.161339,0.215785,-0.092600,-0.639892,-0.680264,0.357452,-0.033585,-0.003040,-0.186935,-7.192322,-17.007271,-11.224297,,,,,,,
1512180029.802085,-2.078962,0.748472,0.796810,0.141259,0.238204,-0.102408,-0.640137,-0.680520,0.356526,-0.002441,0.047769,-0.010320,-7.192352,-17.007271,-11.299294,,,,,,,
1512180029.822074,-2.077968,0.748753,0.801794,0.173054,0.208324,-0.092457,-0.640324,-0.680726,0.355797,-0.000637,0.042359,-0.098717,-7.192612,-17.082268,-11.149330,,,,,,,
1512180029.842094,-2.076869,0.749091,0.806828,0.154007,0.215785,-0.101238,-0.640513,-0.680974,0.354981,-0.056707,-0.046428,-0.128648,-6.744003,-17.381599,-11.228294,,,,,,,
1512180029.862083,-2.076469,0.749211,0.812397,0.170050,0.214749,-0.104206,-0.640584,-0.681061,0.354685,-0.033961,0.009568,-0.036570,-6.742020,-16.931587,-11.303093,,,,,,,
1512180029.882072,-2.076148,0.749286,0.817984,0.185969,0.201946,-0.100823,-0.640654,-0.681116,0.354456,-0.056215,-0.002173,-0.104913,-6.516754,-16.856255,-11.454964,,,,,,,
1512180029.902092,-2.075918,0.749349,0.823618,0.152035,0.209395,-0.110881,-0.640697,-0.681162,0.354287,-0.090870,-0.009710,-0.020547,-6.291260,-16.780922,-11.156837,,,,,,,
1512180029.922081,-2.076183,0.749108,0.829587,0.208339,0.183821,-0.100561,-0.640746,-0.680986,0.354537,-0.068726,0.005266,-0.110045,-6.367950,-17.156029,-11.156380,,,,,,,
1512180029.942070,-2.075989,0.749196,0.835198,0.183833,0.192330,-0.100887,-0.640763,-0.681051,0.354383,-0.054809,0.000753,-0.126493,-6.067200,-17.005577,-11.008858,,,,,,,
1512180029.962089,-2.076250,0.748988,0.841161,0.194585,0.190224,-0.106066,-0.640795,-0.680898,0.354619,-0.063276,-0.002757,-0.065481,-6.597076,-18.056374,-11.304878,,,,,,,
1512180029.982078,-2.076462,0.748847,0.847019,0.197672,0.187010,-0.099637,-0.640804,-0.680795,0.354801,-0.039372,-0.000113,-0.081608,-6.296921,-18.055931,-11.007439,,,,,,,
1512180030.002067,-2.076718,0.748646,0.852891,0.187100,0.191275,-0.105107,-0.640833,-0.680647,0.355032,-0.061574,-0.008180,-0.047125,-6.219070,-17.455818,-10.707802,,,,,,,
1512180030.022087,-2.077260,0.748267,0.858960,0.200723,0.181656,-0.091084,-0.640866,-0.680370,0.355505,-0.019015,0.002010,-0.023535,-6.295425,-17.755928,-10.707298,,,,,,,
1512180030.042076,-2.077737,0.748043,0.865035,0.220979,0.169937,-0.091898,-0.640830,-0.680206,0.355884,0.001548,0.012054,-0.095173,-5.995956,-17.830467,-11.084877,,,,,,,
1512180030.062048,-2.078119,0.747793,0.871074,0.200775,0.177391,-0.094295,-0.640843,-0.680023,0.356212,-0.003353,0.011978,-0.046382,-5.846893,-18.055244,-10.936256,,,,,,,
1512180030.082037,-2.078644,0.747506,0.877216,0.209218,0.178464,-0.088838,-0.640827,-0.679812,0.356643,0.027165,0.037111,-0.019500,-5.772873,-18.280144,-10.861992,,,,,,,
1512180030.102056,-2.079057,0.747299,0.883142,0.192285,0.179519,-0.096543,-0.640803,-0.679660,0.356977,0.006907,0.009845,-0.018735,-5.773209,-18.355141,-10.862038,,,,,,,
1512180030.122045,-2.079532,0.747032,0.889112,0.193342,0.181651,-0.096523,-0.640792,-0.679464,0.357370,-0.006943,-0.001139,-0.006692,-5.622971,-18.279915,-11.088280,,,,,,,
1512180030.142034,-2.079994,0.746935,0.894974,0.180603,0.179502,-0.099913,-0.640684,-0.679393,0.357698,-0.017992,0.008754,0.006209,-5.774963,-18.730141,-11.012199,,,,,,,
1512180030.162054,-2.080465,0.746717,0.900738,0.176284,0.175216,-0.096793,-0.640645,-0.679233,0.358072,-0.014629,0.011035,0.006385,-5.626205,-19.029915,-10.788628,,,,,,,
1512180030.182043,-2.080865,0.746524,0.906347,0.169911,0.179490,-0.096865,-0.640616,-0.679091,0.358392,-0.031228,0.021376,0.005820,-5.625870,-18.954918,-10.788582,,,,,,,
1512180030.202032,-2.081154,0.746402,0.911741,0.162373,0.165578,-0.093828,-0.640584,-0.679002,0.358617,-0.074138,-0.011351,-0.026800,-5.476761,-19.179695,-10.564964,,,,,,,
1512180030.222051,-2.081598,0.746230,0.917187,0.173935,0.163438,-0.084075,-0.640527,-0.678875,0.358959,-0.035986,0.028225,0.006886,-5.400864,-18.954582,-10.790504,,,,,,,
1512180030.242040,-2.082193,0.746160,0.922598,0.177197,0.149568,-0.088339,-0.640354,-0.678824,0.359363,-0.038845,0.024161,-0.040073,-5.402481,-19.329582,-10.640663,,,,,,,
1512180030.262029,-2.083068,0.745900,0.928193,0.187838,0.134626,-0.088238,-0.640194,-0.678633,0.360010,-0.070362,-0.004518,-0.077310,-5.253265,-19.479362,-10.867012,,,,,,,
1512180030.282049,-2.084043,0.745771,0.933866,0.196406,0.135714,-0.090241,-0.639919,-0.678538,0.360677,-0.029881,0.006938,-0.097539,-5.631042,-20.079933,-11.014107,,,,,,,
1512180030.302038,-2.085231,0.745585,0.939718,0.196689,0.136817,-0.107289,-0.639600,-0.678402,0.361499,-0.085910,-0.009129,-0.088549,-4.879913,-19.853798,-10.795372,,,,,,,
1512180030.322027,-2.086434,0.745336,0.945651,0.202895,0.143212,-0.095451,-0.639311,-0.678219,0.362351,-0.043749,0.015103,-0.077240,-4.955322,-19.928917,-10.944771,,,,,,,
1512180030.342046,-2.087469,0.745272,0.951557,0.204141,0.144305,-0.106088,-0.638973,-0.678172,0.363034,-0.038502,0.003901,-0.107815,-4.881042,-20.078804,-11.020485,,,,,,,
1512180030.362035,-2.088348,0.745186,0.957426,0.195616,0.154971,-0.106176,-0.638704,-0.678109,0.363624,-0.045073,-0.007667,-0.094382,-5.182724,-20.454262,-11.018105,,,,,,,
1512180030.382025,-2.089212,0.745168,0.963350,0.190347,0.163516,-0.109421,-0.638400,-0.678096,0.364182,-0.000608,0.017070,-0.027222,-5.107727,-20.454140,-11.018745,,,,,,,
1512180030.402044,-2.089991,0.745150,0.969236,0.197926,0.153929,-0.116806,-0.638127,-0.678082,0.364685,-0.040843,0.013729,-0.075607,-5.337570,-21.504494,-11.242317,,,,,,,
1512180030.422033,-2.090686,0.745059,0.975093,0.187065,0.161359,-0.105215,-0.637927,-0.678015,0.365159,-0.003187,0.012121,-0.033357,-5.186554,-21.279259,-11.243477,,,,,,,
1512180030.442022,-2.091537,0.745055,0.980967,0.190301,0.152828,-0.107327,-0.637617,-0.678013,0.365703,0.016462,0.017704,-0.016765,-5.036545,-21.279030,-11.244759,,,,,,,
1512180030.462011,-2.092492,0.744958,0.986760,0.190281,0.140011,-0.106305,-0.637325,-0.677941,0.366344,-0.043553,0.014122,-0.000820,-5.262634,-21.504372,-11.392952,,,,,,,
1512180030.482031,-2.093686,0.744926,0.992532,0.186892,0.133577,-0.094648,-0.636905,-0.677918,0.367115,0.026340,0.018769,0.006344,-5.037674,-21.504036,-11.469872,,,,,,,
1512180030.502020,-2.094999,0.744769,0.998144,0.204838,0.109012,-0.085948,-0.636515,-0.677802,0.368005,0.033335,0.026694,-0.078683,-4.962158,-21.428917,-11.095467,,,,,,,
1512180030.522009,-2.095897,0.744770,1.003363,0.181440,0.125005,-0.088363,-0.636183,-0.677803,0.368576,0.010725,-0.001610,-0.087204,-5.038239,-21.654045,-11.244926,,,,,,,
1512180030.542028,-2.096610,0.744834,1.008322,0.148532,0.139924,-0.096251,-0.635882,-0.677850,0.369007,0.039248,0.005044,0.002468,-4.813309,-21.653694,-11.396843,,,,,,,
1512180030.562017,-2.097004,0.744892,1.012979,0.148475,0.152736,-0.091942,-0.635704,-0.677892,0.369238,0.056892,0.004659,-0.014776,-4.964218,-21.878929,-11.170677,,,,,,,
1512180030.582006,-2.096729,0.745190,1.017195,0.126131,0.162318,-0.094366,-0.635629,-0.678112,0.368962,0.024561,0.004726,-0.056660,-5.039551,-21.954048,-11.170067,,,,,,,
1512180030.602026,-2.096062,0.745349,1.021237,0.114343,0.179386,-0.089144,-0.635782,-0.678228,0.368483,0.005045,0.009557,0.001237,-4.814590,-21.953697,-11.246986,,,,,,,
1512180030.622015,-2.094802,0.745763,1.024867,0.110031,0.193256,-0.085962,-0.636002,-0.678532,0.367541,0.019852,0.062138,-0.013354,-4.819794,-23.078712,-11.547508,,,,,,,
1512180030.642004,-2.093110,0.746112,1.028325,0.094077,0.202846,-0.088294,-0.636417,-0.678789,0.366346,-0.041012,-0.013991,-0.033934,-4.966049,-22.253929,-11.470848,,,,,,,
1512180030.662023,-2.091486,0.746382,1.032013,0.115131,0.212463,-0.070895,-0.636851,-0.678987,0.365221,0.012279,-0.008132,-0.030504,-4.365417,-22.103020,-11.550880,,,,,,,
1512180030.682012,-2.089893,0.746717,1.035795,0.122745,0.214627,-0.080374,-0.637235,-0.679233,0.364092,0.000882,0.021167,-0.041461,-4.366470,-22.328026,-11.625984,,,,,,,
1512180030.702001,-2.088330,0.746805,1.039632,0.107846,0.214609,-0.081655,-0.637751,-0.679297,0.363066,-0.042150,-0.025933,-0.027556,-4.441162,-22.253136,-11.700310,,,,,,,
1512180030.722021,-2.086901,0.746951,1.043606,0.124719,0.201791,-0.071863,-0.638183,-0.679405,0.362106,-0.009247,-0.015130,-0.093521,-4.667694,-22.553474,-12.073524,,,,,,,
1512180030.742010,-2.085260,0.747125,1.047396,0.115379,0.210359,-0.085823,-0.638674,-0.679532,0.361000,-0.057066,-0.027774,-0.073478,-4.216202,-22.252800,-11.777214,,,,,,,
1512180030.761999,-2.083702,0.747176,1.051184,0.121490,0.207130,-0.068689,-0.639205,-0.679569,0.359988,-0.016434,-0.004833,-0.049624,-4.367249,-22.478020,-11.851051,,,,,,,
1512180030.781988,-2.082315,0.747296,1.054999,0.124665,0.195377,-0.068687,-0.639632,-0.679658,0.359060,-0.004960,-0.014190,-0.069723,-4.667999,-22.628487,-11.998573,,,,,,,
1512180030.802007,-2.081114,0.747296,1.058844,0.133194,0.178300,-0.069690,-0.640062,-0.679658,0.358291,-0.041471,-0.036132,-0.090530,-4.445328,-23.153145,-11.925728,,,,,,,
1512180030.821996,-2.080169,0.747339,1.062765,0.135215,0.169746,-0.063293,-0.640375,-0.679689,0.357672,-0.007056,-0.026060,-0.088614,-4.370132,-23.078041,-12.226326,,,,,,,
1512180030.841985,-2.079598,0.747277,1.066864,0.133183,0.164413,-0.069738,-0.640615,-0.679644,0.357327,-0.013056,-0.017729,-0.031857,-4.144455,-22.927696,-12.228172,,,,,,,
1512180030.862005,-2.079374,0.747127,1.071124,0.147996,0.149473,-0.063177,-0.640784,-0.679534,0.357233,0.014121,-0.000215,-0.045435,-4.370132,-23.078041,-12.226326,,,,,,,
1512180030.881994,-2.079259,0.747036,1.075411,0.136353,0.144123,-0.068696,-0.640879,-0.679467,0.357189,-0.004980,-0.019813,-0.048641,-4.219879,-23.002800,-12.377556,,,,,,,
1512180030.901983,-2.079491,0.746706,1.079964,0.153402,0.138808,-0.068467,-0.640993,-0.679225,0.357447,-0.024275,-0.023503,-0.038980,-4.147568,-23.602699,-12.378471,,,,,,,
1512180030.922003,-2.079551,0.746555,1.084392,0.153420,0.145217,-0.069512,-0.641061,-0.679114,0.357536,0.000451,-0.002801,-0.058388,-3.995880,-23.227470,-12.379570,,,,,,,
1512180030.941992,-2.079409,0.746412,1.088694,0.123636,0.159069,-0.072024,-0.641196,-0.679009,0.357492,-0.000543,-0.008674,-0.000162,-4.221344,-23.302803,-12.602699,,,,,,,
1512180030.961981,-2.079274,0.746209,1.093032,0.139591,0.159083,-0.070730,-0.641365,-0.678860,0.357472,0.005287,0.008755,-0.004399,-4.374298,-23.978035,-12.451744,,,,,,,
1512180030.982000,-2.078884,0.746110,1.097284,0.136409,0.160147,-0.071839,-0.641562,-0.678787,0.357254,0.003547,-0.010559,-0.019593,-3.922882,-23.677361,-12.305428,,,,,,,
1512180031.001989,-2.078455,0.745962,1.101527,0.135377,0.165488,-0.073969,-0.641802,-0.678679,0.357028,-0.020643,-0.008944,-0.031924,-4.297501,-23.602928,-12.227196,,,,,,,
1512180031.021978,-2.078027,0.745823,1.105797,0.132108,0.175091,-0.068650,-0.642037,-0.678576,0.356799,0.001565,0.012576,0.012769,-4.148285,-23.752708,-12.453545,,,,,,,
1512180031.041998,-2.077582,0.745600,1.110061,0.137487,0.169765,-0.071789,-0.642327,-0.678413,0.356586,-0.030311,-0.013482,0.012921,-3.698181,-23.752022,-12.232368,,,,,,,
1512180031.061939,-2.077004,0.745435,1.114157,0.132133,0.161209,-0.070831,-0.642632,-0.678291,0.356268,-0.059532,-0.028587,-0.046927,-4.001099,-24.352486,-12.680092,,,,,,,
1512180031.081928,-2.076344,0.745278,1.118147,0.132051,0.165473,-0.065486,-0.642959,-0.678176,0.355896,-0.032273,-0.021592,-0.055130,-3.773178,-23.752144,-12.231728,,,,,,,
1512180031.101918,-2.075677,0.745129,1.122076,0.125683,0.174012,-0.066614,-0.643285,-0.678066,0.355516,-0.008571,-0.009403,0.009948,-3.623291,-23.751915,-12.458000,,,,,,,
1512180031.121936,-2.074827,0.745137,1.125773,0.130996,0.163341,-0.065505,-0.643582,-0.678073,0.354966,-0.016132,0.005648,-0.049775,-3.549332,-23.976799,-12.533745,,,,,,,
1512180031.141925,-2.073549,0.745345,1.129114,0.101259,0.170784,-0.072308,-0.643913,-0.678225,0.354076,-0.045266,-0.011014,-0.066173,-3.700989,-24.352028,-12.457649,,,,,,,
1512180031.161914,-2.072431,0.745442,1.132540,0.107553,0.176122,-0.065802,-0.644251,-0.678297,0.353325,-0.025961,-0.000170,0.016487,-3.775391,-24.202141,-12.606941,,,,,,,
1512180031.181934,-2.071344,0.745687,1.135894,0.113825,0.165432,-0.059354,-0.644489,-0.678476,0.352545,-0.005764,-0.014990,-0.027990,-3.850983,-24.352257,-12.456367,,,,,,,
1512180031.201923,-2.070291,0.745919,1.139285,0.112921,0.160105,-0.070049,-0.644722,-0.678647,0.351791,-0.030616,-0.047458,-0.058120,-3.625381,-24.201912,-12.608223,,,,,,,
1512180031.221912,-2.069326,0.746053,1.142746,0.112714,0.167563,-0.056163,-0.644982,-0.678745,0.351125,0.006585,0.012287,0.009944,-3.250641,-24.276360,-12.461433,,,,,,,
1512180031.241931,-2.068293,0.746304,1.146084,0.111736,0.163301,-0.061522,-0.645195,-0.678930,0.350377,0.012596,0.000830,-0.017232,-3.025421,-24.201012,-12.688316,,,,,,,
1512180031.261920,-2.067178,0.746551,1.149331,0.099050,0.157948,-0.069191,-0.645438,-0.679111,0.349578,-0.029382,-0.027783,-0.027129,-3.026840,-24.501015,-12.838448,,,,,,,
1512180031.281909,-2.065844,0.746881,1.152430,0.102070,0.163277,-0.057398,-0.645706,-0.679353,0.348610,0.008408,0.014299,-0.058877,-2.952301,-24.575905,-13.064125,,,,,,,
1512180031.301929,-2.064576,0.747359,1.155552,0.083203,0.170761,-0.076836,-0.645862,-0.679704,0.347637,0.002292,-0.002059,-0.014431,-3.178238,-24.801247,-12.912315,,,,,,,
1512180031.321918,-2.063535,0.747709,1.158782,0.088489,0.163286,-0.074654,-0.646013,-0.679961,0.346852,-0.017500,-0.002595,-0.000569,-3.026276,-24.351021,-13.063377,,,,,,,
1512180031.341908,-2.062430,0.748139,1.161932,0.100108,0.155817,-0.068114,-0.646139,-0.680276,0.346000,-0.014231,0.013955,-0.046409,-2.652328,-24.575462,-13.141670,,,,,,,
1512180031.361926,-2.061374,0.748672,1.165071,0.083136,0.157941,-0.072614,-0.646184,-0.680666,0.345147,0.012807,-0.009061,-0.040292,-2.876953,-24.500786,-13.064720,,,,,,,
1512180031.381915,-2.060327,0.749085,1.168197,0.084247,0.163284,-0.075781,-0.646298,-0.680969,0.344338,0.014614,-0.044892,-0.036828,-3.026245,-24.351021,-12.988380,,,,,,,
1512180031.401904,-2.059243,0.749640,1.171301,0.084312,0.162222,-0.080049,-0.646337,-0.681376,0.343459,0.036870,-0.019567,-0.039214,-2.804810,-25.100685,-13.365639,,,,,,,
1512180031.421893,-2.058138,0.750253,1.174392,0.081236,0.161163,-0.087559,-0.646347,-0.681824,0.342550,0.015671,-0.018402,-0.038153,-2.501663,-24.425224,-13.142876,,,,,,,
1512180031.441913,-2.057079,0.750978,1.177502,0.091876,0.151567,-0.086371,-0.646272,-0.682354,0.341634,0.047014,-0.057789,-0.065298,-2.352142,-24.500008,-13.444191,,,,,,,
1512180031.461902,-2.055925,0.751924,1.180567,0.082477,0.161193,-0.097132,-0.646095,-0.683045,0.340587,0.043724,-0.084182,-0.066524,-2.276398,-24.349892,-13.294762,,,,,,,
1512180031.481891,-2.054917,0.752794,1.183788,0.084584,0.166529,-0.096019,-0.645912,-0.683681,0.339659,0.043144,-0.084111,-0.040526,-2.052139,-24.499550,-13.446739,,,,,,,
1512180031.501911,-2.053878,0.753802,1.187003,0.096281,0.159065,-0.094811,-0.645655,-0.684416,0.338668,0.082270,-0.072329,-0.048141,-2.051544,-24.349556,-13.596672,,,,,,,
1512180031.521900,-2.052752,0.755004,1.190110,0.098368,0.148382,-0.092686,-0.645307,-0.685292,0.337560,0.097532,-0.057613,-0.112035,-2.050797,-24.199562,-13.446602,,,,,,,
1512180031.541889,-2.051995,0.756186,1.193543,0.091140,0.154814,-0.105556,-0.644844,-0.686152,0.336696,0.095421,-0.056127,-0.067851,-1.824188,-23.824211,-13.598335,,,,,,,
1512180031.561908,-2.051391,0.757330,1.197006,0.079610,0.147338,-0.118545,-0.644351,-0.686984,0.335944,0.048678,-0.088651,-0.021597,-1.375153,-24.048546,-13.527260,,,,,,,
1512180031.581897,-2.050953,0.758359,1.200610,0.089109,0.149475,-0.113072,-0.643871,-0.687731,0.335335,0.025417,-0.084715,-0.029869,-1.447906,-23.523659,-13.751396,,,,,,,
1512180031.601887,-2.050802,0.759213,1.204321,0.103895,0.130256,-0.105462,-0.643402,-0.688351,0.334966,0.013122,-0.077457,-0.053792,-1.822388,-23.449211,-13.373161,,,,,,,
1512180031.621907,-2.050622,0.760074,1.207918,0.114253,0.124896,-0.087206,-0.642936,-0.688975,0.334577,0.045798,-0.066472,-0.084287,-1.448578,-23.673653,-13.751457,,,,,,,
1512180031.641896,-2.050514,0.760876,1.211491,0.114115,0.124881,-0.078679,-0.642481,-0.689556,0.334252,0.110300,-0.036823,-0.077050,-0.696777,-23.297523,-13.532661,,,,,,,
1512180031.661884,-2.050477,0.761599,1.215008,0.090808,0.125930,-0.087542,-0.642052,-0.690080,0.333998,0.071373,-0.070327,-0.045058,-0.770920,-23.147636,-13.156944,,,,,,,
1512180031.681903,-2.050517,0.762127,1.218589,0.081431,0.135554,-0.100438,-0.641715,-0.690461,0.333856,-0.011178,-0.076049,0.022940,-0.695160,-22.997520,-13.007530,,,,,,,
1512180031.701892,-2.050504,0.762591,1.222113,0.090805,0.125929,-0.087543,-0.641435,-0.690797,0.333699,0.026689,-0.071272,0.015681,-0.545547,-23.072304,-13.083824,,,,,,,
1512180031.721881,-2.050552,0.763000,1.225692,0.105583,0.120594,-0.078818,-0.641168,-0.691093,0.333600,0.021417,-0.050668,-0.008878,-0.468521,-22.622185,-13.084251,,,,,,,
1512180031.741901,-2.050696,0.763243,1.229290,0.113839,0.113097,-0.062734,-0.640971,-0.691269,0.333614,0.042338,-0.040604,-0.050915,-0.092545,-22.471611,-12.487373,,,,,,,
1512180031.761890,-2.050954,0.763379,1.232935,0.112663,0.110944,-0.056363,-0.640801,-0.691367,0.333736,0.063103,-0.084466,-0.031536,0.208206,-22.321159,-12.339851,,,,,,,
1512180031.781879,-2.051442,0.763441,1.236688,0.101099,0.119489,-0.066097,-0.640600,-0.691411,0.334029,0.046530,-0.065073,0.032975,0.284073,-22.171059,-11.965431,,,,,,,
1512180031.801868,-2.052073,0.763238,1.240400,0.103289,0.109892,-0.069293,-0.640513,-0.691265,0.334498,-0.003560,-0.062351,0.035131,0.434494,-22.095833,-11.816673,,,,,,,
1512180031.821887,-2.052639,0.762865,1.243897,0.113574,0.090634,-0.047892,-0.640552,-0.690996,0.334980,-0.005429,-0.080092,0.000973,0.509598,-22.095711,-11.592308,,,,,,,
1512180031.841877,-2.053219,0.762457,1.247216,0.113374,0.082065,-0.036198,-0.640607,-0.690700,0.335482,0.009076,-0.063969,-0.020464,1.111435,-21.719810,-11.297234,,,,,,,
1512180031.861866,-2.053978,0.761980,1.250548,0.120458,0.076688,-0.013728,-0.640642,-0.690356,0.336121,0.079851,-0.036955,-0.009949,0.962494,-21.495033,-11.220863,,,,,,,
1512180031.881886,-2.054940,0.761388,1.253854,0.114075,0.063864,-0.014930,-0.640680,-0.689927,0.336927,0.074609,-0.043319,0.015216,1.413361,-21.344353,-10.849617,,,,,,,
1512180031.901874,-2.055759,0.760778,1.256992,0.105713,0.060671,-0.024655,-0.640776,-0.689485,0.337648,0.036909,-0.094237,-0.013459,1.338196,-21.419472,-10.474007,,,,,,,
1512180031.921863,-2.056657,0.760200,1.260137,0.099393,0.069214,-0.028981,-0.640824,-0.689067,0.338408,0.052597,-0.060338,0.029191,1.713608,-21.343910,-10.327156,,,,,,,
1512180031.941883,-2.057481,0.759664,1.263183,0.105858,0.070300,-0.033148,-0.640870,-0.688678,0.339109,0.056718,-0.046094,0.031985,2.015762,-20.893456,-10.104515,,,,,,,
1512180031.961872,-2.058145,0.759314,1.266073,0.100609,0.069231,-0.038560,-0.640858,-0.688424,0.339646,0.052967,-0.026847,0.035796,1.636139,-21.944023,-9.876808,,,,,,,
1512180031.981861,-2.058453,0.759210,1.268656,0.096284,0.069221,-0.034356,-0.640816,-0.688349,0.339877,0.069313,-0.006018,-0.016268,1.641464,-20.819023,-9.351295,,,,,,,
1512180032.001880,-2.058387,0.759446,1.270988,0.063405,0.083072,-0.044381,-0.640694,-0.688520,0.339758,0.112724,-0.021578,0.038339,1.565643,-21.044136,-8.975761,,,,,,,
1512180032.021869,-2.058262,0.759943,1.273138,0.050653,0.081991,-0.046701,-0.640433,-0.688880,0.339518,0.136069,-0.000268,0.056036,1.865982,-20.968681,-8.978279,,,,,,,
1512180032.041858,-2.058016,0.760594,1.275097,0.025437,0.081994,-0.069455,-0.640120,-0.689352,0.339150,0.087218,-0.023798,0.075813,2.167297,-20.668236,-9.055687,,,,,,,
1512180032.061856,-2.057638,0.761467,1.276832,0.019218,0.077735,-0.080220,-0.639715,-0.689984,0.338625,0.044180,-0.063587,0.028852,2.166550,-20.818230,-9.205757,,,,,,,
1512180032.081845,-2.057364,0.762337,1.278474,0.031802,0.064911,-0.068356,-0.639277,-0.690614,0.338170,0.071253,-0.047363,0.046321,2.467102,-20.742775,-8.758278,,,,,,,
1512180032.101834,-2.057070,0.763315,1.279939,0.052982,0.054251,-0.059554,-0.638779,-0.691321,0.337665,0.103623,-0.021967,-0.046635,2.618271,-20.517555,-8.459450,,,,,,,
1512180032.121823,-2.056711,0.764367,1.281194,0.031515,0.053128,-0.051343,-0.638257,-0.692080,0.337097,0.111951,-0.039258,-0.050338,2.768005,-20.592323,-8.310753,,,,,,,
1512180032.141842,-2.056901,0.765245,1.282768,0.051543,0.042450,-0.038298,-0.637656,-0.692714,0.336934,0.169974,-0.028920,-0.010991,2.617401,-20.742546,-8.159554,,,,,,,
1512180032.161831,-2.057038,0.766301,1.284040,0.042175,0.028572,-0.053410,-0.636963,-0.693475,0.336679,0.158234,-0.006568,-0.053262,2.391129,-21.042885,-8.007774,,,,,,,
1512180032.181820,-2.057100,0.767165,1.285185,0.024040,0.024280,-0.051550,-0.636412,-0.694097,0.336439,0.081999,-0.037959,-0.059858,2.615494,-21.192558,-7.934761,,,,,,,
1512180032.201840,-2.057029,0.768165,1.286111,0.008184,0.032817,-0.059212,-0.635823,-0.694816,0.336070,0.102986,-0.042458,-0.020426,2.841507,-20.967216,-7.936562,,,,,,,
1512180032.221829,-2.056767,0.769186,1.286831,-0.009779,0.043485,-0.069033,-0.635283,-0.695551,0.335572,0.074690,-0.038778,0.057327,2.837936,-21.792213,-7.636955,,,,,,,
1512180032.241818,-2.056376,0.769982,1.287286,-0.002492,0.038138,-0.058283,-0.634924,-0.696122,0.335065,0.033011,-0.034469,0.017962,2.839890,-21.342216,-7.786751,,,,,,,
1512180032.261837,-2.056089,0.770730,1.287765,-0.000428,0.031720,-0.055080,-0.634560,-0.696659,0.334640,-0.000053,-0.078869,0.022676,2.613174,-21.717552,-7.860008,,,,,,,
1512180032.281826,-2.055879,0.771461,1.288226,-0.003791,0.030631,-0.044469,-0.634180,-0.697184,0.334269,0.029550,-0.026098,0.020925,2.685211,-22.392448,-7.710945,,,,,,,
1512180032.301815,-2.055835,0.772044,1.288773,0.000359,0.026350,-0.038029,-0.633835,-0.697601,0.334051,0.064911,-0.031280,0.029001,2.161514,-22.093239,-7.781349,,,,,,,
1512180032.321835,-2.055688,0.772587,1.289156,0.009767,0.014593,-0.027273,-0.633550,-0.697990,0.333782,0.066289,-0.057290,-0.045513,2.612534,-21.867561,-7.785072,,,,,,,
1512180032.341824,-2.055312,0.773257,1.289323,-0.024474,0.034815,-0.019173,-0.633261,-0.698470,0.333326,0.074972,0.000243,0.066485,2.462158,-21.942787,-7.858833,,,,,,,
1512180032.361813,-2.054702,0.774078,1.289254,-0.022113,0.033778,-0.033001,-0.632957,-0.699057,0.332672,0.060355,0.015204,-0.017350,2.309311,-22.543022,-8.157829,,,,,,,
1512180032.381832,-2.053911,0.774922,1.289178,-0.039183,0.039090,-0.032164,-0.632697,-0.699660,0.331897,0.096839,-0.011598,0.020993,2.459274,-22.542793,-8.234108,,,,,,,
1512180032.401821,-2.053174,0.775882,1.289095,-0.048552,0.042311,-0.045079,-0.632346,-0.700346,0.331119,0.115073,-0.025331,0.033734,2.609863,-22.392570,-8.385307,,,,,,,
1512180032.421810,-2.052527,0.776708,1.288948,-0.034736,0.030580,-0.042786,-0.632047,-0.700935,0.330442,0.047941,-0.041802,0.006777,2.610352,-22.317558,-8.085274,,,,,,,
1512180032.441799,-2.051948,0.777382,1.288898,-0.028575,0.030559,-0.028840,-0.631820,-0.701416,0.329857,0.033279,-0.053711,-0.020165,2.610199,-22.317558,-8.385277,,,,,,,
1512180032.461819,-2.051763,0.778001,1.289175,-0.013505,0.030595,-0.038218,-0.631496,-0.701857,0.329540,0.035259,-0.046495,0.004078,2.383179,-22.767906,-8.383583,,,,,,,
1512180032.481808,-2.051832,0.778428,1.289632,0.006595,0.009248,-0.029471,-0.631207,-0.702161,0.329445,0.035672,-0.099841,-0.007347,2.234238,-22.543129,-8.307198,,,,,,,
1512180032.501797,-2.051665,0.778967,1.289881,-0.002916,0.014587,-0.033853,-0.630927,-0.702544,0.329164,-0.007928,-0.096467,-0.043550,2.459198,-22.542793,-8.384102,,,,,,,
1512180032.521817,-2.051498,0.779195,1.290159,-0.008332,0.029517,-0.028552,-0.630839,-0.702707,0.328985,-0.045553,-0.067709,0.018672,2.459152,-22.542793,-8.459099,,,,,,,
1512180032.541806,-2.051312,0.779373,1.290475,0.014730,0.020964,-0.004792,-0.630790,-0.702834,0.328809,0.023032,-0.070924,0.009707,2.607056,-22.992577,-8.610588,,,,,,,
1512180032.561795,-2.050983,0.779610,1.290622,0.001997,0.022022,-0.008170,-0.630750,-0.703002,0.328525,0.028715,-0.063005,0.034192,2.156006,-23.218254,-8.681862,,,,,,,
1512180032.581814,-2.050629,0.779714,1.290708,0.007367,0.016691,-0.011311,-0.630801,-0.703076,0.328268,-0.016385,-0.077243,-0.008413,2.005600,-23.293480,-8.830620,,,,,,,
1512180032.601803,-2.049967,0.779716,1.290642,-0.006564,0.029479,-0.006138,-0.631017,-0.703078,0.327850,-0.028742,-0.068040,0.016175,2.307053,-22.993019,-8.608040,,,,,,,
1512180032.621792,-2.049384,0.779668,1.290637,-0.004555,0.039077,0.001386,-0.631239,-0.703043,0.327498,0.016752,-0.046713,0.066957,2.156265,-23.143257,-8.831825,,,,,,,
1512180032.641812,-2.048676,0.779698,1.290370,-0.009842,0.027325,-0.001930,-0.631452,-0.703065,0.327040,0.003583,-0.041000,0.034578,2.231674,-23.068138,-8.682426,,,,,,,
1512180032.661801,-2.047814,0.779728,1.290027,-0.014260,0.028369,0.007604,-0.631715,-0.703086,0.326486,0.030610,-0.045266,0.007056,2.081985,-22.993355,-8.756126,,,,,,,
1512180032.681790,-2.047235,0.779774,1.289812,-0.014115,0.031599,0.000160,-0.631875,-0.703119,0.326106,0.044075,-0.040976,0.060750,2.155548,-23.293251,-8.906898,,,,,,,
1512180032.701809,-2.046748,0.779844,1.289545,0.010211,0.004907,0.010012,-0.631991,-0.703168,0.325776,0.036074,-0.040164,-0.045243,2.379578,-23.517906,-8.833916,,,,,,,
1512180032.721798,-2.046199,0.780053,1.289228,0.000863,0.007056,-0.005042,-0.632039,-0.703317,0.325361,0.022755,-0.038993,-0.062575,2.078415,-23.743370,-9.131462,,,,,,,
1512180032.741787,-2.045847,0.780190,1.288956,0.001900,0.005982,-0.003967,-0.632067,-0.703414,0.325095,0.025179,-0.029679,-0.043998,2.156906,-22.993248,-8.906761,,,,,,,
1512180032.761807,-2.045433,0.780426,1.288631,-0.006683,0.010239,0.000190,-0.632054,-0.703582,0.324758,0.040501,-0.021729,-0.027333,2.082886,-22.768364,-8.981010,,,,,,,
1512180032.781796,-2.045056,0.780762,1.288337,-0.006579,0.005980,-0.006219,-0.631966,-0.703821,0.324411,0.058571,-0.031179,-0.050089,2.155487,-23.293251,-9.056892,,,,,,,
1512180032.801785,-2.044799,0.781091,1.288151,-0.005490,0.005987,-0.007268,-0.631844,-0.704054,0.324143,0.058693,0.004927,-0.050980,2.305923,-23.218025,-8.833138,,,,,,,
1512180032.821774,-2.044514,0.781474,1.287970,-0.000030,0.003872,-0.015726,-0.631696,-0.704326,0.323840,0.045408,-0.005742,-0.068438,2.078873,-23.668358,-8.906441,,,,,,,
1512180032.841793,-2.044237,0.781869,1.287877,-0.013747,0.009213,-0.023366,-0.631538,-0.704607,0.323538,0.019676,-0.018706,-0.052237,2.155899,-23.218254,-8.906868,,,,,,,
1512180032.861782,-2.044026,0.782218,1.287864,-0.015969,0.015604,-0.018048,-0.631387,-0.704855,0.323293,0.032525,-0.014689,0.005442,2.529800,-23.442680,-9.060143,,,,,,,
1512180032.881771,-2.043930,0.782520,1.287924,-0.002311,0.011328,-0.006138,-0.631229,-0.705069,0.323135,0.065891,0.001593,0.028321,2.305557,-23.293022,-8.908180,,,,,,,
1512180032.901791,-2.043766,0.782822,1.287924,-0.010747,0.007056,-0.011604,-0.631092,-0.705283,0.322935,0.044071,-0.008371,-0.003492,2.755188,-23.367348,-8.987038,,,,,,,
1512180032.921780,-2.043652,0.782965,1.288002,-0.017137,0.010245,-0.012755,-0.631039,-0.705384,0.322817,0.010021,-0.034911,0.005064,2.229813,-23.443138,-9.057594,,,,,,,
1512180032.941769,-2.043456,0.783047,1.288026,-0.020344,0.014514,-0.011720,-0.631050,-0.705443,0.322667,-0.004478,-0.020494,0.013042,2.380890,-23.217903,-8.908775,,,,,,,
1512180032.961788,-2.043354,0.782937,1.288128,-0.012000,0.021983,0.000155,-0.631153,-0.705364,0.322638,0.017398,-0.030430,0.056024,2.155518,-23.293251,-8.981895,,,,,,,
1512180032.981778,-2.043103,0.782836,1.288043,0.006950,0.005958,0.013164,-0.631297,-0.705293,0.322511,0.038844,-0.026839,-0.029970,2.306534,-23.068031,-8.983070,,,,,,,
1512180033.001767,-2.042551,0.782697,1.287740,-0.010142,0.019814,0.016163,-0.631562,-0.705194,0.322207,0.007828,-0.017294,0.007352,2.003418,-23.743477,-9.130836,,,,,,,
1512180033.021786,-2.041940,0.782358,1.287400,0.004522,0.012333,0.032344,-0.631971,-0.704954,0.321930,0.030073,-0.039217,-0.000336,2.380478,-23.292915,-9.058800,,,,,,,
1512180033.041775,-2.041150,0.782056,1.286961,0.035217,0.004878,0.045556,-0.632416,-0.704740,0.321527,0.062530,-0.034259,-0.100488,2.154312,-23.518257,-9.357002,,,,,,,
1512180033.061748,-2.040061,0.781764,1.286319,0.001231,0.025128,0.037667,-0.632949,-0.704532,0.320931,0.069228,-0.046780,-0.057198,1.928345,-23.743584,-9.280190,,,,,,,
1512180033.081768,-2.039466,0.781245,1.285919,0.015117,0.024090,0.036802,-0.633465,-0.704164,0.320719,0.107281,-0.022185,0.021337,2.306717,-22.993019,-9.283043,,,,,,,
1512180033.101757,-2.038853,0.780739,1.285347,0.033251,-0.006862,0.033755,-0.633980,-0.703805,0.320492,0.065147,-0.020988,-0.121578,2.380707,-23.217903,-9.283775,,,,,,,
1512180033.121746,-2.038222,0.780339,1.284803,-0.015647,0.005896,0.025628,-0.634434,-0.703520,0.320218,0.017475,-0.015550,-0.082364,2.004059,-23.593483,-9.205757,,,,,,,
1512180033.141735,-2.038347,0.779748,1.284928,0.011016,0.004870,0.024945,-0.634764,-0.703100,0.320485,0.047301,0.008856,0.042568,2.154022,-23.593254,-9.282036,,,,,,,
1512180033.161754,-2.038110,0.779445,1.284632,0.014337,-0.015405,0.016393,-0.635030,-0.702885,0.320430,0.015065,-0.029827,-0.092876,2.154617,-23.443245,-9.431969,,,,,,,
1512180033.181743,-2.037744,0.779062,1.284400,-0.017683,0.012314,0.020291,-0.635388,-0.702612,0.320319,0.018078,-0.058832,-0.026999,2.379059,-23.592918,-9.208946,,,,,,,
1512180033.201732,-2.037976,0.778673,1.284586,0.016622,0.013460,0.009067,-0.635558,-0.702335,0.320590,0.036772,0.040318,0.032102,2.305664,-23.218025,-9.358131,,,,,,,
1512180033.221752,-2.038097,0.778344,1.284647,0.025177,-0.013228,0.005898,-0.635725,-0.702101,0.320771,-0.010119,-0.017168,-0.106751,2.005478,-23.293480,-9.055626,,,,,,,
1512180033.241741,-2.038611,0.778018,1.285070,0.034594,-0.022845,0.016664,-0.635764,-0.701869,0.321200,0.040748,-0.052037,-0.098147,2.155518,-23.218254,-9.656868,,,,,,,
1512180033.261730,-2.039448,0.777702,1.285687,0.041029,-0.020693,0.014633,-0.635693,-0.701644,0.321833,0.052365,-0.003419,-0.020838,2.153229,-23.743248,-9.507103,,,,,,,
1512180033.281749,-2.040171,0.777505,1.286135,0.033730,-0.028165,0.003839,-0.635583,-0.701503,0.322355,0.013788,-0.030537,-0.071196,2.305099,-23.368019,-9.133202,,,,,,,
1512180033.301738,-2.040758,0.777265,1.286544,0.011217,-0.017532,0.012079,-0.635545,-0.701332,0.322804,-0.020492,-0.067985,-0.015248,1.929688,-23.443581,-9.280052,,,,,,,
1512180033.321727,-2.041346,0.777224,1.286965,0.017638,-0.003635,0.011154,-0.635380,-0.701303,0.323191,0.039235,0.016703,0.080908,2.379807,-23.442909,-9.058876,,,,,,,
1512180033.341747,-2.041481,0.777433,1.287129,0.024379,-0.015331,-0.010110,-0.635206,-0.701452,0.323211,0.008970,-0.005473,-0.069167,2.153946,-23.593254,-9.432030,,,,,,,
1512180033.361736,-2.041569,0.777795,1.287254,-0.003119,-0.004668,-0.023265,-0.634951,-0.701710,0.323151,0.022235,-0.048183,-0.059220,2.079651,-23.443367,-9.356331,,,,,,,
1512180033.381725,-2.042057,0.777952,1.287394,-0.007379,-0.021765,-0.024453,-0.634695,-0.701822,0.323411,-0.005045,-0.050406,-0.013627,1.929321,-23.518593,-9.355095,,,,,,,
1512180033.401744,-2.043141,0.778261,1.287880,0.010827,-0.033473,-0.029558,-0.634151,-0.702042,0.324000,-0.015827,0.021317,-0.017924,2.154022,-23.593254,-9.282036,,,,,,,
1512180033.421733,-2.044362,0.778476,1.288459,-0.011494,-0.037774,-0.034162,-0.633620,-0.702196,0.324705,-0.074235,-0.007231,0.021807,2.081375,-23.068367,-9.281151,,,,,,,
1512180033.441722,-2.046068,0.778692,1.289486,0.003220,-0.035639,-0.021148,-0.632931,-0.702349,0.325716,0.035824,-0.042372,0.111158,2.153748,-23.668251,-9.132072,,,,,,,
1512180033.461742,-2.047828,0.778917,1.290422,0.036307,-0.068695,-0.025048,-0.632217,-0.702509,0.326757,0.027602,-0.032553,-0.035147,2.380142,-23.367912,-9.058846,,,,,,,
1512180033.481731,-2.049269,0.779124,1.291174,0.008257,-0.053823,-0.004081,-0.631616,-0.702656,0.327601,0.011637,-0.082774,-0.097194,2.230774,-23.218132,-9.132500,,,,,,,
1512180033.501720,-2.050847,0.779317,1.292174,0.003164,-0.020692,-0.016832,-0.630979,-0.702794,0.328535,0.066709,0.021382,0.078997,2.380859,-23.217903,-8.983772,,,,,,,
1512180033.521709,-2.052205,0.779402,1.293023,0.031915,-0.030265,-0.015383,-0.630479,-0.702854,0.329364,0.039338,-0.012310,0.004376,2.231873,-22.993126,-8.982399,,,,,,,
1512180033.541729,-2.052996,0.779522,1.293593,0.025417,-0.030286,-0.009081,-0.630143,-0.702940,0.329823,0.029130,-0.075411,-0.096181,1.855591,-23.293694,-8.829338,,,,,,,
1512180033.561718,-2.053865,0.779582,1.294318,0.024372,-0.006785,-0.009013,-0.629818,-0.702982,0.330351,0.083081,0.001490,0.016054,2.081223,-23.143364,-8.906197,,,,,,,
1512180033.581707,-2.054566,0.779526,1.294905,0.037154,-0.008906,-0.008837,-0.629622,-0.702943,0.330811,0.035063,-0.024093,-0.027588,1.930893,-23.218590,-8.904945,,,,,,,
1512180033.601726,-2.054994,0.779419,1.295282,0.033852,-0.020676,-0.003597,-0.629546,-0.702866,0.331115,-0.008912,-0.062118,-0.088561,2.156601,-23.068245,-8.831795,,,,,,,
1512180033.621715,-2.055435,0.779422,1.295724,0.018891,-0.004681,-0.000560,-0.629399,-0.702868,0.331392,0.058263,-0.003736,0.000487,2.157883,-22.768242,-8.981651,,,,,,,
1512180033.641704,-2.055882,0.779425,1.296053,0.022383,-0.006778,-0.018640,-0.629249,-0.702871,0.331672,0.037406,-0.010539,-0.016212,2.082581,-22.843361,-8.906059,,,,,,,
1512180033.661724,-2.056265,0.779358,1.296248,0.017006,-0.014264,-0.015544,-0.629163,-0.702823,0.331935,0.003675,-0.019559,-0.047221,1.705627,-23.293922,-8.753075,,,,,,,
1512180033.681713,-2.056446,0.779290,1.296250,0.006249,-0.007883,-0.009280,-0.629146,-0.702774,0.332071,-0.002874,-0.020859,-0.034784,2.156570,-23.068245,-8.906792,,,,,,,
1512180033.701702,-2.056699,0.779241,1.296342,0.006005,-0.005776,0.005648,-0.629091,-0.702740,0.332246,0.049837,-0.019535,0.021651,1.704575,-23.518929,-8.828178,,,,,,,
1512180033.721721,-2.056817,0.779410,1.296246,0.011342,-0.017516,0.004619,-0.628947,-0.702860,0.332265,0.087337,-0.011389,-0.048879,1.554169,-23.594154,-8.976936,,,,,,,
1512180033.741710,-2.056543,0.779603,1.295830,-0.004665,-0.011137,0.005473,-0.628918,-0.702997,0.332030,0.071881,-0.048010,-0.090346,1.857056,-22.993690,-8.604210,,,,,,,
1512180033.761699,-2.056447,0.779818,1.295599,-0.016299,0.008084,0.001108,-0.628816,-0.703150,0.331898,0.097307,-0.028616,0.023708,1.481339,-23.144264,-8.676094,,,,,,,
1512180033.781719,-2.056485,0.780047,1.295408,0.002990,-0.007899,-0.006132,-0.628662,-0.703313,0.331847,0.051086,-0.001720,-0.040740,1.780212,-23.368813,-8.903740,,,,,,,
1512180033.801708,-2.056701,0.780191,1.295368,-0.000179,-0.019648,-0.008350,-0.628500,-0.703415,0.331936,0.022802,-0.020401,-0.049587,1.706299,-23.143929,-8.752998,,,,,,,
1512180033.821697,-2.057122,0.780362,1.295520,0.006052,-0.021789,0.002397,-0.628254,-0.703536,0.332144,0.052952,-0.022996,-0.029349,1.553864,-23.669151,-8.901970,,,,,,,
1512180033.841686,-2.057818,0.780518,1.295812,-0.000033,-0.018560,-0.016871,-0.627926,-0.703647,0.332530,0.025509,0.008732,0.004476,1.782578,-22.843803,-8.903511,,,,,,,
1512180033.861705,-2.058604,0.780612,1.296216,-0.017657,-0.017459,-0.046972,-0.627607,-0.703714,0.332993,-0.079608,-0.058844,-0.010162,1.705658,-23.293922,-8.678062,,,,,,,
1512180033.881694,-2.059529,0.780310,1.296665,-0.009617,-0.024984,-0.018100,-0.627486,-0.703500,0.333673,-0.090577,-0.076667,-0.002283,1.631561,-23.069038,-8.902336,,,,,,,
1512180033.901683,-2.060827,0.779975,1.297412,-0.001486,-0.021812,0.006550,-0.627261,-0.703261,0.334598,-0.032789,-0.040666,0.058895,1.480286,-23.369255,-8.751198,,,,,,,
1512180033.921703,-2.062334,0.779573,1.298318,0.024042,-0.035668,0.009002,-0.627005,-0.702976,0.335677,-0.002862,-0.018155,0.028139,1.407013,-22.994362,-8.675377,,,,,,,
1512180033.941692,-2.063786,0.779231,1.299198,0.028199,-0.043149,0.015434,-0.626729,-0.702732,0.336701,0.042958,-0.041897,-0.021393,1.331345,-23.144493,-8.674812,,,,,,,
1512180033.961681,-2.065135,0.778888,1.300004,0.015421,-0.039966,0.014192,-0.626486,-0.702489,0.337660,0.039008,-0.056346,-0.002943,1.254578,-23.519600,-8.824348,,,,,,,
1512180033.981700,-2.066434,0.778593,1.300803,0.014421,-0.027141,0.011024,-0.626229,-0.702279,0.338572,0.051202,-0.028083,0.025609,1.406342,-23.144371,-8.675453,,,,,,,
1512180034.001689,-2.067845,0.778360,1.301686,0.014794,-0.030298,-0.011367,-0.625895,-0.702112,0.339533,0.028681,-0.052465,0.041555,1.106003,-23.219826,-8.672935,,,,,,,
1512180034.021678,-2.069388,0.778141,1.302669,0.037150,-0.037745,-0.010003,-0.625505,-0.701957,0.340572,0.021867,-0.005944,0.012471,1.331345,-23.144493,-8.674812,,,,,,,
1512180034.041698,-2.070937,0.778046,1.303643,0.036083,-0.049500,-0.011128,-0.625035,-0.701889,0.341573,0.028142,-0.022293,-0.014028,1.027847,-23.894936,-8.897621,,,,,,,
1512180034.061675,-2.072492,0.778151,1.304586,0.024275,-0.046323,-0.005958,-0.624439,-0.701964,0.342509,0.074238,-0.006868,0.007482,1.102661,-23.969826,-8.598289,,,,,,,
1512180034.081664,-2.074251,0.778236,1.305675,0.035176,-0.054821,-0.020753,-0.623784,-0.702024,0.343578,0.037877,-0.021731,0.014347,1.105362,-23.369820,-8.598000,,,,,,,
1512180034.101684,-2.075744,0.778400,1.306590,0.022460,-0.048423,-0.025180,-0.623170,-0.702141,0.344454,-0.001037,-0.054756,-0.014956,1.254425,-23.594597,-8.449394,,,,,,,
1512180034.121673,-2.077150,0.778559,1.307416,0.018173,-0.038818,-0.023075,-0.622588,-0.702254,0.345276,0.008024,-0.078141,0.008454,1.104996,-23.519814,-7.998085,,,,,,,
1512180034.141662,-2.078351,0.778705,1.308098,0.019167,-0.029208,-0.017695,-0.622083,-0.702358,0.345973,0.013913,-0.043888,0.018148,1.478943,-23.744255,-8.076378,,,,,,,
1512180034.161681,-2.079443,0.778733,1.308694,0.030682,-0.030291,-0.005809,-0.621688,-0.702378,0.346642,0.029509,-0.057495,0.009177,1.403870,-23.744377,-8.225731,,,,,,,
1512180034.181670,-2.080210,0.778765,1.309056,0.026421,-0.029228,-0.005867,-0.621402,-0.702401,0.347108,0.013751,-0.051231,-0.047532,1.104309,-23.669823,-7.998161,,,,,,,
1512180034.201659,-2.080902,0.778728,1.309389,0.029463,-0.024970,0.003787,-0.621184,-0.702374,0.347551,0.038710,-0.038547,-0.053407,1.103943,-23.744820,-8.073189,,,,,,,
1512180034.221648,-2.081590,0.778681,1.309699,0.025101,-0.021782,0.010132,-0.620973,-0.702341,0.347994,0.089037,-0.016836,-0.044252,1.029541,-23.594933,-8.222481,,,,,,,
1512180034.241668,-2.082477,0.778540,1.310108,0.014544,-0.019652,0.003589,-0.620751,-0.702241,0.348594,0.082741,0.010468,0.015741,1.026840,-24.194939,-8.222755,,,,,,,
1512180034.261657,-2.083314,0.778324,1.310512,0.016814,-0.031378,-0.004946,-0.620591,-0.702087,0.349187,0.030030,-0.015702,-0.037603,1.179199,-23.669716,-8.223793,,,,,,,
1512180034.281646,-2.083985,0.778242,1.310848,-0.005454,-0.022852,-0.011635,-0.620408,-0.702028,0.349633,0.026108,-0.027571,-0.000374,1.177887,-23.969719,-8.148933,,,,,,,
1512180034.301665,-2.084597,0.778217,1.311071,-0.016179,-0.011130,-0.007487,-0.620209,-0.702011,0.350021,0.045471,-0.006699,0.041474,1.104019,-23.744820,-7.923180,,,,,,,
1512180034.321654,-2.085085,0.778310,1.311192,-0.022364,-0.008979,-0.020362,-0.619981,-0.702077,0.350291,0.036332,-0.003977,0.050069,1.253220,-23.894600,-8.149529,,,,,,,
1512180034.341643,-2.085552,0.778449,1.311337,-0.004318,-0.023910,-0.015886,-0.619732,-0.702176,0.350532,0.023053,-0.053974,-0.019615,0.953079,-23.970055,-7.772026,,,,,,,
1512180034.361663,-2.085993,0.778692,1.311500,-0.012858,-0.011110,-0.014901,-0.619429,-0.702349,0.350721,0.030516,-0.024198,0.044176,0.877060,-24.195168,-7.771492,,,,,,,
1512180034.381652,-2.086789,0.778918,1.311879,0.023231,-0.030296,-0.005914,-0.619012,-0.702510,0.351136,0.060784,-0.011479,0.013824,1.024216,-24.794945,-8.073036,,,,,,,
1512180034.401641,-2.087407,0.779311,1.312121,0.022162,-0.036706,-0.005952,-0.618554,-0.702789,0.351383,0.049035,-0.063446,-0.073871,1.176315,-24.344719,-7.924095,,,,,,,
1512180034.421660,-2.088172,0.779616,1.312475,0.012686,-0.032438,-0.013539,-0.618099,-0.703006,0.351749,0.011059,-0.056058,-0.028797,0.953003,-23.970055,-7.922020,,,,,,,
1512180034.441649,-2.088974,0.779879,1.312786,0.002034,-0.026044,-0.013671,-0.617656,-0.703194,0.352153,0.003689,-0.034508,0.008229,1.250870,-24.419594,-8.149773,,,,,,,
1512180034.461638,-2.089658,0.780120,1.313054,-0.008767,-0.026079,-0.005300,-0.617269,-0.703365,0.352492,0.020223,-0.072377,0.003480,1.475525,-24.494270,-8.151726,,,,,,,
1512180034.481658,-2.090342,0.780391,1.313252,-0.022654,-0.016485,-0.002266,-0.616861,-0.703557,0.352820,0.055918,-0.020091,0.062006,1.852966,-23.968697,-8.004662,,,,,,,
1512180034.501647,-2.090853,0.780587,1.313444,-0.002507,-0.021812,0.003335,-0.616561,-0.703697,0.353066,0.065429,-0.072533,0.012886,1.852966,-23.968697,-8.004662,,,,,,,
1512180034.521636,-2.091150,0.780951,1.313443,-0.014221,-0.021825,0.003168,-0.616234,-0.703955,0.353121,0.087517,-0.069314,0.012708,1.925827,-24.418587,-8.230507,,,,,,,
1512180034.541625,-2.091449,0.781348,1.313461,-0.001295,-0.017519,-0.005160,-0.615885,-0.704237,0.353166,0.090068,-0.018923,-0.019380,1.774887,-24.643822,-8.079338,,,,,,,
1512180034.561645,-2.092308,0.781755,1.313836,0.030335,-0.033409,-0.049533,-0.615333,-0.704526,0.353552,0.010857,0.010602,-0.025351,1.623810,-24.869041,-8.228172,,,,,,,
1512180034.581634,-2.093378,0.781951,1.314314,0.025107,-0.050491,-0.056062,-0.614835,-0.704665,0.354142,-0.061038,-0.041993,-0.041032,1.473801,-24.869270,-8.226891,,,,,,,
1512180034.601623,-2.094818,0.782297,1.315120,0.027035,-0.053719,-0.044321,-0.614113,-0.704910,0.354905,-0.072349,-0.053146,-0.066575,1.700531,-24.493919,-8.153633,,,,,,,
1512180034.621642,-2.096119,0.782636,1.315948,0.015195,-0.024912,-0.035863,-0.613444,-0.705151,0.355584,-0.004399,0.010113,0.017463,2.077850,-23.968361,-8.231575,,,,,,,
1512180034.641631,-2.097094,0.783339,1.316372,-0.024083,-0.020682,-0.046013,-0.612669,-0.705649,0.355932,0.064649,-0.016854,0.090525,2.077484,-24.043358,-8.306602,,,,,,,
1512180034.661620,-2.098003,0.783865,1.316689,-0.006049,-0.031341,-0.040456,-0.612024,-0.706021,0.356302,-0.019003,-0.000811,-0.045099,1.925720,-24.418587,-8.455513,,,,,,,
1512180034.681640,-2.098919,0.784327,1.317185,-0.007385,-0.026039,-0.024469,-0.611415,-0.706349,0.356699,0.025920,-0.025234,0.006338,2.151535,-24.268257,-8.157356,,,,,,,
1512180034.701629,-2.099960,0.784928,1.317739,-0.036039,-0.014315,-0.031237,-0.610678,-0.706774,0.357120,0.080893,0.012011,0.122051,1.924408,-24.718590,-8.380653,,,,,,,
1512180034.721618,-2.100959,0.785437,1.318167,-0.015825,-0.034584,-0.029950,-0.610010,-0.707134,0.357549,0.012858,0.006832,-0.013646,2.301056,-24.343025,-8.458656,,,,,,,
1512180034.741637,-2.101789,0.785859,1.318573,-0.019180,-0.022855,-0.019295,-0.609456,-0.707433,0.357904,0.057942,-0.040950,0.000037,2.152176,-24.118248,-8.232292,,,,,,,
1512180034.761626,-2.102576,0.786445,1.318944,-0.035006,-0.001503,-0.029048,-0.608817,-0.707847,0.358174,0.056175,-0.024301,0.040691,2.300385,-24.493034,-8.458733,,,,,,,
1512180034.781615,-2.103223,0.786772,1.319215,-0.013823,-0.004695,-0.021291,-0.608386,-0.708077,0.358450,0.030216,0.000054,0.050531,1.775833,-24.418816,-8.229240,,,,,,,
1512180034.801635,-2.103456,0.787238,1.319157,-0.041214,-0.006832,-0.040883,-0.608018,-0.708407,0.358424,-0.065169,-0.078031,0.050878,2.151398,-24.268257,-8.457359,,,,,,,
1512180034.821624,-2.103694,0.787456,1.319146,-0.030015,-0.006877,-0.008739,-0.607801,-0.708560,0.358490,-0.046283,-0.065564,0.013138,1.999863,-24.568489,-8.831215,,,,,,,
1512180034.841613,-2.104047,0.787703,1.319260,-0.026828,-0.002599,-0.007611,-0.607523,-0.708735,0.358616,0.013392,-0.038427,0.075375,2.226654,-24.193138,-8.607948,,,,,,,
1512180034.861632,-2.104296,0.787912,1.319198,-0.027946,-0.009013,-0.004450,-0.607306,-0.708882,0.358692,0.008201,-0.003596,0.064801,2.601212,-24.267586,-8.836174,,,,,,,
1512180034.881621,-2.104514,0.788133,1.319160,0.000606,-0.018613,0.008722,-0.607093,-0.709038,0.358744,0.042106,-0.008735,-0.045298,2.601578,-24.192589,-8.761131,,,,,,,
1512180034.901610,-2.104820,0.788389,1.319112,0.014463,-0.034615,0.007800,-0.606827,-0.709219,0.358838,0.047394,-0.009485,-0.057721,2.449402,-24.642815,-9.060066,,,,,,,
1512180034.921599,-2.105175,0.788742,1.319071,0.009243,-0.031405,0.001339,-0.606484,-0.709467,0.358926,0.044442,-0.017965,-0.078073,2.751205,-24.267357,-8.837440,,,,,,,
1512180034.941619,-2.105680,0.789080,1.319052,0.011515,-0.032453,-0.007160,-0.606096,-0.709706,0.359109,0.043444,0.016407,-0.071649,2.601837,-24.117577,-8.911110,,,,,,,
1512180034.961608,-2.106485,0.789317,1.319250,0.034978,-0.046305,-0.009003,-0.605663,-0.709872,0.359512,0.041942,0.003711,-0.097411,2.602554,-23.967583,-8.836037,,,,,,,
1512180034.981597,-2.107259,0.789681,1.319387,0.003399,-0.038819,-0.031816,-0.605161,-0.710129,0.359848,-0.043414,-0.030609,-0.062363,2.451172,-24.267815,-8.909904,,,,,,,
1512180035.001616,-2.108292,0.789785,1.319719,0.005408,-0.033500,-0.025378,-0.604726,-0.710202,0.360436,-0.048152,-0.026736,-0.021126,2.602112,-24.042580,-9.061058,,,,,,,
1512180035.021605,-2.109420,0.789925,1.320182,0.006589,-0.028134,-0.030666,-0.604235,-0.710300,0.361066,-0.056822,-0.050427,0.018755,3.052399,-23.966911,-9.139854,,,,,,,
1512180035.041594,-2.110675,0.789931,1.320662,0.015953,-0.040975,-0.018855,-0.603777,-0.710305,0.361822,-0.068189,-0.034767,-0.001639,2.828949,-23.592232,-9.437767,,,,,,,
1512180035.061595,-2.112055,0.789905,1.321289,0.013655,-0.043130,-0.008232,-0.603293,-0.710287,0.362664,-0.035349,-0.019678,0.016577,2.827362,-23.967247,-9.212944,,,,,,,
1512180035.081584,-2.113494,0.789891,1.322042,0.032669,-0.047390,0.002691,-0.602779,-0.710276,0.363538,0.014431,-0.000264,-0.021222,2.829086,-23.592232,-9.137779,,,,,,,
1512180035.101573,-2.114821,0.790005,1.322739,0.027169,-0.049560,0.012196,-0.602227,-0.710357,0.364295,0.067742,0.000838,-0.021613,2.903870,-23.667122,-8.913445,,,,,,,
1512180035.121593,-2.116034,0.790158,1.323335,0.031500,-0.051682,0.007986,-0.601693,-0.710464,0.364969,0.086602,0.002441,-0.031718,2.678452,-23.742470,-9.061562,,,,,,,
1512180035.141582,-2.117129,0.790348,1.323848,0.024259,-0.047392,-0.004895,-0.601177,-0.710598,0.365558,0.079570,0.016247,-0.036533,2.681488,-23.067467,-9.061256,,,,,,,
1512180035.161571,-2.118138,0.790536,1.324276,0.014736,-0.037788,-0.009266,-0.600694,-0.710730,0.366095,0.051576,0.009986,-0.023627,2.380219,-23.367912,-8.908852,,,,,,,
1512180035.181590,-2.119088,0.790670,1.324617,-0.001072,-0.026037,-0.019045,-0.600265,-0.710825,0.366616,0.018982,0.014322,0.022361,2.830780,-23.217232,-9.137596,,,,,,,
1512180035.201579,-2.119680,0.790870,1.324685,-0.015973,-0.017514,-0.020299,-0.599927,-0.710966,0.366897,-0.004901,-0.006335,0.032868,2.605820,-23.217567,-9.060677,,,,,,,
1512180035.221568,-2.120139,0.790965,1.324601,-0.018206,-0.012188,-0.013916,-0.599701,-0.711032,0.367138,0.008118,0.014178,0.057468,2.830551,-23.292229,-8.912636,,,,,,,
1512180035.241588,-2.120278,0.791169,1.324253,-0.023605,-0.010069,-0.009723,-0.599526,-0.711175,0.367145,-0.000526,0.039056,0.021069,2.606232,-23.142570,-8.910652,,,,,,,
1512180035.261577,-2.120331,0.791294,1.323764,-0.029080,-0.016504,-0.001296,-0.599431,-0.711264,0.367130,-0.020107,0.026846,0.052426,2.606567,-23.067574,-8.910622,,,,,,,
1512180035.281566,-2.120531,0.791289,1.323332,-0.017555,-0.026123,0.010564,-0.599360,-0.711260,0.367252,-0.025533,0.023058,0.003750,2.604538,-23.517570,-8.910835,,,,,,,
1512180035.301555,-2.120785,0.791034,1.322976,0.009773,-0.029329,0.034404,-0.599421,-0.711080,0.367499,0.015269,-0.031824,-0.059012,2.381561,-23.067909,-8.908714,,,,,,,
1512180035.321574,-2.120679,0.790952,1.322393,-0.003988,-0.012251,0.028932,-0.599510,-0.711023,0.367465,0.056129,0.045938,-0.035327,2.154099,-23.593254,-9.132042,,,,,,,
1512180035.341563,-2.120032,0.790782,1.321331,-0.032537,0.000553,0.015772,-0.599850,-0.710904,0.367141,0.019574,0.039090,0.002885,2.230820,-23.218132,-9.057503,,,,,,,
1512180035.361552,-2.119334,0.790680,1.320297,-0.010252,-0.002632,0.021412,-0.600168,-0.710832,0.366760,0.052134,0.019670,-0.047882,2.154053,-23.593254,-9.207039,,,,,,,
1512180035.381572,-2.118440,0.790617,1.319089,-0.025086,0.001620,0.014810,-0.600535,-0.710787,0.366247,-0.000402,0.020800,-0.046255,1.853348,-23.743706,-9.279564,,,,,,,
1512180035.401561,-2.117682,0.790609,1.318068,-0.018726,0.001632,0.018105,-0.600817,-0.710782,0.365794,0.009966,0.015439,-0.051997,2.007172,-22.918465,-9.055443,,,,,,,
1512180035.421550,-2.116969,0.790587,1.317094,-0.027124,-0.001566,0.010512,-0.601091,-0.710767,0.365374,-0.019545,-0.011829,0.000288,2.382919,-22.767906,-8.908577,,,,,,,
1512180035.441569,-2.116542,0.790475,1.316323,-0.016607,-0.001567,0.019193,-0.601315,-0.710687,0.365159,0.006436,0.021539,0.004119,2.156937,-22.918251,-9.506721,,,,,,,
1512180035.461558,-2.116334,0.790204,1.315679,0.002333,-0.016523,0.033273,-0.601555,-0.710497,0.365133,0.030251,0.020067,-0.054419,2.306381,-23.068031,-9.283073,,,,,,,
1512180035.481547,-2.115999,0.790168,1.314928,-0.006094,-0.022933,0.026732,-0.601700,-0.710472,0.364946,0.029816,0.016532,-0.111482,1.928146,-23.743584,-9.655190,,,,,,,
1512180035.501567,-2.115978,0.789854,1.314333,-0.024001,-0.015460,0.013704,-0.601898,-0.710250,0.365048,-0.059662,-0.021836,-0.016614,2.081268,-23.068367,-9.506157,,,,,,,
1512180035.521556,-2.116202,0.789417,1.313963,-0.005150,-0.015471,0.034233,-0.602081,-0.709943,0.365344,-0.020996,-0.022616,-0.015079,2.008636,-22.543465,-9.505272,,,,,,,
1512180035.541545,-2.116412,0.789015,1.313515,0.006692,-0.019713,0.026927,-0.602248,-0.709660,0.365618,-0.018205,-0.035106,-0.011431,2.007584,-22.768471,-9.580376,,,,,,,
1512180035.561564,-2.116505,0.788521,1.312912,0.001320,-0.026136,0.028958,-0.602514,-0.709312,0.365856,-0.032588,-0.020547,-0.025768,1.932281,-22.843575,-9.504784,,,,,,,
1512180035.581554,-2.116490,0.788031,1.312293,0.001329,-0.026131,0.028960,-0.602816,-0.708966,0.366028,-0.030226,-0.023791,-0.033706,1.705963,-23.143929,-9.428001,,,,,,,
1512180035.601543,-2.116622,0.787503,1.311700,0.004563,-0.023985,0.026883,-0.603088,-0.708594,0.366301,-0.025544,-0.005945,-0.004164,1.781784,-22.993813,-9.128578,,,,,,,
1512180035.621532,-2.116995,0.786935,1.311278,0.016235,-0.035727,0.029141,-0.603295,-0.708192,0.366736,-0.024054,0.005434,-0.024786,1.557388,-22.844139,-9.276588,,,,,,,
1512180035.641551,-2.117364,0.786403,1.310891,0.014067,-0.041073,0.031224,-0.603482,-0.707817,0.367154,-0.008823,-0.016578,-0.052029,1.706223,-23.068916,-9.577965,,,,,,,
1512180035.661540,-2.117805,0.785942,1.310576,0.003341,-0.033615,0.036428,-0.603598,-0.707491,0.367589,0.038489,0.014422,0.015559,2.155930,-23.143257,-9.506828,,,,,,,
1512180035.681529,-2.118364,0.785427,1.310304,0.026633,-0.042147,0.045262,-0.603704,-0.707127,0.368117,0.082784,0.042470,-0.006636,1.857620,-22.768700,-9.504112,,,,,,,
1512180035.701549,-2.118569,0.785189,1.309735,0.009707,-0.042163,0.036485,-0.603772,-0.706959,0.368328,0.065610,0.043598,-0.042690,1.779129,-23.518806,-9.728813,,,,,,,
1512180035.721538,-2.118907,0.784762,1.309208,-0.003983,-0.042161,0.026694,-0.603906,-0.706657,0.368689,0.012261,0.033195,-0.020530,1.480972,-23.144264,-9.426094,,,,,,,
1512180035.741527,-2.119389,0.784272,1.308774,-0.017650,-0.036822,0.014786,-0.604023,-0.706310,0.369161,-0.023586,0.006267,0.052439,1.332687,-22.769478,-9.349648,,,,,,,
1512180035.761546,-2.119955,0.783716,1.308348,-0.002920,-0.040025,0.026716,-0.604150,-0.705916,0.369708,-0.026191,0.009154,0.008008,1.255249,-23.294594,-9.499245,,,,,,,
1512180035.781535,-2.120597,0.783027,1.307969,-0.011392,-0.033624,0.023416,-0.604327,-0.705428,0.370350,-0.044218,-0.014405,0.049908,1.331711,-22.994484,-9.274742,,,,,,,
1512180035.801524,-2.120859,0.782482,1.307242,-0.012761,-0.031522,0.042595,-0.604558,-0.705042,0.370710,0.001653,0.006784,0.029361,1.556717,-22.994148,-9.276665,,,,,,,
1512180035.821544,-2.120983,0.782012,1.306413,-0.014912,-0.030460,0.043634,-0.604794,-0.704708,0.370958,0.041196,0.036999,0.024183,1.333969,-22.469475,-9.499504,,,,,,,
1512180035.841533,-2.120925,0.781588,1.305457,-0.022349,-0.034737,0.042447,-0.605070,-0.704408,0.371079,0.045530,0.051118,0.013427,1.256226,-23.069603,-9.574135,,,,,,,
1512180035.861522,-2.120688,0.781359,1.304405,-0.024388,-0.034734,0.036018,-0.605296,-0.704245,0.371020,0.038859,0.039847,-0.029024,0.956482,-22.995049,-9.721565,,,,,,,
1512180035.881541,-2.120339,0.781168,1.303266,-0.043505,-0.024078,0.031511,-0.605540,-0.704109,0.370879,0.048854,0.057564,0.049485,0.954132,-23.520042,-9.721794,,,,,,,
1512180035.901530,-2.120122,0.781002,1.302250,-0.038037,-0.017640,0.024153,-0.605721,-0.703991,0.370808,0.028954,0.044476,0.056041,1.032196,-22.844933,-9.647133,,,,,,,
1512180035.921519,-2.119735,0.780898,1.301100,-0.035917,-0.025117,0.024156,-0.605926,-0.703917,0.370613,0.016540,0.016707,0.006554,1.255478,-23.219597,-9.724205,,,,,,,
1512180035.941539,-2.119329,0.780843,1.299943,-0.061372,-0.010184,0.017445,-0.606110,-0.703879,0.370386,0.003205,0.011587,0.076696,1.031372,-22.994926,-9.947197,,,,,,,
1512180035.961528,-2.119085,0.780734,1.298883,-0.037018,-0.020845,0.027357,-0.606266,-0.703801,0.370279,0.035312,0.026021,0.043479,0.956116,-23.070045,-9.796593,,,,,,,
1512180035.981517,-2.118798,0.780669,1.297764,-0.037032,-0.021920,0.027350,-0.606411,-0.703755,0.370128,0.016964,0.014103,0.010197,0.805283,-23.220268,-10.095390,,,,,,,
1512180036.001506,-2.118654,0.780488,1.296734,-0.014731,-0.034714,0.031892,-0.606573,-0.703626,0.370107,0.004797,0.011167,-0.043081,0.732086,-22.845375,-9.869576,,,,,,,
1512180036.021525,-2.118367,0.780276,1.295561,-0.011691,-0.038999,0.041517,-0.606806,-0.703476,0.370011,0.028910,-0.000595,-0.073548,1.107208,-22.769814,-10.322716,,,,,,,
1512180036.041514,-2.117940,0.780083,1.294229,-0.035210,-0.025155,0.046556,-0.607080,-0.703339,0.369822,0.059198,0.041062,0.001943,0.654800,-23.295494,-10.394142,,,,,,,
1512180036.061483,-2.117447,0.779801,1.292879,-0.040323,-0.023000,0.033698,-0.607432,-0.703138,0.369626,0.024272,0.022748,0.013735,0.730255,-23.220390,-10.169746,,,,,,,
1512180036.081503,-2.116839,0.779457,1.291376,-0.057344,-0.024090,0.031315,-0.607864,-0.702893,0.369383,-0.037247,-0.002246,0.033663,0.654236,-23.445503,-10.169212,,,,,,,
1512180036.101492,-2.116406,0.779093,1.289995,-0.061522,-0.012335,0.027032,-0.608242,-0.702635,0.369252,0.000255,0.016004,0.059978,0.654800,-23.295494,-10.394142,,,,,,,
1512180036.121481,-2.116273,0.778621,1.288828,-0.047612,-0.021924,0.022934,-0.608574,-0.702299,0.369343,-0.004997,0.008832,0.058330,0.806152,-22.995262,-10.395287,,,,,,,
1512180036.141501,-2.116175,0.778163,1.287644,-0.033999,-0.037955,0.036934,-0.608886,-0.701972,0.369450,-0.012269,0.001838,-0.003041,0.429092,-23.445839,-10.467293,,,,,,,
1512180036.161490,-2.116256,0.777699,1.286607,-0.026662,-0.036891,0.044506,-0.609134,-0.701642,0.369668,0.032016,0.018323,0.017188,0.430923,-23.070839,-10.167122,,,,,,,
1512180036.181479,-2.116725,0.777258,1.285792,-0.000014,-0.056077,0.043759,-0.609225,-0.701328,0.370115,0.057742,0.026080,0.013995,0.507797,-22.620720,-10.467552,,,,,,,
1512180036.201498,-2.117006,0.776866,1.284870,0.005208,-0.067834,0.049122,-0.609356,-0.701048,0.370429,0.010296,-0.008883,-0.077231,0.505890,-23.070717,-10.242775,,,,,,,
1512180036.221487,-2.117428,0.776362,1.284115,-0.010811,-0.052905,0.052142,-0.609501,-0.700689,0.370869,0.062733,0.015416,0.023784,0.581223,-22.995613,-10.243370,,,,,,,
1512180036.241476,-2.117876,0.775943,1.283308,-0.013916,-0.052897,0.046768,-0.609585,-0.700389,0.371295,0.077557,0.019985,0.031873,0.430847,-23.070839,-10.317116,,,,,,,
1512180036.261496,-2.118250,0.775418,1.282466,-0.023350,-0.043282,0.037068,-0.609761,-0.700014,0.371715,0.031987,0.036791,0.072652,0.431046,-22.995827,-10.617088,,,,,,,
1512180036.281485,-2.118436,0.774852,1.281462,-0.047684,-0.042221,0.027130,-0.610029,-0.699611,0.372034,-0.023180,-0.010213,0.049948,0.355820,-23.070946,-10.391487,,,,,,,
1512180036.301474,-2.118585,0.774240,1.280465,-0.041374,-0.034753,0.031507,-0.610340,-0.699173,0.372348,-0.029416,-0.006729,0.046857,0.506149,-22.995720,-10.392723,,,,,,,
1512180036.321493,-2.118476,0.773721,1.279252,-0.045706,-0.027293,0.035733,-0.610689,-0.698802,0.372470,0.001833,0.030162,0.080884,-0.020691,-23.371513,-10.688438,,,,,,,
1512180036.341482,-2.118235,0.773207,1.277915,-0.053207,-0.023033,0.038840,-0.611086,-0.698434,0.372510,0.003298,0.022164,0.106433,-0.021027,-23.446510,-10.688469,,,,,,,
1512180036.361471,-2.117938,0.772698,1.276483,-0.043673,-0.030502,0.042150,-0.611500,-0.698069,0.372514,0.006825,0.039454,0.077270,-0.019974,-23.221504,-10.613365,,,,,,,
1512180036.381460,-2.117381,0.772277,1.274850,-0.027969,-0.039055,0.059406,-0.611959,-0.697768,0.372325,0.047765,0.010634,-0.016933,-0.022522,-23.746513,-10.988609,,,,,,,
1512180036.401480,-2.116882,0.771953,1.273230,-0.031257,-0.040140,0.064684,-0.612337,-0.697536,0.372137,0.086748,0.043071,0.007303,-0.245834,-23.371849,-10.986534,,,,,,,
1512180036.421469,-2.116494,0.771639,1.271600,-0.029039,-0.042262,0.059379,-0.612669,-0.697311,0.372014,0.086378,0.072830,0.020122,-0.021133,-23.446510,-10.913475,,,,,,,
1512180036.441458,-2.116283,0.771221,1.270051,-0.027817,-0.053988,0.049763,-0.612997,-0.697012,0.372035,0.026967,0.013052,-0.023799,-0.246552,-23.521843,-11.061592,,,,,,,
1512180036.461477,-2.116109,0.770711,1.268474,-0.050067,-0.042264,0.040948,-0.613365,-0.696646,0.372113,-0.034172,0.004766,-0.002453,-0.246216,-23.446846,-11.061562,,,,,,,
1512180036.481466,-2.115983,0.770088,1.266919,-0.035246,-0.033709,0.047589,-0.613783,-0.696198,0.372261,-0.007707,0.013978,0.046776,-0.399323,-24.122078,-11.210594,,,,,,,
1512180036.501455,-2.115596,0.769521,1.265111,-0.037481,-0.042274,0.052855,-0.614265,-0.695791,0.372228,-0.034814,-0.020548,0.020030,-0.094604,-23.071617,-11.212654,,,,,,,
1512180036.521475,-2.115108,0.768943,1.263196,-0.035368,-0.042266,0.055022,-0.614790,-0.695376,0.372136,-0.064241,-0.022123,-0.013234,-0.244339,-22.996849,-11.361351,,,,,,,
1512180036.541464,-2.114564,0.768244,1.261280,-0.031309,-0.035875,0.067896,-0.615408,-0.694874,0.372053,-0.013025,-0.020443,0.009081,-0.622498,-23.672417,-11.583473,,,,,,,
1512180036.561453,-2.114056,0.767686,1.259355,-0.022827,-0.044413,0.070121,-0.615929,-0.694472,0.371941,0.028923,0.029021,-0.008339,-0.922043,-23.597862,-11.355888,,,,,,,
1512180036.581472,-2.113569,0.767023,1.257449,-0.023898,-0.050824,0.070083,-0.616505,-0.693995,0.371879,-0.000744,0.028071,-0.023139,-0.472534,-23.672188,-11.659752,,,,,,,
1512180036.601461,-2.113083,0.766407,1.255510,-0.039777,-0.045495,0.063474,-0.617051,-0.693551,0.371799,0.011064,0.024835,0.021939,-0.621811,-23.522408,-11.583412,,,,,,,
1512180036.621450,-2.112875,0.765694,1.253763,-0.033276,-0.046541,0.057169,-0.617552,-0.693037,0.371926,0.005873,0.036742,0.026603,-0.471481,-23.447182,-11.584648,,,,,,,
1512180036.641470,-2.112752,0.765040,1.252058,-0.037456,-0.048674,0.051770,-0.617986,-0.692566,0.372084,-0.004954,0.036743,0.028947,-0.696548,-23.447517,-11.732735,,,,,,,
1512180036.661459,-2.112536,0.764415,1.250211,-0.047121,-0.054037,0.055876,-0.618437,-0.692115,0.372173,-0.011034,0.019462,0.027028,-0.771820,-23.522636,-11.582130,,,,,,,
1512180036.681448,-2.112450,0.763863,1.248421,-0.051346,-0.051902,0.053690,-0.618796,-0.691717,0.372317,0.011023,0.052343,0.088163,-0.772568,-23.672646,-11.732201,,,,,,,
1512180036.701468,-2.112184,0.763486,1.246442,-0.048033,-0.064700,0.046232,-0.619118,-0.691444,0.372287,-0.029853,0.033501,-0.005771,-0.621933,-23.522408,-11.808403,,,,,,,
1512180036.721457,-2.111903,0.763158,1.244470,-0.033281,-0.070041,0.056020,-0.619417,-0.691207,0.372229,-0.000807,0.012344,-0.019904,-0.622604,-23.672417,-11.808479,,,,,,,
1512180036.741446,-2.111708,0.763010,1.242523,-0.032052,-0.062536,0.047540,-0.619578,-0.691100,0.372161,0.017939,0.057571,0.006592,-1.221863,-23.523308,-11.653297,,,,,,,
1512180036.761435,-2.111308,0.762923,1.240381,-0.049141,-0.056160,0.049445,-0.619778,-0.691037,0.371944,0.025616,0.038419,0.028095,-1.296371,-23.373421,-12.027596,,,,,,,
1512180036.781454,-2.110891,0.762950,1.238212,-0.039430,-0.057201,0.042119,-0.619917,-0.691057,0.371676,0.004743,0.010713,-0.014148,-1.372986,-23.748543,-11.877144,,,,,,,
1512180036.801443,-2.110410,0.763004,1.235895,-0.041534,-0.061474,0.039940,-0.620063,-0.691096,0.371359,0.004249,0.029642,-0.052053,-1.370361,-23.148537,-12.026863,,,,,,,
1512180036.821432,-2.110020,0.763025,1.233695,-0.043504,-0.052915,0.030346,-0.620195,-0.691111,0.371109,0.001329,0.068064,0.001541,-0.996109,-23.297966,-12.180107,,,,,,,
1512180036.841452,-2.109655,0.763003,1.231381,-0.058472,-0.058279,0.033311,-0.620343,-0.691095,0.370891,-0.041293,0.025812,-0.004344,-0.922897,-23.672859,-12.405922,,,,,,,
1512180036.861441,-2.109336,0.762903,1.229112,-0.060837,-0.054042,0.047148,-0.620521,-0.691023,0.370728,0.000571,0.022078,0.011337,-1.595840,-23.223869,-12.324974,,,,,,,
1512180036.881430,-2.109117,0.762756,1.226873,-0.055540,-0.060450,0.048266,-0.620690,-0.690916,0.370644,0.008019,0.020705,0.029563,-1.672501,-23.598991,-12.249519,,,,,,,
1512180036.901449,-2.108666,0.762670,1.224432,-0.073608,-0.062600,0.045869,-0.620906,-0.690854,0.370394,-0.033589,0.039991,-0.009066,-1.595688,-23.148872,-12.699944,,,,,,,
1512180036.921438,-2.108353,0.762374,1.222080,-0.077882,-0.061545,0.045808,-0.621197,-0.690640,0.370304,-0.043217,0.003781,0.035137,-1.596252,-23.298866,-12.475014,,,,,,,
1512180036.941427,-2.108118,0.762115,1.219772,-0.066287,-0.060470,0.054511,-0.621437,-0.690453,0.370249,0.009911,0.043862,0.049734,-1.371368,-23.298531,-12.701927,,,,,,,
1512180036.961447,-2.107847,0.761937,1.217389,-0.067309,-0.064741,0.051282,-0.621642,-0.690324,0.370143,-0.007555,0.072832,0.024267,-1.597046,-23.448875,-12.700081,,,,,,,
1512180036.981436,-2.107602,0.761644,1.215011,-0.069436,-0.080766,0.050129,-0.621906,-0.690112,0.370093,-0.021542,0.001605,0.019128,-1.822037,-23.449211,-12.698158,,,,,,,
1512180037.001425,-2.107431,0.761408,1.212705,-0.074959,-0.075458,0.061793,-0.622108,-0.689941,0.370070,0.011894,0.050857,0.075273,-1.822647,-23.599220,-12.548241,,,,,,,
1512180037.021444,-2.107283,0.761264,1.210431,-0.084374,-0.065841,0.051028,-0.622248,-0.689837,0.370029,0.010722,0.037600,0.066022,-1.671448,-23.298988,-12.849373,,,,,,,
1512180037.041433,-2.107201,0.761008,1.208221,-0.079066,-0.067965,0.053234,-0.622430,-0.689652,0.370067,0.011056,0.001465,0.089070,-1.597076,-23.448875,-12.775078,,,,,,,
1512180037.061385,-2.107106,0.760856,1.205976,-0.085312,-0.071164,0.043536,-0.622554,-0.689542,0.370061,-0.017079,0.041822,0.102321,-2.047455,-23.524544,-12.846291,,,,,,,
1512180037.081374,-2.107084,0.760698,1.203764,-0.080001,-0.075429,0.044665,-0.622655,-0.689427,0.370103,-0.014018,0.026174,0.068450,-2.273514,-23.749886,-12.919472,,,,,,,
1512180037.101394,-2.107119,0.760663,1.201633,-0.082169,-0.077573,0.046758,-0.622663,-0.689402,0.370137,0.019819,0.027765,0.024150,-2.572464,-23.525337,-12.841835,,,,,,,
1512180037.121383,-2.107280,0.760542,1.199547,-0.071470,-0.081828,0.043698,-0.622675,-0.689314,0.370279,0.003961,0.032210,0.057852,-2.573318,-23.675331,-13.216896,,,,,,,
1512180037.141372,-2.107225,0.760512,1.197274,-0.069422,-0.079690,0.050136,-0.622712,-0.689292,0.370255,0.008652,0.017189,0.008971,-2.573853,-23.825340,-12.916969,,,,,,,
