timestamp(unix),attitude_roll(radians),attitude_pitch(radians),attitude_yaw(radians),rotation_rate_x(radians/s),rotation_rate_y(radians/s),rotation_rate_z(radians/s),gravity_x(G),gravity_y(G),gravity_z(G),user_acc_x(G),user_acc_y(G),user_acc_z(G),magnetic_field_x(microteslas),magnetic_field_y(microteslas),magnetic_field_z(microteslas),latitude(degree),longitude(degree),altitude(meter),speed(m/s),course(degree),timestamp(unix),User Mark
1512180821.305457,0.102079,-0.049348,0.668877,0.000855,0.001873,0.003501,0.101777,0.049328,-0.993583,0.013884,0.004215,-0.013085,16.054274,-10.848089,7.214058,,,,,,,
1512180821.325476,0.102117,-0.049386,0.668861,-0.004451,-0.000266,0.002352,0.101816,0.049366,-0.993578,-0.002588,0.013332,0.024416,15.679167,-10.848654,6.992256,,,,,,,
1512180821.345465,0.102109,-0.049386,0.668845,0.001937,0.000811,0.002445,0.101808,0.049366,-0.993578,0.010009,0.002972,-0.017042,15.302015,-11.299215,6.770226,,,,,,,
1512180821.365454,0.102116,-0.049413,0.668823,-0.004446,-0.003470,0.001271,0.101814,0.049393,-0.993576,0.001793,0.013061,0.025452,15.453001,-11.073996,6.694069,,,,,,,
1512180821.385443,0.102108,-0.049434,0.668828,-0.000194,-0.000256,0.002409,0.101806,0.049414,-0.993576,0.011704,0.009745,-0.016281,15.374556,-11.824118,6.544365,,,,,,,
1512180821.405463,0.102106,-0.049452,0.668818,-0.001224,-0.003456,0.000252,0.101804,0.049431,-0.993576,-0.009885,0.013755,0.024551,15.300642,-11.599218,6.695091,,,,,,,
1512180821.425452,0.102076,-0.049436,0.668807,0.001967,-0.000244,0.001377,0.101774,0.049416,-0.993579,0.012957,0.005363,-0.016263,15.452330,-11.223989,6.693993,,,,,,,
1512180821.445441,0.102074,-0.049469,0.668804,-0.004405,-0.002391,-0.000858,0.101772,0.049449,-0.993578,-0.008190,0.013478,0.027742,15.377958,-11.074102,6.619698,,,,,,,
1512180821.465461,0.102061,-0.049443,0.668802,0.001959,-0.000248,0.001374,0.101759,0.049423,-0.993581,0.008287,0.007538,-0.012920,15.603148,-11.073767,6.992775,,,,,,,
1512180821.485450,0.102057,-0.049462,0.668782,-0.002294,-0.001324,0.000241,0.101755,0.049442,-0.993580,-0.007929,0.013745,0.026768,15.451765,-11.373999,6.918922,,,,,,,
1512180821.505439,0.102043,-0.049457,0.668776,0.001944,-0.000256,0.001370,0.101741,0.049437,-0.993582,0.005177,0.005815,-0.015162,15.451094,-11.523993,6.918846,,,,,,,
1512180821.525458,0.102045,-0.049474,0.668783,-0.001260,-0.001325,0.002389,0.101744,0.049454,-0.993581,-0.004255,0.013245,0.026585,15.452177,-11.299002,7.068947,,,,,,,
1512180821.545447,0.102058,-0.049463,0.668793,0.000908,0.001896,0.001368,0.101756,0.049443,-0.993580,0.005376,0.003367,-0.013226,15.378157,-11.074102,6.994698,,,,,,,
1512180821.565436,0.102092,-0.049477,0.668767,-0.002289,0.000819,0.000246,0.101790,0.049457,-0.993576,-0.011320,0.011044,0.023544,15.378370,-10.999105,6.769737,,,,,,,
1512180821.585425,0.102120,-0.049440,0.668770,0.001958,0.001892,0.001377,0.101818,0.049419,-0.993575,0.011967,0.002186,-0.017747,15.528837,-10.923880,6.993492,,,,,,,
1512180821.605445,0.102154,-0.049463,0.668766,-0.003338,0.000827,0.000235,0.101852,0.049443,-0.993570,-0.008255,0.014721,0.026514,15.829206,-10.848425,7.065971,,,,,,,
1512180821.625434,0.102150,-0.049474,0.668762,0.000899,-0.000243,0.001354,0.101848,0.049454,-0.993570,0.007558,0.006546,-0.018790,15.677443,-11.223654,6.917076,,,,,,,
1512180821.645423,0.102172,-0.049497,0.668742,-0.002273,-0.000245,0.000242,0.101870,0.049477,-0.993567,-0.001085,0.011039,0.019064,15.451536,-11.448996,7.143883,,,,,,,
1512180821.665442,0.102195,-0.049518,0.668728,0.000899,0.000823,0.002424,0.101892,0.049498,-0.993563,0.008429,0.002580,-0.014890,15.301466,-11.449224,6.995155,,,,,,,
1512180821.685431,0.102203,-0.049551,0.668731,-0.004424,-0.000263,0.001272,0.101900,0.049531,-0.993561,-0.002733,0.014877,0.028305,15.448683,-12.049002,6.843605,,,,,,,
1512180821.705420,0.102188,-0.049536,0.668724,0.002011,0.000824,0.000306,0.101885,0.049515,-0.993563,0.009214,0.008422,-0.017545,15.453260,-11.073996,7.219063,,,,,,,
1512180821.725409,0.102203,-0.049535,0.668723,-0.002251,-0.002392,0.000231,0.101900,0.049515,-0.993562,-0.008745,0.014160,0.023087,15.904799,-10.698309,6.915413,,,,,,,
1512180821.745418,0.102204,-0.049523,0.668722,0.000953,-0.001321,0.000279,0.101901,0.049503,-0.993562,0.011517,0.006222,-0.010207,15.602476,-11.223776,6.992714,,,,,,,
1512180821.765407,0.102207,-0.049540,0.668713,-0.002237,0.002945,0.000246,0.101904,0.049520,-0.993561,-0.009207,0.014658,0.020889,15.602217,-11.298773,7.142677,,,,,,,
1512180821.785396,0.102205,-0.049539,0.668723,-0.001194,0.000809,0.002387,0.101902,0.049519,-0.993561,0.012341,0.007930,-0.015793,15.601728,-11.373770,6.842644,,,,,,,
1512180821.805415,0.102197,-0.049533,0.668738,-0.002240,-0.001330,0.001297,0.101894,0.049512,-0.993562,-0.002605,0.013201,0.020998,15.676237,-11.523657,7.216942,,,,,,,
1512180821.825404,0.102183,-0.049511,0.668736,0.002020,-0.003463,0.001349,0.101881,0.049490,-0.993565,0.009646,0.004053,-0.013653,15.752256,-11.298544,7.216408,,,,,,,
1512180821.845393,0.102201,-0.049506,0.668741,-0.002225,0.000802,0.000234,0.101898,0.049486,-0.993563,0.005478,0.010558,0.018435,15.677290,-11.298651,7.292046,,,,,,,
1512180821.865413,0.102213,-0.049468,0.668743,0.004141,0.007216,0.002479,0.101910,0.049448,-0.993564,0.009097,0.016089,-0.027524,15.376570,-11.449102,7.219521,,,,,,,
1512180821.885402,0.102196,-0.049522,0.668729,-0.003315,0.000801,0.002349,0.101893,0.049502,-0.993563,-0.014384,0.013685,0.025439,15.677137,-11.298651,6.992043,,,,,,,
1512180821.905391,0.102205,-0.049487,0.668720,0.000985,0.006152,0.000296,0.101902,0.049466,-0.993564,0.003094,0.002856,-0.016919,15.228300,-11.074331,7.295967,,,,,,,
1512180821.925380,0.102183,-0.049529,0.668712,-0.003269,-0.000262,-0.000857,0.101880,0.049508,-0.993564,-0.001844,0.017112,0.019550,15.449858,-11.823996,7.143715,,,,,,,
1512180821.945399,0.102175,-0.049528,0.668727,0.000955,-0.000254,0.002405,0.101872,0.049508,-0.993565,0.009929,0.005988,-0.016079,15.601393,-11.448767,6.842613,,,,,,,
1512180821.965388,0.102191,-0.049544,0.668717,-0.001142,-0.000253,0.000240,0.101888,0.049524,-0.993562,-0.009420,0.016608,0.020158,15.227140,-11.299337,6.995872,,,,,,,
1512180821.985377,0.102193,-0.049520,0.668725,0.003066,0.000815,0.003501,0.101890,0.049500,-0.993563,0.008447,0.005020,-0.015134,15.677244,-11.298651,7.217033,,,,,,,
1512180822.005397,0.102210,-0.049546,0.668722,-0.001169,-0.000258,0.001301,0.101907,0.049526,-0.993560,0.000754,0.014164,0.023727,15.378599,-10.999105,7.219734,,,,,,,
1512180822.025386,0.102216,-0.049539,0.668721,0.002047,0.001884,0.000287,0.101913,0.049519,-0.993560,0.004563,0.006221,-0.017869,15.452284,-11.299002,7.293953,,,,,,,
1512180822.045375,0.102213,-0.049567,0.668712,-0.004347,-0.001329,0.000182,0.101910,0.049547,-0.993559,-0.008739,0.017058,0.022352,15.753340,-11.073538,7.366508,,,,,,,
1512180822.065364,0.102253,-0.049554,0.668716,-0.000102,0.014696,0.002431,0.101949,0.049534,-0.993555,-0.024724,0.004772,-0.033926,15.526579,-11.448874,7.218239,,,,,,,
1512180822.085384,0.102213,-0.049547,0.668677,-0.000045,-0.002389,-0.001893,0.101910,0.049527,-0.993560,-0.014950,0.026584,0.028854,15.750563,-11.673544,7.216225,,,,,,,
1512180822.105373,0.102226,-0.049550,0.668681,0.000992,0.006151,0.000282,0.101923,0.049530,-0.993558,0.022192,-0.000137,-0.007617,15.677290,-11.298651,7.292046,,,,,,,
1512180822.125362,0.102168,-0.049578,0.668672,0.000982,-0.012008,0.000218,0.101865,0.049558,-0.993563,0.026202,0.020510,0.019274,15.525496,-11.673880,7.068138,,,,,,,
1512180822.145381,0.102213,-0.049513,0.668659,0.006320,-0.002387,0.000329,0.101910,0.049492,-0.993562,0.010959,-0.018670,-0.005386,15.451460,-11.448996,6.993889,,,,,,,
1512180822.165370,0.102196,-0.049545,0.668668,-0.003348,-0.000279,0.004457,0.101893,0.049525,-0.993562,-0.029872,0.013616,0.034684,15.451460,-11.448996,6.993889,,,,,,,
1512180822.185359,0.102181,-0.049525,0.668632,0.003145,-0.001322,-0.000782,0.101878,0.049505,-0.993564,-0.010508,0.001551,-0.002529,15.525526,-11.673880,7.143150,,,,,,,
1512180822.205348,0.102205,-0.049537,0.668619,-0.001158,-0.001335,0.001285,0.101902,0.049517,-0.993561,-0.003742,0.020781,0.014649,15.527143,-11.298880,6.993309,,,,,,,
1512180822.225368,0.102202,-0.049520,0.668601,0.002065,0.005083,0.000288,0.101899,0.049500,-0.993562,0.009033,0.001617,-0.022200,15.451124,-11.523993,6.993843,,,,,,,
1512180822.245357,0.102182,-0.049562,0.668583,-0.002205,-0.000266,0.000205,0.101879,0.049541,-0.993562,-0.004742,0.017323,0.017549,15.600080,-11.748770,6.917473,,,,,,,
1512180822.265346,0.102178,-0.049528,0.668559,0.003117,0.001882,0.001356,0.101875,0.049507,-0.993564,0.006508,0.009895,-0.015164,15.451643,-11.448996,7.368889,,,,,,,
1512180822.285365,0.102168,-0.049524,0.668533,-0.002200,0.000807,0.000207,0.101866,0.049504,-0.993566,-0.004469,0.014202,0.016820,15.526472,-11.448874,6.993248,,,,,,,
1512180822.305354,0.102148,-0.049506,0.668525,0.002063,-0.001321,0.000261,0.101846,0.049486,-0.993569,0.006309,0.003081,-0.015892,15.676497,-11.448660,7.066963,,,,,,,
1512180822.325343,0.102156,-0.049522,0.668531,-0.001165,-0.001334,0.001275,0.101854,0.049501,-0.993567,-0.003282,0.013701,0.019766,15.451536,-11.448996,7.143883,,,,,,,
1512180822.345363,0.102157,-0.049510,0.668528,-0.000067,-0.000254,0.000231,0.101855,0.049490,-0.993567,0.001692,0.006983,-0.018395,15.677061,-11.298651,6.842033,,,,,,,
1512180822.365352,0.102156,-0.049529,0.668545,-0.001163,-0.003466,0.001266,0.101853,0.049509,-0.993567,0.000106,0.015646,0.021048,15.752058,-11.298544,6.841408,,,,,,,
1512180822.385341,0.102178,-0.049511,0.668538,-0.000096,0.001876,0.001298,0.101875,0.049491,-0.993565,0.003502,0.007455,-0.010097,15.677885,-11.148657,7.142113,,,,,,,
1512180822.405330,0.102191,-0.049543,0.668539,-0.003271,0.000808,0.000183,0.101888,0.049523,-0.993562,-0.010412,0.012947,0.021120,15.901884,-11.373312,7.140099,,,,,,,
1512180822.425349,0.102199,-0.049504,0.668540,0.002043,0.000815,0.001326,0.101896,0.049484,-0.993563,0.011385,0.008698,-0.016538,15.526320,-11.523886,7.368217,,,,,,,
1512180822.445338,0.102190,-0.049495,0.668522,-0.001146,0.000814,0.001280,0.101888,0.049475,-0.993565,-0.007390,0.013986,0.015324,15.452253,-11.299002,7.218956,,,,,,,
1512180822.465327,0.102186,-0.049458,0.668507,0.001000,-0.000251,0.000240,0.101883,0.049437,-0.993567,0.002029,0.002381,-0.009881,15.678984,-10.923651,7.292213,,,,,,,
1512180822.485347,0.102173,-0.049473,0.668507,-0.002199,-0.002392,0.000185,0.101871,0.049453,-0.993568,0.004010,0.013749,0.019645,15.523771,-12.048880,6.992973,,,,,,,
1512180822.505336,0.102159,-0.049457,0.668494,0.000977,0.001880,0.001309,0.101856,0.049437,-0.993570,0.001217,0.005815,-0.018897,15.675596,-11.673666,7.291878,,,,,,,
1512180822.525325,0.102160,-0.049458,0.668476,-0.001134,-0.000255,0.000205,0.101858,0.049438,-0.993570,-0.002340,0.016450,0.021493,15.525450,-11.673880,6.993141,,,,,,,
1512180822.545314,0.102141,-0.049412,0.668482,0.003113,-0.001323,0.000259,0.101839,0.049392,-0.993574,0.003584,0.009751,-0.013003,15.677595,-11.223654,7.217079,,,,,,,
1512180822.565334,0.102112,-0.049455,0.668474,-0.003267,-0.002391,0.000166,0.101810,0.049435,-0.993575,-0.007221,0.027179,0.024855,15.751921,-11.373541,7.216362,,,,,,,
1512180822.585323,0.102093,-0.049453,0.668472,0.000983,0.002949,0.000242,0.101791,0.049433,-0.993577,0.002945,0.027059,-0.017364,15.449507,-11.898993,7.143684,,,,,,,
1512180822.605312,0.102062,-0.049521,0.668439,-0.003257,-0.001320,-0.000898,0.101760,0.049501,-0.993577,-0.008452,0.040068,0.012421,15.752256,-11.298544,7.216408,,,,,,,
1512180822.625331,0.102025,-0.049575,0.668415,-0.003279,-0.002390,0.000164,0.101723,0.049555,-0.993578,-0.002785,0.031775,-0.004790,15.825560,-11.673437,7.215584,,,,,,,
1512180822.645320,0.102006,-0.049650,0.668365,-0.003205,-0.000241,-0.004090,0.101704,0.049630,-0.993576,0.000805,0.041404,0.016708,15.749891,-11.823553,7.216164,,,,,,,
1512180822.665309,0.101993,-0.049679,0.668316,-0.000040,0.000832,-0.001906,0.101691,0.049658,-0.993576,-0.010016,0.033136,-0.008072,15.751234,-11.523550,7.216301,,,,,,,
1512180822.685329,0.101984,-0.049748,0.668258,-0.001108,-0.002370,-0.001930,0.101682,0.049727,-0.993573,-0.002637,0.042268,0.019101,15.675932,-11.598654,7.291908,,,,,,,
1512180822.705318,0.102004,-0.049737,0.668193,0.001036,0.005116,-0.001867,0.101701,0.049716,-0.993572,-0.002656,0.037732,-0.011601,15.901167,-11.523321,7.065025,,,,,,,
1512180822.725307,0.101964,-0.049764,0.668129,-0.000032,-0.007698,-0.001921,0.101661,0.049744,-0.993575,0.008980,0.042984,0.026579,15.901091,-11.523321,6.915031,,,,,,,
1512180822.745282,0.102016,-0.049695,0.668066,0.004233,0.005125,-0.001811,0.101713,0.049675,-0.993573,-0.012495,0.034340,-0.006397,16.200041,-11.747869,6.837364,,,,,,,
1512180822.765301,0.101975,-0.049684,0.668014,0.002085,-0.005555,-0.000803,0.101673,0.049664,-0.993577,0.003323,0.044803,0.012620,15.902296,-11.223318,6.615166,,,,,,,
1512180822.785290,0.101951,-0.049664,0.667940,0.001037,-0.003415,-0.001869,0.101649,0.049644,-0.993581,-0.007396,0.040948,-0.001674,16.053831,-10.923086,6.989021,,,,,,,
1512180822.805279,0.101960,-0.049682,0.667878,-0.000031,-0.001279,-0.001869,0.101658,0.049661,-0.993579,-0.000584,0.049918,0.014270,15.749357,-11.898550,6.841118,,,,,,,
1512180822.825299,0.101924,-0.049681,0.667824,0.001052,-0.001271,-0.002909,0.101622,0.049661,-0.993583,-0.010695,0.040213,-0.006845,15.675795,-11.598654,6.991905,,,,,,,
1512180822.845288,0.101928,-0.049727,0.667768,-0.001060,-0.002335,-0.003997,0.101626,0.049706,-0.993580,-0.002825,0.044974,0.019825,15.675108,-11.748663,6.991829,,,,,,,
1512180822.865277,0.101931,-0.049745,0.667699,0.000005,-0.000194,-0.003962,0.101629,0.049724,-0.993579,-0.000524,0.037709,-0.003278,15.449171,-11.974005,7.143639,,,,,,,
1512180822.885266,0.101915,-0.049794,0.667607,0.000014,-0.000192,-0.005016,0.101613,0.049774,-0.993578,-0.009648,0.040024,0.020693,15.076231,-11.524557,7.222038,,,,,,,
1512180822.905285,0.101912,-0.049789,0.667515,0.001068,-0.003390,-0.003927,0.101609,0.049768,-0.993579,-0.002473,0.035452,-0.001615,15.150450,-11.674444,6.996330,,,,,,,
1512180822.925274,0.101895,-0.049809,0.667389,0.001120,-0.001240,-0.006047,0.101592,0.049789,-0.993579,-0.006759,0.040772,0.008563,15.451124,-11.523993,6.993843,,,,,,,
1512180822.945263,0.101885,-0.049779,0.667269,0.002171,0.000891,-0.006029,0.101583,0.049758,-0.993582,-0.010458,0.032288,-0.003931,15.449217,-11.974005,7.218636,,,,,,,
1512180822.965283,0.101864,-0.049776,0.667140,0.002165,-0.001246,-0.006037,0.101562,0.049755,-0.993584,-0.005035,0.045200,0.008843,15.151243,-11.524450,7.221397,,,,,,,
1512180822.985272,0.101863,-0.049732,0.666982,0.004352,0.000902,-0.009196,0.101562,0.049711,-0.993586,0.001328,0.039446,-0.008840,14.925825,-11.599783,7.073280,,,,,,,
1512180823.005261,0.101829,-0.049719,0.666832,0.002186,-0.001239,-0.007102,0.101528,0.049699,-0.993590,-0.009868,0.048186,0.007796,14.927702,-11.224783,7.448448,,,,,,,
1512180823.025280,0.101852,-0.049694,0.666700,0.002173,0.001966,-0.006025,0.101550,0.049673,-0.993589,0.001523,0.039957,-0.004946,14.924620,-11.899786,7.373131,,,,,,,
1512180823.045269,0.101861,-0.049692,0.666572,0.002173,0.000900,-0.006028,0.101560,0.049671,-0.993589,-0.006238,0.042843,0.007611,15.150221,-11.749441,7.221291,,,,,,,
1512180823.065259,0.101905,-0.049664,0.666425,0.003238,0.001970,-0.006009,0.101603,0.049643,-0.993586,-0.000880,0.036828,-0.009863,15.149549,-11.899450,7.221230,,,,,,,
1512180823.085248,0.101945,-0.049680,0.666277,0.002198,0.003044,-0.007085,0.101643,0.049659,-0.993581,0.002254,0.040184,0.005055,15.149885,-11.824453,7.221260,,,,,,,
1512180823.105267,0.101999,-0.049637,0.666118,0.004320,0.005177,-0.007050,0.101697,0.049617,-0.993577,-0.012494,0.034383,-0.005675,15.150602,-11.674444,7.296333,,,,,,,
1512180823.125256,0.102024,-0.049627,0.665967,0.001177,0.000909,-0.010307,0.101722,0.049606,-0.993575,0.005013,0.041931,0.010696,15.075636,-11.674566,7.371971,,,,,,,
1512180823.145245,0.102036,-0.049572,0.665818,0.003283,0.000913,-0.008142,0.101734,0.049551,-0.993577,-0.009022,0.034189,0.003892,14.923796,-12.049780,7.073067,,,,,,,
1512180823.165265,0.101982,-0.049549,0.665667,0.003261,-0.005499,-0.007098,0.101680,0.049529,-0.993583,-0.004421,0.042497,0.008354,15.225065,-11.749334,6.920662,,,,,,,
1512180823.185254,0.101986,-0.049496,0.665486,0.002223,0.003042,-0.009219,0.101685,0.049476,-0.993585,-0.003983,0.038933,-0.004309,15.151274,-11.524450,7.296410,,,,,,,
1512180823.205243,0.101952,-0.049499,0.665304,0.004334,-0.005501,-0.008151,0.101651,0.049479,-0.993589,-0.002881,0.024496,0.006650,15.076277,-11.524557,7.297035,,,,,,,
1512180823.225232,0.101974,-0.049470,0.665147,0.004344,0.004113,-0.008117,0.101673,0.049450,-0.993588,-0.002292,-0.021786,-0.015079,15.376768,-11.449102,7.594521,,,,,,,
1512180823.245251,0.102054,-0.049363,0.664999,0.008607,0.006255,-0.008048,0.101753,0.049342,-0.993585,0.002327,-0.067317,-0.001913,15.151457,-11.449438,6.996437,,,,,,,
1512180823.265240,0.102184,-0.049113,0.664865,0.014952,0.008395,-0.004751,0.101883,0.049094,-0.993584,0.009445,-0.106329,-0.011848,15.677366,-11.298651,7.442039,,,,,,,
1512180823.285229,0.102336,-0.048848,0.664773,0.015966,0.009459,-0.001534,0.102036,0.048828,-0.993582,-0.004974,-0.095856,-0.003779,15.526762,-11.448874,7.593239,,,,,,,
1512180823.305249,0.102467,-0.048472,0.664694,0.020216,0.007330,-0.000412,0.102167,0.048453,-0.993586,0.010366,-0.126151,-0.025746,15.526396,-11.523886,7.518211,,,,,,,
1512180823.325238,0.102590,-0.048083,0.664684,0.019091,0.009454,0.002775,0.102292,0.048064,-0.993592,0.004077,-0.134566,-0.020980,15.376356,-11.524099,7.444481,,,,,,,
1512180823.345227,0.102688,-0.047644,0.664671,0.019092,0.007319,0.002768,0.102391,0.047626,-0.993603,0.000026,-0.144642,-0.016651,15.374281,-11.974112,7.369286,,,,,,,
1512180823.365216,0.102758,-0.047282,0.664697,0.015865,0.001967,0.003767,0.102462,0.047264,-0.993613,0.006089,-0.126732,-0.004342,15.375181,-11.749105,7.144386,,,,,,,
1512180823.385235,0.102880,-0.046892,0.664753,0.019057,0.007314,0.004900,0.102586,0.046875,-0.993619,0.012740,-0.129715,-0.017383,15.826796,-11.448431,7.665703,,,,,,,
1512180823.405224,0.102972,-0.046569,0.664803,0.013745,0.006240,0.003753,0.102678,0.046552,-0.993625,0.000135,-0.104047,-0.012433,15.452070,-11.373999,7.518913,,,,,,,
1512180823.425213,0.103058,-0.046322,0.664818,0.008447,0.004099,0.001536,0.102766,0.046305,-0.993627,0.010165,-0.072566,-0.006617,15.450636,-11.674002,7.368782,,,,,,,
1512180823.445233,0.103080,-0.046204,0.664823,0.001001,0.000885,0.000351,0.102788,0.046188,-0.993630,-0.002111,-0.020782,0.011773,15.525938,-11.598883,7.293175,,,,,,,
1512180823.465222,0.103055,-0.046211,0.664807,-0.004293,-0.002322,-0.001868,0.102762,0.046194,-0.993633,0.009298,0.008783,-0.000661,15.676054,-11.598654,7.516899,,,,,,,
1512180823.485211,0.102961,-0.046375,0.664772,-0.012788,-0.006603,-0.004139,0.102669,0.046358,-0.993635,-0.010033,0.047087,0.023923,15.377241,-11.299109,7.219582,,,,,,,
1512180823.505230,0.102823,-0.046686,0.664717,-0.018104,-0.007679,-0.005286,0.102530,0.046669,-0.993634,-0.000510,0.067803,0.015088,15.376616,-11.449102,7.294518,,,,,,,
1512180823.525219,0.102662,-0.047106,0.664659,-0.022384,-0.007687,-0.004282,0.102368,0.047088,-0.993631,-0.007840,0.087845,0.025965,15.374922,-11.824102,7.294350,,,,,,,
1512180823.545208,0.102529,-0.047545,0.664603,-0.022381,-0.006618,-0.004278,0.102234,0.047527,-0.993624,-0.001434,0.086460,0.014361,15.676313,-11.523657,7.366936,,,,,,,
1512180823.565197,0.102388,-0.048069,0.664552,-0.023425,-0.006616,-0.005358,0.102091,0.048051,-0.993614,-0.006479,0.087142,0.018898,15.451918,-11.373999,7.218910,,,,,,,
1512180823.585217,0.102267,-0.048486,0.664518,-0.018132,-0.005544,-0.003146,0.101969,0.048467,-0.993606,0.001059,0.065027,0.013381,15.601347,-11.523764,7.442574,,,,,,,
1512180823.605206,0.102194,-0.048883,0.664529,-0.016056,-0.002346,0.000092,0.101895,0.048864,-0.993594,0.000141,0.053401,0.014545,15.751234,-11.523550,7.216301,,,,,,,
1512180823.625195,0.102134,-0.049130,0.664539,-0.009696,-0.001272,0.002320,0.101834,0.049111,-0.993588,-0.003201,0.026832,-0.000644,15.677290,-11.298651,7.292046,,,,,,,
1512180823.645215,0.102135,-0.049315,0.664625,-0.006531,-0.000203,0.004502,0.101834,0.049295,-0.993579,-0.004650,0.016897,-0.000699,15.603682,-10.998770,7.367821,,,,,,,
1512180823.665204,0.102143,-0.049332,0.664695,0.001996,0.000878,0.004630,0.101841,0.049312,-0.993578,-0.000859,-0.009944,-0.009200,15.675596,-11.673666,7.291878,,,,,,,
1512180823.685193,0.102148,-0.049280,0.664771,0.005191,0.000882,0.004675,0.101846,0.049260,-0.993580,-0.006647,-0.014028,-0.013195,15.451384,-11.523993,7.518852,,,,,,,
1512180823.705182,0.102137,-0.049117,0.664821,0.010551,-0.000176,0.002616,0.101837,0.049097,-0.993589,-0.007889,-0.031412,-0.025897,15.828749,-10.998419,7.515907,,,,,,,
1512180823.725201,0.102107,-0.048907,0.664846,0.011620,-0.001240,0.002629,0.101807,0.048888,-0.993602,-0.000275,-0.022688,-0.012593,15.602369,-11.298773,7.442680,,,,,,,
1512180823.745170,0.102102,-0.048663,0.664826,0.012729,0.003041,0.000529,0.101804,0.048644,-0.993614,-0.008817,-0.029494,-0.026619,15.301237,-11.524221,7.220116,,,,,,,
1512180823.765159,0.102093,-0.048461,0.664778,0.008484,0.000901,-0.000605,0.101796,0.048442,-0.993625,-0.004017,-0.012507,-0.006283,15.526915,-11.373877,7.218285,,,,,,,
1512180823.785179,0.102115,-0.048300,0.664701,0.006386,0.001969,-0.002765,0.101819,0.048281,-0.993631,-0.004742,-0.007204,-0.008963,15.451918,-11.373999,7.218910,,,,,,,
1512180823.805168,0.102148,-0.048198,0.664635,0.005313,0.004099,-0.002775,0.101852,0.048179,-0.993632,-0.011673,0.007271,-0.004415,15.375257,-11.749105,7.294380,,,,,,,
1512180823.825157,0.102202,-0.048138,0.664568,0.002109,0.003030,-0.001756,0.101905,0.048119,-0.993630,0.001351,0.005622,0.000649,15.677626,-11.223654,7.292076,,,,,,,
1512180823.845176,0.102252,-0.048190,0.664532,-0.003240,0.003019,-0.000768,0.101955,0.048172,-0.993622,-0.010815,0.020416,0.011429,15.525297,-11.748877,7.368111,,,,,,,
1512180823.865165,0.102337,-0.048281,0.664520,-0.005352,0.004087,-0.001861,0.102039,0.048262,-0.993609,0.001645,0.020357,0.004305,15.451612,-11.448996,7.293892,,,,,,,
1512180823.885154,0.102399,-0.048404,0.664528,-0.007536,0.008349,0.001320,0.102101,0.048385,-0.993597,-0.001744,0.030457,0.014242,15.374617,-11.899115,7.369316,,,,,,,
1512180823.905143,0.102445,-0.048510,0.664570,-0.005427,0.005144,0.002405,0.102146,0.048491,-0.993587,0.003750,0.019640,0.003352,15.150496,-11.674444,7.071327,,,,,,,
1512180823.925163,0.102479,-0.048634,0.664625,-0.003325,-0.001268,0.003477,0.102179,0.048615,-0.993577,0.005976,0.027786,0.013856,15.302397,-11.299215,7.520226,,,,,,,
1512180823.945152,0.102522,-0.048696,0.664680,-0.002265,0.005144,0.004582,0.102221,0.048676,-0.993570,0.005460,0.013122,-0.002249,15.302778,-11.224218,7.595268,,,,,,,
1512180823.965141,0.102540,-0.048732,0.664727,0.000965,-0.000187,0.002479,0.102239,0.048713,-0.993566,-0.001043,0.020135,0.007147,15.453596,-10.998983,7.219093,,,,,,,
1512180823.985160,0.102550,-0.048691,0.664740,0.002060,-0.000184,0.000361,0.102249,0.048672,-0.993567,0.001557,0.001667,-0.003305,15.377287,-11.299109,7.294594,,,,,,,
1512180824.005149,0.102522,-0.048662,0.664754,0.003127,-0.002318,0.000370,0.102222,0.048643,-0.993572,0.003964,0.014620,-0.000081,15.526960,-11.373877,7.293282,,,,,,,
1512180824.025138,0.102494,-0.048584,0.664743,0.005282,-0.001242,-0.000660,0.102194,0.048565,-0.993578,-0.003378,0.002766,-0.011656,15.303679,-10.999212,7.370369,,,,,,,
1512180824.045127,0.102421,-0.048524,0.664722,0.004227,-0.004448,-0.001754,0.102121,0.048505,-0.993589,-0.005350,0.008670,-0.005328,15.378523,-11.074102,7.744698,,,,,,,
1512180824.065147,0.102358,-0.048434,0.664683,0.003195,0.004103,-0.002802,0.102060,0.048415,-0.993599,-0.007821,-0.008788,-0.014152,15.376722,-11.449102,7.519524,,,,,,,
1512180824.085136,0.102236,-0.048415,0.664655,0.002096,-0.004451,-0.001784,0.101938,0.048396,-0.993613,-0.009851,0.007543,-0.001489,15.452436,-11.299002,7.593956,,,,,,,
1512180824.105125,0.102179,-0.048376,0.664647,0.005257,-0.003383,0.000397,0.101882,0.048357,-0.993620,-0.008895,-0.002153,-0.011949,14.998991,-12.049673,7.447426,,,,,,,
1512180824.125145,0.102168,-0.048380,0.664638,-0.000052,-0.000184,-0.000735,0.101871,0.048361,-0.993621,-0.014682,0.009515,-0.000824,15.078596,-10.999548,7.222282,,,,,,,
1512180824.145134,0.102162,-0.048358,0.664638,0.001009,0.001950,-0.000714,0.101865,0.048339,-0.993623,-0.006666,0.001481,0.001725,14.776274,-11.525000,7.299583,,,,,,,
1512180824.165123,0.102139,-0.048403,0.664637,-0.001094,-0.002316,-0.001822,0.101843,0.048384,-0.993623,-0.013311,0.010210,0.007722,14.853300,-11.074896,7.299156,,,,,,,
1512180824.185142,0.102157,-0.048415,0.664629,0.001018,0.003023,-0.000708,0.101860,0.048396,-0.993621,-0.008339,0.004369,0.000243,14.927366,-11.299780,7.448418,,,,,,,
1512180824.205131,0.102177,-0.048459,0.664650,-0.003258,0.003017,0.000297,0.101879,0.048440,-0.993617,-0.009640,0.023093,0.003657,14.852064,-11.374899,7.524025,,,,,,,
1512180824.225120,0.102172,-0.048461,0.664630,-0.001087,0.001958,-0.001806,0.101874,0.048442,-0.993617,-0.007209,0.008702,0.004893,14.702513,-11.300116,7.750328,,,,,,,
1512180824.245109,0.102144,-0.048507,0.664640,-0.001116,-0.002320,-0.000757,0.101847,0.048488,-0.993618,-0.008447,0.028661,0.007091,14.475142,-11.750463,7.077034,,,,,,,
1512180824.265129,0.102134,-0.048506,0.664620,-0.001067,0.004097,-0.002864,0.101836,0.048487,-0.993619,-0.001159,0.015768,-0.006442,14.403822,-11.000570,7.678017,,,,,,,
1512180824.285118,0.102117,-0.048545,0.664619,-0.001135,-0.000188,0.000315,0.101819,0.048526,-0.993619,-0.011716,0.029858,-0.000263,14.252470,-11.300802,7.679161,,,,,,,
1512180824.305107,0.102096,-0.048546,0.664598,0.001056,0.000893,-0.002846,0.101799,0.048527,-0.993621,0.001534,0.017436,-0.004701,14.027784,-11.226126,7.606102,,,,,,,
1512180824.325126,0.102047,-0.048569,0.664563,-0.002137,-0.000177,-0.002894,0.101750,0.048550,-0.993625,-0.009785,0.027866,0.005130,13.650557,-11.676702,7.234077,,,,,,,
1512180824.345115,0.102037,-0.048566,0.664537,-0.000023,0.003027,-0.001787,0.101740,0.048547,-0.993626,-0.007273,0.019873,-0.014080,14.027250,-11.301138,7.231056,,,,,,,
1512180824.365104,0.102007,-0.048585,0.664485,0.001049,0.001957,-0.002844,0.101710,0.048566,-0.993628,-0.007411,0.041537,-0.004312,14.176420,-11.450903,6.929726,,,,,,,
1512180824.385093,0.101958,-0.048598,0.664418,0.002125,0.000896,-0.002829,0.101662,0.048579,-0.993632,-0.008919,0.029592,-0.013845,13.876234,-11.526358,7.232231,,,,,,,
1512180824.405113,0.101918,-0.048633,0.664362,-0.000011,0.000890,-0.002862,0.101621,0.048614,-0.993635,-0.004667,0.039292,-0.002566,13.725142,-11.751577,7.083397,,,,,,,
1512180824.425102,0.101911,-0.048631,0.664293,0.001057,0.003029,-0.002838,0.101614,0.048612,-0.993635,-0.002844,0.032001,-0.009599,14.025145,-11.751135,7.080849,,,,,,,
1512180824.445091,0.101874,-0.048659,0.664221,0.000009,-0.000174,-0.003930,0.101578,0.048640,-0.993638,-0.017090,0.029241,-0.000091,13.725706,-11.601583,6.858467,,,,,,,
1512180824.465110,0.101868,-0.048640,0.664177,-0.001039,-0.001241,-0.005015,0.101572,0.048621,-0.993639,0.001242,0.006066,0.013811,13.874250,-11.901358,6.632072,,,,,,,
1512180824.485099,0.101855,-0.048650,0.664125,-0.002135,-0.002312,-0.002901,0.101558,0.048630,-0.993640,-0.014263,0.013091,0.024051,13.948423,-12.051260,6.331367,,,,,,,
1512180824.505088,0.101859,-0.048599,0.664068,0.002105,-0.000182,-0.002839,0.101563,0.048580,-0.993642,-0.006150,0.004658,0.003698,13.949095,-11.901251,6.331429,,,,,,,
1512180824.525077,0.101887,-0.048584,0.664029,0.001067,0.000892,-0.003913,0.101591,0.048565,-0.993640,-0.002363,0.012714,0.009128,14.098753,-11.976034,6.330116,,,,,,,
1512180824.545097,0.101897,-0.048488,0.663974,0.004236,-0.001240,-0.001741,0.101601,0.048469,-0.993644,-0.003960,0.004540,0.001304,13.722853,-12.126593,5.883247,,,,,,,
1512180824.565086,0.101903,-0.048453,0.663907,0.001051,-0.000178,-0.002851,0.101607,0.048434,-0.993645,-0.013457,0.008909,0.016502,14.097975,-12.126028,6.105049,,,,,,,
1512180824.585075,0.101919,-0.048383,0.663849,0.003195,-0.001243,-0.003891,0.101624,0.048364,-0.993647,0.007187,0.002203,0.004892,13.870726,-12.576361,5.656761,,,,,,,
1512180824.605094,0.101938,-0.048356,0.663788,-0.001078,0.001956,-0.002861,0.101643,0.048337,-0.993646,-0.006306,0.010989,0.008096,14.249815,-11.675802,5.728981,,,,,,,
1512180824.625083,0.101956,-0.048346,0.663709,0.002103,0.000910,-0.002777,0.101661,0.048327,-0.993644,0.000894,0.007368,-0.001290,14.249098,-11.825796,5.653923,,,,,,,
1512180824.645072,0.101996,-0.048329,0.663635,-0.002150,0.001990,-0.003857,0.101701,0.048310,-0.993641,-0.007890,0.001235,0.013417,14.473127,-12.050467,5.726906,,,,,,,
1512180824.665092,0.102012,-0.048323,0.663568,0.002073,0.000928,-0.002694,0.101716,0.048304,-0.993640,0.010940,0.006933,-0.007718,14.397673,-12.125570,5.502510,,,,,,,
1512180824.685081,0.102021,-0.048338,0.663504,0.000943,0.003058,0.000536,0.101725,0.048320,-0.993638,0.001364,0.008123,-0.004210,14.697935,-12.050131,5.349983,,,,,,,
1512180824.705070,0.102039,-0.048362,0.663420,0.002059,0.004139,-0.002598,0.101743,0.048343,-0.993635,-0.015973,0.014676,-0.003511,14.924131,-11.749792,5.048225,,,,,,,
1512180824.725059,0.102033,-0.048359,0.663361,-0.000048,0.002003,-0.004725,0.101737,0.048340,-0.993636,0.007027,-0.004135,0.007552,14.847303,-12.124899,4.748680,,,,,,,
1512180824.745065,0.101999,-0.048384,0.663333,0.002005,-0.002273,-0.000402,0.101703,0.048365,-0.993638,0.015744,0.011983,-0.002272,15.146925,-12.199453,4.671104,,,,,,,
1512180824.765054,0.101970,-0.048347,0.663257,0.000919,0.001999,0.000708,0.101675,0.048328,-0.993643,-0.016485,-0.001194,0.003531,15.221510,-12.274343,4.520439,,,,,,,
1512180824.785043,0.101979,-0.048374,0.663198,0.002023,0.002007,-0.002431,0.101683,0.048355,-0.993641,-0.004638,0.013946,-0.007214,15.521299,-12.348898,4.742851,,,,,,,
1512180824.805062,0.101976,-0.048338,0.663156,0.000931,-0.000136,-0.002413,0.101681,0.048320,-0.993643,0.022999,0.002996,0.002951,15.670546,-12.498663,4.591499,,,,,,,
1512180824.825051,0.101971,-0.048349,0.663119,-0.000190,-0.000137,0.000815,0.101675,0.048330,-0.993643,-0.013525,0.016383,0.000204,16.270811,-12.422766,4.436440,,,,,,,
1512180824.845040,0.102001,-0.048326,0.663053,-0.000147,0.000941,-0.002333,0.101705,0.048307,-0.993641,-0.001119,0.000796,0.000126,16.120695,-12.422995,4.212715,,,,,,,
1512180824.865029,0.102008,-0.048336,0.663018,0.004126,0.007359,-0.003270,0.101712,0.048318,-0.993640,-0.000562,0.015479,-0.020551,16.120054,-12.572989,4.287651,,,,,,,
1512180824.885049,0.102011,-0.048322,0.662993,0.000830,-0.001204,0.000958,0.101715,0.048303,-0.993640,0.001801,0.006171,-0.000302,16.342161,-13.172659,3.910454,,,,,,,
1512180824.905038,0.102008,-0.048370,0.662952,-0.003403,0.000932,-0.001183,0.101712,0.048351,-0.993638,0.003970,-0.004864,0.001908,16.565443,-13.547323,3.833366,,,,,,,
1512180824.925027,0.102037,-0.048314,0.662914,0.004003,-0.001202,0.001090,0.101742,0.048296,-0.993638,0.000904,0.005217,-0.006652,16.795500,-12.421988,3.831978,,,,,,,
1512180824.945046,0.102031,-0.048342,0.662862,0.004028,0.006274,-0.000975,0.101735,0.048323,-0.993637,0.000239,0.008134,-0.011047,17.095503,-12.421530,3.829430,,,,,,,
1512180824.965035,0.102037,-0.048341,0.662820,0.000823,-0.002275,-0.001007,0.101741,0.048322,-0.993636,0.016392,0.007876,0.000656,17.019423,-12.646643,3.679955,,,,,,,
1512180824.985024,0.102022,-0.048360,0.662780,0.003981,-0.002283,0.000143,0.101726,0.048342,-0.993637,-0.007838,0.016890,-0.007996,17.544752,-12.570852,3.675529,,,,,,,
1512180825.005044,0.102010,-0.048349,0.662738,0.001861,-0.000152,-0.000907,0.101714,0.048331,-0.993639,0.002000,0.009348,-0.012968,17.392576,-13.021078,3.376595,,,,,,,
1512180825.025033,0.102038,-0.048355,0.662693,0.005077,0.001983,-0.002948,0.101742,0.048336,-0.993636,-0.000728,0.012760,-0.011552,17.920134,-12.495291,3.747383,,,,,,,
1512180825.045022,0.102024,-0.048331,0.662631,-0.001324,-0.003376,-0.004090,0.101728,0.048313,-0.993638,-0.008833,0.001248,0.009507,18.219343,-12.644842,3.519768,,,,,,,
1512180825.065011,0.102009,-0.048342,0.662614,-0.000278,-0.003378,-0.002970,0.101713,0.048323,-0.993639,0.007525,0.004671,0.008303,18.294050,-12.719732,3.594093,,,,,,,
1512180825.085030,0.102033,-0.048325,0.662596,0.001776,0.004086,0.001384,0.101737,0.048306,-0.993638,-0.004081,0.004459,0.001053,18.443113,-12.944510,3.742714,,,,,,,
1512180825.105019,0.102000,-0.048354,0.662556,0.000716,-0.000199,-0.000749,0.101704,0.048336,-0.993640,-0.007984,0.003682,0.003192,18.669691,-12.569174,3.515968,,,,,,,
1512180825.125008,0.102027,-0.048341,0.662545,0.000712,-0.000203,-0.000715,0.101731,0.048322,-0.993638,0.005417,-0.000196,0.001923,18.744505,-12.644049,3.815300,,,,,,,
1512180825.145028,0.102028,-0.048361,0.662549,-0.002524,-0.001284,0.001398,0.101732,0.048343,-0.993636,-0.000871,0.005124,0.014022,18.970289,-12.418722,3.363487,,,,,,,
1512180825.165017,0.102031,-0.048393,0.662537,-0.001452,0.002982,0.000389,0.101735,0.048374,-0.993635,-0.010777,0.004162,-0.007815,19.044950,-12.493597,3.362816,,,,,,,
1512180825.185006,0.102028,-0.048424,0.662543,-0.000369,-0.001289,-0.000647,0.101731,0.048405,-0.993634,0.010772,0.007290,0.002270,19.195356,-12.418386,3.511574,,,,,,,
1512180825.204995,0.102057,-0.048395,0.662544,0.000626,0.005106,0.003680,0.101760,0.048376,-0.993632,-0.008071,0.003397,0.005122,19.119841,-12.568487,3.812141,,,,,,,
1512180825.225015,0.102044,-0.048427,0.662540,-0.000413,-0.001307,0.001534,0.101748,0.048408,-0.993632,-0.000277,0.005563,0.006220,19.340818,-13.393164,3.209846,,,,,,,
1512180825.245004,0.102055,-0.048435,0.662544,-0.001464,0.000824,0.000481,0.101759,0.048416,-0.993630,0.002230,-0.000778,0.001626,19.191984,-13.168386,3.511238,,,,,,,
1512180825.264993,0.102067,-0.048435,0.662533,-0.001438,0.002963,-0.000555,0.101770,0.048416,-0.993629,-0.010004,0.002868,0.003395,19.421186,-12.268042,3.809731,,,,,,,
1512180825.285012,0.102033,-0.048421,0.662537,-0.000382,-0.007720,-0.000559,0.101736,0.048403,-0.993633,0.000925,-0.007372,0.008907,19.644194,-12.717703,3.882622,,,,,,,
1512180825.305001,0.102019,-0.048414,0.662552,0.002804,-0.003444,0.000586,0.101723,0.048395,-0.993635,-0.001671,-0.002222,0.003523,19.644270,-12.717703,4.032616,,,,,,,
1512180825.324990,0.102013,-0.048397,0.662530,0.001758,0.006166,-0.000448,0.101717,0.048378,-0.993636,-0.014391,-0.014641,-0.008149,19.569502,-12.642813,3.808281,,,,,,,
1512180825.344979,0.101958,-0.048379,0.662529,0.001739,-0.001318,-0.000463,0.101662,0.048361,-0.993643,-0.002907,-0.013876,-0.006983,19.421644,-12.193045,4.034767,,,,,,,
1512180825.364999,0.101938,-0.048333,0.662531,0.001809,-0.004506,-0.003652,0.101643,0.048314,-0.993647,-0.004811,-0.021931,0.008082,19.647322,-12.042700,4.032921,,,,,,,
1512180825.384988,0.101905,-0.048318,0.662531,0.000677,-0.003452,-0.000458,0.101610,0.048300,-0.993651,-0.002367,-0.019476,0.009093,19.346403,-12.268148,4.260368,,,,,,,
1512180825.404977,0.101886,-0.048276,0.662503,-0.000379,-0.002378,-0.000455,0.101592,0.048258,-0.993655,-0.010832,-0.025537,0.006762,19.345701,-12.418158,4.185295,,,,,,,
1512180825.424996,0.101890,-0.048229,0.662454,0.003893,-0.000236,-0.001442,0.101596,0.048210,-0.993657,-0.007739,-0.027412,-0.004634,19.418715,-12.868048,4.259453,,,,,,,
1512180825.444985,0.101892,-0.048158,0.662401,0.002841,0.001900,-0.002505,0.101598,0.048140,-0.993660,-0.006109,-0.034178,0.000984,19.345884,-12.418158,4.560295,,,,,,,
1512180825.464974,0.101886,-0.048125,0.662362,0.003863,-0.001306,-0.000358,0.101592,0.048107,-0.993662,-0.003173,-0.026577,-0.000173,19.422010,-12.193045,4.784767,,,,,,,
1512180825.484994,0.101888,-0.048075,0.662305,0.000691,-0.002374,-0.002530,0.101594,0.048057,-0.993664,-0.013490,-0.033622,0.005017,19.195585,-12.493383,4.636543,,,,,,,
1512180825.504983,0.101916,-0.047995,0.662224,0.005996,0.002973,-0.001358,0.101622,0.047977,-0.993665,-0.008986,-0.037906,-0.004168,19.422544,-12.043036,4.484840,,,,,,,
1512180825.524972,0.101906,-0.047928,0.662174,0.001758,-0.003434,-0.003561,0.101613,0.047910,-0.993670,-0.006032,-0.040814,0.010729,19.270658,-12.493261,4.785896,,,,,,,
1512180825.544961,0.101898,-0.047842,0.662116,0.003874,-0.000227,-0.003508,0.101605,0.047824,-0.993675,-0.002682,-0.039966,-0.000420,19.272581,-12.043264,4.561104,,,,,,,
1512180825.564980,0.101887,-0.047767,0.662050,0.002814,-0.002359,-0.004583,0.101595,0.047749,-0.993679,-0.014223,-0.050388,0.006451,19.420286,-12.568045,4.709602,,,,,,,
1512180825.584969,0.101860,-0.047692,0.661972,0.003873,-0.002357,-0.005623,0.101569,0.047674,-0.993685,-0.003104,-0.049551,-0.001645,19.122618,-12.043493,4.637398,,,,,,,
1512180825.604958,0.101834,-0.047600,0.661889,0.003867,-0.004487,-0.004561,0.101543,0.047582,-0.993692,-0.010433,-0.048498,0.001169,18.973204,-11.968710,5.163689,,,,,,,
1512180825.624978,0.101806,-0.047497,0.661767,0.007082,-0.000215,-0.006637,0.101515,0.047479,-0.993700,-0.006652,-0.045221,-0.005567,19.196821,-12.268377,5.086632,,,,,,,
1512180825.644967,0.101815,-0.047449,0.661644,-0.001418,0.001916,-0.007817,0.101524,0.047431,-0.993702,-0.010887,-0.053229,0.000187,19.196562,-12.343374,5.236610,,,,,,,
1512180825.664956,0.101763,-0.047366,0.661508,0.009190,-0.008757,-0.005570,0.101473,0.047348,-0.993711,-0.007021,-0.047501,-0.010440,18.971937,-12.268713,5.313545,,,,,,,
1512180825.684945,0.101726,-0.047352,0.661322,0.000708,-0.005556,-0.007812,0.101437,0.047334,-0.993715,-0.003033,-0.049714,0.002519,18.973326,-11.968710,5.388695,,,,,,,
1512180825.704964,0.101702,-0.047266,0.661152,0.003902,-0.000212,-0.007749,0.101414,0.047248,-0.993722,-0.005588,-0.046699,-0.004325,18.675230,-11.594168,5.841408,,,,,,,
1512180825.724954,0.101664,-0.047237,0.660978,0.002848,0.000862,-0.007758,0.101376,0.047220,-0.993727,-0.016751,-0.051294,-0.004991,18.299437,-11.744726,5.619530,,,,,,,
1512180825.744898,0.101598,-0.047198,0.660743,0.000772,-0.005545,-0.012077,0.101311,0.047181,-0.993735,-0.006706,-0.064438,-0.003381,17.998426,-11.970175,5.621971,,,,,,,
1512180825.764917,0.101545,-0.047164,0.660509,0.001835,-0.002332,-0.010981,0.101258,0.047147,-0.993742,-0.003999,-0.052930,-0.003069,17.999968,-11.670172,5.997124,,,,,,,
1512180825.784906,0.101494,-0.047117,0.660258,-0.000298,-0.001265,-0.011009,0.101207,0.047099,-0.993750,-0.009105,-0.061687,0.000006,17.849287,-11.820395,5.998329,,,,,,,
1512180825.804895,0.101440,-0.047069,0.659992,0.007182,0.000889,-0.011959,0.101154,0.047052,-0.993757,-0.019566,-0.065271,-0.013552,17.699751,-11.745626,6.224632,,,,,,,
1512180825.824915,0.101360,-0.047077,0.659675,-0.001276,-0.004452,-0.016364,0.101074,0.047059,-0.993765,-0.017395,-0.081391,-0.005746,17.625792,-11.520742,6.300362,,,,,,,
1512180825.844904,0.101322,-0.047012,0.659343,0.007272,0.001977,-0.017284,0.101037,0.046994,-0.993772,-0.007760,-0.084973,-0.011431,17.700453,-11.595633,6.299690,,,,,,,
1512180825.864893,0.101255,-0.046955,0.658979,0.006188,-0.001226,-0.016245,0.100971,0.046938,-0.993782,-0.011585,-0.065141,-0.013405,17.325087,-11.671194,6.227852,,,,,,,
1512180825.884882,0.101221,-0.046813,0.658564,0.005177,-0.002283,-0.019460,0.100938,0.046796,-0.993791,-0.021089,-0.072873,0.005205,17.174330,-11.821417,6.079048,,,,,,,
1512180825.904901,0.101181,-0.046762,0.658093,0.006288,0.006274,-0.021546,0.100898,0.046745,-0.993798,-0.028999,-0.048362,-0.017539,16.874998,-11.671865,6.081673,,,,,,,
1512180825.924890,0.101183,-0.046774,0.657622,-0.003289,-0.002284,-0.023850,0.100900,0.046757,-0.993797,-0.000818,-0.042851,0.019691,17.251127,-11.446295,6.303596,,,,,,,
1512180825.944879,0.101244,-0.046816,0.657139,-0.000064,0.007339,-0.024835,0.100961,0.046799,-0.993789,-0.012612,-0.026230,-0.010438,16.874067,-11.896872,6.231575,,,,,,,
1512180825.964899,0.101275,-0.046998,0.656624,-0.009628,0.001986,-0.027125,0.100990,0.046981,-0.993777,-0.016853,-0.018660,0.008990,16.950453,-11.596746,6.306068,,,,,,,
1512180825.984888,0.101341,-0.047187,0.656072,-0.011720,0.007328,-0.029269,0.101055,0.047169,-0.993762,-0.038738,-0.032506,0.002520,16.874891,-11.746862,6.531639,,,,,,,
1512180826.004877,0.101313,-0.047433,0.655497,-0.007428,0.001997,-0.031358,0.101026,0.047415,-0.993753,-0.014509,-0.036093,-0.018057,16.497496,-12.272436,6.459587,,,,,,,
1512180826.024866,0.101275,-0.047648,0.654928,-0.008491,-0.003342,-0.031390,0.100987,0.047630,-0.993747,-0.010731,-0.058326,0.009235,16.725904,-11.522085,6.533028,,,,,,,
1512180826.044885,0.101255,-0.047781,0.654312,-0.002092,0.002008,-0.031279,0.100966,0.047763,-0.993743,-0.033294,-0.071399,0.003981,16.575483,-11.597311,6.384270,,,,,,,
1512180826.064874,0.101132,-0.047849,0.653658,0.003250,-0.003323,-0.032286,0.100844,0.047831,-0.993752,-0.020781,-0.073329,-0.024803,16.424635,-11.822531,6.685432,,,,,,,
1512180826.084863,0.101082,-0.047833,0.652966,0.002252,-0.004385,-0.036569,0.100794,0.047814,-0.993758,-0.010264,-0.076089,0.007765,16.652021,-11.297201,6.758751,,,,,,,
1512180826.104883,0.101039,-0.047759,0.652230,0.005481,0.003104,-0.037560,0.100752,0.047741,-0.993765,-0.024581,-0.084759,-0.009027,16.125334,-11.672979,6.763039,,,,,,,
1512180826.124872,0.101012,-0.047670,0.651451,0.008688,0.000971,-0.038588,0.100726,0.047652,-0.993772,-0.015094,-0.074142,-0.021761,15.976240,-11.448202,6.539436,,,,,,,
1512180826.144861,0.101098,-0.047590,0.650610,0.004497,0.004177,-0.042903,0.100812,0.047572,-0.993767,-0.020505,-0.070719,0.006890,16.276243,-11.447760,6.536888,,,,,,,
1512180826.164880,0.101166,-0.047520,0.649736,0.003483,0.008460,-0.045031,0.100880,0.047502,-0.993764,-0.027424,-0.068666,-0.007106,16.203047,-11.072866,6.762688,,,,,,,
1512180826.184869,0.101220,-0.047556,0.648825,0.002435,0.002047,-0.047204,0.100933,0.047538,-0.993757,-0.008236,-0.054984,-0.022616,15.975340,-11.673208,6.764320,,,,,,,
1512180826.204858,0.101307,-0.047654,0.647892,-0.003964,0.004170,-0.047291,0.101019,0.047636,-0.993743,-0.031454,-0.057859,0.007690,16.051344,-11.448095,6.763786,,,,,,,
1512180826.224847,0.101326,-0.047760,0.646927,-0.001812,0.005245,-0.048321,0.101038,0.047742,-0.993736,-0.041635,-0.064801,0.002403,15.599546,-11.823782,6.542442,,,,,,,
1512180826.244867,0.101292,-0.047912,0.645954,-0.001747,-0.001156,-0.052607,0.101003,0.047894,-0.993733,-0.013479,-0.061932,-0.018841,15.525312,-11.673880,6.693153,,,,,,,
1512180826.264856,0.101307,-0.048089,0.644969,-0.004960,0.002041,-0.051576,0.101017,0.048071,-0.993723,-0.020969,-0.067312,0.007822,15.902067,-11.298315,6.840126,,,,,,,
1512180826.284845,0.101282,-0.048223,0.643910,-0.004974,0.004177,-0.050503,0.100991,0.048204,-0.993719,-0.039819,-0.080660,0.015539,15.676695,-11.373648,6.767006,,,,,,,
1512180826.304865,0.101289,-0.048338,0.642831,-0.000633,0.004189,-0.055772,0.100998,0.048319,-0.993712,-0.020538,-0.077784,-0.002915,15.603010,-11.073767,6.692787,,,,,,,
1512180826.324854,0.101291,-0.048466,0.641718,0.002584,0.000994,-0.056802,0.100999,0.048447,-0.993706,-0.012452,-0.067643,-0.006431,15.527586,-11.148886,6.543388,,,,,,,
1512180826.344843,0.101307,-0.048539,0.640526,0.000508,0.005269,-0.060015,0.101015,0.048520,-0.993701,-0.034639,-0.076566,0.009524,15.452620,-11.148993,6.619026,,,,,,,
1512180826.364832,0.101390,-0.048599,0.639279,0.004860,0.008490,-0.065272,0.101097,0.048580,-0.993690,-0.017051,-0.065319,-0.014794,15.527372,-11.223883,6.768349,,,,,,,
1512180826.384851,0.101468,-0.048691,0.637990,0.001686,0.010626,-0.066375,0.101174,0.048671,-0.993677,-0.017357,-0.054912,-0.016012,15.450560,-11.523993,5.868858,,,,,,,
1512180826.404840,0.101510,-0.048788,0.636623,-0.000411,0.006356,-0.068552,0.101215,0.048769,-0.993668,-0.025394,-0.050173,-0.003966,15.449369,-11.823996,6.168724,,,,,,,
1512180826.424829,0.101561,-0.048919,0.635238,-0.001484,0.006350,-0.068569,0.101266,0.048900,-0.993657,-0.014550,-0.043941,-0.014995,15.525602,-11.598883,6.618187,,,,,,,
1512180826.444849,0.101569,-0.049110,0.633807,-0.003555,0.002086,-0.071810,0.101272,0.049090,-0.993647,-0.032302,-0.036120,-0.002126,15.826658,-11.373434,6.690742,,,,,,,
1512180826.464838,0.101590,-0.049304,0.632358,-0.004559,0.004232,-0.075013,0.101292,0.049284,-0.993635,-0.010639,-0.034101,-0.002275,15.677397,-11.223654,6.842079,,,,,,,
1512180826.484827,0.101584,-0.049558,0.630913,-0.003540,0.004223,-0.072869,0.101285,0.049538,-0.993623,-0.018246,-0.025795,-0.014571,15.453108,-11.073996,6.919060,,,,,,,
1512180826.504816,0.101594,-0.049818,0.629436,-0.008851,0.002082,-0.074019,0.101293,0.049798,-0.993609,-0.032934,-0.036156,0.020724,15.453718,-10.923986,6.769127,,,,,,,
1512180826.524835,0.101639,-0.050070,0.627946,-0.006658,0.007427,-0.078236,0.101337,0.050049,-0.993592,-0.018375,-0.036850,0.006562,15.228254,-10.999334,6.546013,,,,,,,
1512180826.544824,0.101649,-0.050378,0.626447,-0.008805,0.002085,-0.077218,0.101345,0.050357,-0.993576,-0.009014,-0.036395,-0.000366,15.227842,-11.074331,6.395973,,,,,,,
1512180826.564813,0.101675,-0.050606,0.624903,-0.006685,0.003156,-0.076116,0.101370,0.050585,-0.993562,-0.028036,-0.038881,0.014665,15.078077,-10.999548,6.172295,,,,,,,
1512180826.584833,0.101672,-0.050860,0.623300,-0.002352,0.006374,-0.080307,0.101366,0.050839,-0.993549,-0.031099,-0.032482,-0.007793,15.378492,-10.924109,6.319771,,,,,,,
1512180826.604822,0.101620,-0.051101,0.621671,-0.004389,0.002114,-0.085680,0.101313,0.051078,-0.993542,-0.013773,-0.032478,-0.005588,14.852919,-11.074896,6.549171,,,,,,,
1512180826.624811,0.101570,-0.051330,0.620020,-0.004415,0.002107,-0.084616,0.101262,0.051308,-0.993536,-0.016668,-0.027336,-0.004648,15.155333,-10.549444,6.621864,,,,,,,
1512180826.644830,0.101543,-0.051568,0.618282,-0.004371,0.006388,-0.086731,0.101233,0.051546,-0.993526,-0.040076,-0.023210,-0.002842,15.003599,-10.924673,6.547966,,,,,,,
1512180826.664819,0.101545,-0.051830,0.616510,-0.002170,0.006399,-0.090964,0.101234,0.051807,-0.993513,-0.019585,-0.013934,-0.004458,15.003935,-10.849676,6.547997,,,,,,,
1512180826.684808,0.101627,-0.052079,0.614714,-0.005350,0.008532,-0.092069,0.101315,0.052055,-0.993492,-0.014721,-0.014701,0.007041,14.778944,-10.850012,6.549904,,,,,,,
1512180826.704797,0.101688,-0.052369,0.612868,-0.004288,0.009599,-0.092051,0.101374,0.052346,-0.993470,-0.030787,-0.004494,0.001908,14.479094,-10.775457,6.177498,,,,,,,
1512180826.724817,0.101746,-0.052671,0.610979,-0.007430,0.006399,-0.095304,0.101430,0.052647,-0.993449,-0.036397,-0.009174,-0.001608,15.006300,-10.324667,6.548241,,,,,,,
1512180826.744793,0.101791,-0.052985,0.609096,-0.005275,0.008543,-0.096331,0.101473,0.052960,-0.993428,-0.016924,-0.001416,-0.003505,14.854490,-10.699896,6.324333,,,,,,,
1512180826.764782,0.101788,-0.053323,0.607188,-0.007402,0.007467,-0.097434,0.101468,0.053298,-0.993410,-0.030774,-0.015181,-0.004973,14.854490,-10.699896,6.324333,,,,,,,
1512180826.784802,0.101809,-0.053615,0.605224,-0.003116,0.005343,-0.098444,0.101487,0.053590,-0.993392,-0.021562,-0.007661,-0.003373,14.931486,-10.249777,6.248909,,,,,,,
1512180826.804791,0.101830,-0.053920,0.603287,-0.005260,0.009611,-0.097394,0.101507,0.053894,-0.993374,-0.025991,-0.022873,-0.001057,14.705732,-10.400122,6.100746,,,,,,,
1512180826.824780,0.101829,-0.054219,0.601324,-0.002023,0.008555,-0.099481,0.101504,0.054192,-0.993358,-0.026461,-0.017540,-0.002766,14.929655,-10.624777,5.948738,,,,,,,
1512180826.844769,0.101905,-0.054464,0.599324,-0.001999,0.006418,-0.101623,0.101578,0.054437,-0.993337,-0.013733,-0.024637,0.004949,14.704954,-10.550116,5.875679,,,,,,,
1512180826.864788,0.102026,-0.054667,0.597280,0.003323,0.016039,-0.100445,0.101697,0.054640,-0.993314,-0.030729,-0.020918,-0.007022,14.780592,-10.400000,5.800117,,,,,,,
1512180826.884777,0.102117,-0.054830,0.595171,0.002342,0.012843,-0.105801,0.101786,0.054803,-0.993296,-0.034465,-0.030114,-0.007605,14.629728,-10.625235,6.101280,,,,,,,
1512180826.904766,0.102264,-0.054965,0.593029,0.003452,0.010711,-0.108993,0.101932,0.054937,-0.993273,-0.012317,-0.023214,0.016360,15.229948,-10.549337,5.871223,,,,,,,
1512180826.924786,0.102340,-0.055028,0.590826,0.007730,0.010718,-0.109997,0.102006,0.055000,-0.993262,-0.033891,-0.037666,0.004782,15.231153,-10.249319,5.571358,,,,,,,
1512180826.944775,0.102399,-0.055112,0.588581,0.006722,0.008590,-0.113216,0.102065,0.055084,-0.993251,-0.033752,-0.023590,0.007488,14.781523,-10.175009,5.650215,,,,,,,
1512180826.964764,0.102471,-0.055164,0.586305,0.006724,0.007516,-0.114289,0.102136,0.055136,-0.993241,-0.016260,-0.032660,0.006272,15.080885,-10.324545,5.722603,,,,,,,
1512180826.984783,0.102468,-0.055224,0.583942,0.011041,0.009673,-0.116347,0.102133,0.055196,-0.993238,-0.047720,-0.025182,0.007490,15.079756,-10.549551,5.497490,,,,,,,
1512180827.004772,0.102449,-0.055302,0.581538,0.004737,0.003268,-0.121789,0.102113,0.055273,-0.993236,-0.022112,-0.031592,0.008128,15.377668,-10.999105,5.344734,,,,,,,
1512180827.024761,0.102440,-0.055367,0.579098,0.011163,0.007551,-0.123815,0.102104,0.055339,-0.993233,-0.015541,-0.020137,-0.006858,15.457121,-10.023993,5.494545,,,,,,,
1512180827.044750,0.102378,-0.055424,0.576565,0.008004,0.005417,-0.125999,0.102043,0.055396,-0.993236,-0.045204,-0.035147,0.009212,15.456419,-10.173986,5.419487,,,,,,,
1512180827.064770,0.102281,-0.055506,0.574005,0.008006,-0.003131,-0.127097,0.101946,0.055477,-0.993242,-0.010103,-0.019360,0.014177,15.754911,-10.473547,5.116798,,,,,,,
1512180827.084759,0.102210,-0.055598,0.571440,0.009063,0.004347,-0.125989,0.101874,0.055569,-0.993244,-0.023215,-0.030636,0.000324,15.680632,-10.323645,5.192497,,,,,,,
1512180827.104748,0.102056,-0.055665,0.568811,0.012317,0.002217,-0.130217,0.101722,0.055636,-0.993256,-0.039130,-0.028521,-0.001373,15.905973,-10.248312,5.190620,,,,,,,
1512180827.124767,0.101920,-0.055748,0.566130,0.008112,0.001153,-0.133478,0.101585,0.055720,-0.993265,-0.029198,-0.030298,-0.004141,15.832243,-9.948431,5.041405,,,,,,,
1512180827.144756,0.101826,-0.055836,0.563443,0.009182,0.005428,-0.133447,0.101491,0.055807,-0.993270,-0.040761,-0.037268,0.009551,15.908476,-9.648306,4.815910,,,,,,,
1512180827.164745,0.101653,-0.055943,0.560681,0.010304,0.001166,-0.136642,0.101319,0.055914,-0.993281,-0.047059,-0.039511,-0.013433,15.831038,-10.173422,4.666298,,,,,,,
1512180827.184734,0.101569,-0.056015,0.557876,0.008251,0.000101,-0.142008,0.101236,0.055986,-0.993286,-0.025079,-0.037172,0.004699,15.906187,-10.173315,4.965660,,,,,,,
1512180827.204754,0.101441,-0.056099,0.555044,0.009323,0.005445,-0.141973,0.101108,0.056070,-0.993294,-0.059115,-0.038232,-0.008506,16.131834,-10.022970,4.888817,,,,,,,
1512180827.224743,0.101267,-0.056172,0.552152,0.009415,-0.003085,-0.147329,0.100935,0.056142,-0.993308,-0.027891,-0.047338,0.002219,16.206114,-10.172873,4.813118,,,,,,,
1512180827.244732,0.101186,-0.056277,0.549216,0.009450,0.003326,-0.149440,0.100853,0.056248,-0.993310,-0.025322,-0.031315,-0.002341,16.732801,-9.797079,4.808815,,,,,,,
1512180827.264751,0.101020,-0.056395,0.546218,0.008363,0.002253,-0.148394,0.100688,0.056365,-0.993320,-0.057674,-0.039488,-0.010891,16.434752,-9.347525,4.661583,,,,,,,
1512180827.284740,0.100898,-0.056494,0.543160,0.010557,0.002261,-0.152628,0.100567,0.056464,-0.993327,-0.028621,-0.030067,-0.007009,16.582350,-9.872290,4.585060,,,,,,,
1512180827.304729,0.100812,-0.056637,0.540098,0.006305,0.004396,-0.152680,0.100480,0.056607,-0.993327,-0.031022,-0.030453,-0.003636,16.509047,-9.497412,4.585869,,,,,,,
1512180827.324749,0.100759,-0.056733,0.536978,0.011678,0.009744,-0.155785,0.100427,0.056702,-0.993327,-0.043298,-0.022004,-0.010884,16.581755,-9.947302,4.060020,,,,,,,
1512180827.344738,0.100714,-0.056853,0.533828,0.009588,0.005478,-0.157960,0.100381,0.056822,-0.993325,-0.032266,-0.023573,-0.011451,16.810163,-9.196951,4.133461,,,,,,,
1512180827.364727,0.100679,-0.056947,0.530676,0.010644,0.007617,-0.156870,0.100346,0.056916,-0.993323,-0.046131,-0.023973,0.004416,17.035505,-9.121618,4.131584,,,,,,,
1512180827.384716,0.100579,-0.057041,0.527465,0.010708,0.007622,-0.161134,0.100246,0.057010,-0.993328,-0.044261,-0.022052,-0.015278,16.959639,-9.346731,4.432121,,,,,,,
1512180827.404736,0.100493,-0.057094,0.524250,0.011804,0.002286,-0.163269,0.100161,0.057063,-0.993334,-0.019625,-0.027507,0.005556,16.809523,-9.346960,4.208397,,,,,,,
1512180827.424725,0.100417,-0.057176,0.520994,0.012894,0.008700,-0.164297,0.100085,0.057145,-0.993336,-0.035159,-0.028779,-0.010265,16.883894,-9.496847,4.282692,,,,,,,
1512180827.444714,0.100337,-0.057231,0.517689,0.015026,0.007636,-0.164269,0.100005,0.057200,-0.993341,-0.031157,-0.034983,0.004648,16.733625,-9.572073,4.433922,,,,,,,
1512180827.464733,0.100245,-0.057310,0.514337,0.013937,0.007629,-0.163221,0.099913,0.057279,-0.993346,-0.036268,-0.031369,-0.006150,17.033552,-9.571630,4.281380,,,,,,,
1512180827.484722,0.100156,-0.057378,0.510936,0.012952,0.007634,-0.168567,0.099824,0.057346,-0.993351,-0.027284,-0.039020,0.002751,17.035734,-9.121618,4.581581,,,,,,,
1512180827.504711,0.100016,-0.057475,0.507526,0.009813,0.000164,-0.171834,0.099685,0.057444,-0.993360,-0.020568,-0.037897,0.003110,17.183561,-9.571402,4.280113,,,,,,,
1512180827.524700,0.099865,-0.057570,0.504074,0.009829,-0.000902,-0.172904,0.099534,0.057538,-0.993369,-0.027665,-0.047544,0.014930,17.184538,-9.346395,4.205208,,,,,,,
1512180827.544720,0.099706,-0.057673,0.500585,0.009812,0.003367,-0.171823,0.099375,0.057641,-0.993379,-0.045176,-0.038857,0.006639,17.184263,-9.421408,4.355171,,,,,,,
1512180827.564709,0.099504,-0.057823,0.497084,0.006724,0.000174,-0.178274,0.099174,0.057790,-0.993391,-0.036277,-0.039495,0.010923,17.181425,-10.021399,4.054893,,,,,,,
1512180827.584698,0.099344,-0.057987,0.493589,0.008846,0.002307,-0.178239,0.099014,0.057954,-0.993397,-0.015564,-0.030595,0.005665,17.110624,-9.121511,4.355949,,,,,,,
1512180827.604717,0.099108,-0.058173,0.490075,0.006640,-0.000910,-0.174018,0.098779,0.058140,-0.993409,-0.048669,-0.034214,0.002229,17.111403,-8.971502,4.581017,,,,,,,
1512180827.624706,0.098911,-0.058339,0.486548,0.008838,-0.000893,-0.177181,0.098582,0.058306,-0.993419,-0.031962,-0.036089,0.006878,17.110624,-9.121511,4.355949,,,,,,,
1512180827.644695,0.098674,-0.058547,0.483020,0.005645,-0.000902,-0.178297,0.098345,0.058513,-0.993431,-0.027727,-0.034328,0.000129,17.262053,-8.821280,4.504814,,,,,,,
1512180827.664684,0.098417,-0.058763,0.479470,0.006711,0.000174,-0.177207,0.098089,0.058729,-0.993443,-0.041555,-0.026731,-0.003475,17.186064,-9.046392,4.580345,,,,,,,
1512180827.684704,0.098278,-0.058986,0.475879,0.005691,0.005515,-0.180404,0.097949,0.058952,-0.993444,-0.041248,-0.023307,0.001165,17.486677,-8.895941,4.427864,,,,,,,
1512180827.704693,0.098186,-0.059175,0.472301,0.006747,0.006586,-0.179317,0.097857,0.059141,-0.993442,-0.033922,-0.034483,0.007587,17.413435,-8.521048,4.578682,,,,,,,
1512180827.724682,0.098008,-0.059425,0.468622,0.005736,0.003381,-0.183611,0.097678,0.059390,-0.993444,-0.051398,-0.019595,-0.002405,17.638319,-8.520712,4.351768,,,,,,,
1512180827.744701,0.097866,-0.059617,0.464899,0.006865,0.001259,-0.186797,0.097536,0.059582,-0.993447,-0.053743,-0.028836,0.000710,17.486631,-8.895941,4.352867,,,,,,,
1512180827.764669,0.097683,-0.059805,0.461143,0.011212,0.001274,-0.192065,0.097353,0.059770,-0.993453,-0.021303,-0.015992,-0.020676,17.262877,-8.596273,4.129921,,,,,,,
1512180827.784658,0.097404,-0.060012,0.457346,0.004793,-0.000877,-0.191101,0.097075,0.059976,-0.993468,-0.049941,-0.033868,0.005889,17.266661,-7.771276,4.280296,,,,,,,
1512180827.804678,0.097119,-0.060193,0.453471,0.010121,-0.005140,-0.191038,0.096791,0.060156,-0.993485,-0.048283,-0.025031,0.011063,17.264036,-8.371283,4.430016,,,,,,,
1512180827.824667,0.096868,-0.060421,0.449601,0.004886,0.001272,-0.196421,0.096540,0.060384,-0.993496,-0.025709,-0.035954,0.002392,17.339293,-8.296164,4.279427,,,,,,,
1512180827.844656,0.096661,-0.060605,0.445674,0.010232,0.007696,-0.196318,0.096334,0.060568,-0.993505,-0.045552,-0.026113,-0.009593,17.714109,-8.370596,4.576195,,,,,,,
1512180827.864645,0.096520,-0.060849,0.441693,0.007021,0.003413,-0.196383,0.096192,0.060811,-0.993503,-0.047089,-0.026647,0.004017,17.713285,-8.520605,4.276131,,,,,,,
1512180827.884665,0.096421,-0.061030,0.437706,0.010239,0.009828,-0.197380,0.096093,0.060992,-0.993502,-0.049187,-0.029513,0.004473,17.417067,-7.696051,4.429054,,,,,,,
1512180827.904654,0.096287,-0.061306,0.433701,0.008141,0.009828,-0.199543,0.095957,0.061268,-0.993498,-0.047770,-0.023396,-0.015474,17.715986,-7.920599,4.276405,,,,,,,
1512180827.924643,0.096265,-0.061509,0.429695,0.008189,0.010907,-0.201668,0.095935,0.061470,-0.993488,-0.034656,-0.026085,0.005176,17.641737,-7.770712,4.427101,,,,,,,
1512180827.944662,0.096256,-0.061732,0.425685,0.010295,0.015175,-0.200559,0.095924,0.061693,-0.993475,-0.030708,-0.028688,-0.013041,17.642714,-7.545706,4.352211,,,,,,,
1512180827.964651,0.096245,-0.061872,0.421664,0.010240,0.013031,-0.197370,0.095912,0.061832,-0.993467,-0.062739,-0.029117,-0.006258,17.718016,-7.470602,4.276619,,,,,,,
1512180827.984640,0.096273,-0.061997,0.417610,0.015629,0.015186,-0.200480,0.095940,0.061958,-0.993457,-0.029000,-0.020652,-0.014249,17.641920,-7.695715,4.127144,,,,,,,
1512180828.004629,0.096363,-0.062110,0.413581,0.012449,0.020521,-0.201575,0.096029,0.062071,-0.993441,-0.041280,-0.025404,-0.014463,17.414000,-8.371054,4.353752,,,,,,,
1512180828.024649,0.096455,-0.062204,0.409523,0.018853,0.020536,-0.201480,0.096119,0.062164,-0.993427,-0.031910,-0.014236,-0.027951,18.018461,-7.395147,4.499092,,,,,,,
1512180828.044638,0.096635,-0.062330,0.405474,0.011335,0.024787,-0.198378,0.096297,0.062290,-0.993402,-0.076202,-0.022739,-0.011390,17.795073,-7.020483,4.351189,,,,,,,
1512180828.064627,0.096840,-0.062466,0.401335,0.009349,0.024796,-0.208004,0.096500,0.062425,-0.993373,-0.064259,-0.032625,-0.008565,17.795256,-7.020483,4.726189,,,,,,,
1512180828.084646,0.097062,-0.062647,0.397167,0.010518,0.022681,-0.213321,0.096720,0.062606,-0.993341,-0.029520,-0.025161,-0.031165,17.868803,-7.320364,4.500404,,,,,,,
1512180828.104635,0.097371,-0.062839,0.392963,0.006182,0.026936,-0.209106,0.097025,0.062798,-0.993299,-0.045130,-0.023278,0.012876,17.795973,-6.870474,4.801247,,,,,,,
1512180828.124624,0.097642,-0.063127,0.388696,0.010485,0.033356,-0.211153,0.097293,0.063085,-0.993254,-0.067554,-0.032293,-0.020158,17.570753,-6.870810,4.353157,,,,,,,
1512180828.144644,0.097980,-0.063333,0.384412,0.006232,0.029076,-0.212297,0.097628,0.063290,-0.993208,-0.049746,-0.035764,0.020506,18.172132,-6.569921,4.423195,,,,,,,
1512180828.164633,0.098279,-0.063619,0.380114,0.011646,0.034440,-0.216462,0.097923,0.063576,-0.993161,-0.042442,-0.024956,-0.014728,17.646116,-6.795706,4.427559,,,,,,,
1512180828.184622,0.098683,-0.063840,0.375811,0.012682,0.036568,-0.215377,0.098322,0.063797,-0.993108,-0.048884,-0.030594,-0.002452,17.946196,-6.795263,4.575005,,,,,,,
1512180828.204611,0.099223,-0.063970,0.371505,0.014783,0.044044,-0.213188,0.098857,0.063926,-0.993046,-0.056209,-0.038078,0.011982,17.872313,-6.570364,4.800743,,,,,,,
1512180828.224630,0.099752,-0.064130,0.367218,0.016930,0.039777,-0.214238,0.099382,0.064086,-0.992983,-0.047899,-0.039886,-0.008161,17.720930,-6.870596,4.726891,,,,,,,
1512180828.244619,0.100369,-0.064206,0.362929,0.011635,0.039773,-0.216447,0.099995,0.064162,-0.992917,-0.048664,-0.036864,0.017591,17.873671,-6.270361,4.800880,,,,,,,
1512180828.264608,0.100906,-0.064338,0.358646,0.019074,0.044058,-0.214190,0.100526,0.064293,-0.992855,-0.048845,-0.024697,-0.021427,17.873335,-6.345358,4.800850,,,,,,,
1512180828.284628,0.101375,-0.064441,0.354314,0.014841,0.035511,-0.216412,0.100991,0.064396,-0.992801,-0.050515,-0.021412,-0.006390,17.723524,-6.345587,5.177116,,,,,,,
1512180828.304617,0.101923,-0.064507,0.349965,0.017018,0.037652,-0.219574,0.101535,0.064462,-0.992741,-0.010898,-0.028054,-0.003139,17.873335,-6.345358,4.800850,,,,,,,
1512180828.324606,0.102357,-0.064670,0.345594,0.019136,0.041926,-0.218462,0.101965,0.064625,-0.992687,-0.026282,-0.037877,-0.044362,17.799910,-5.970480,4.576668,,,,,,,
1512180828.344595,0.102799,-0.064699,0.341157,0.013837,0.032310,-0.220704,0.102403,0.064654,-0.992640,-0.052141,-0.036319,-0.008276,17.876143,-5.745352,5.026131,,,,,,,
1512180828.364614,0.103222,-0.064750,0.336724,0.023490,0.032335,-0.223760,0.102823,0.064705,-0.992593,0.006353,-0.025795,-0.020041,18.101103,-5.745016,4.949211,,,,,,,
1512180828.384604,0.103621,-0.064787,0.332327,0.021289,0.036595,-0.219513,0.103219,0.064742,-0.992549,-0.020776,-0.040480,-0.024678,17.351042,-5.746145,4.805595,,,,,,,
1512180828.404593,0.104044,-0.064706,0.327905,0.023357,0.030179,-0.216309,0.103639,0.064661,-0.992511,-0.036760,-0.051279,0.020816,17.501371,-5.745916,5.479317,,,,,,,
1512180828.424612,0.104399,-0.064615,0.323470,0.032990,0.034472,-0.218286,0.103992,0.064570,-0.992480,-0.029392,-0.031733,-0.037763,17.727613,-5.445578,5.252541,,,,,,,
1512180828.444601,0.104702,-0.064482,0.319117,0.028722,0.030192,-0.218363,0.104294,0.064437,-0.992457,-0.020035,-0.030685,-0.016195,17.577833,-5.445807,5.703819,,,,,,,
1512180828.464590,0.104932,-0.064296,0.314787,0.032875,0.025912,-0.211922,0.104523,0.064252,-0.992445,-0.026764,-0.037366,-0.005358,17.879148,-5.145346,5.626411,,,,,,,
1512180828.484610,0.105049,-0.064166,0.310411,0.032887,0.020580,-0.211936,0.104640,0.064122,-0.992441,-0.064784,-0.043096,-0.013281,17.879148,-5.145346,5.626411,,,,,,,
1512180828.504599,0.105147,-0.063940,0.306050,0.028681,0.015236,-0.216283,0.104739,0.063897,-0.992445,-0.044711,-0.034905,0.021879,17.880461,-4.845343,5.551537,,,,,,,
1512180828.524588,0.105143,-0.063729,0.301721,0.035106,0.013112,-0.218330,0.104737,0.063685,-0.992459,0.006485,-0.034556,-0.010166,17.880537,-4.845343,5.701546,,,,,,,
1512180828.544577,0.105075,-0.063568,0.297360,0.030770,0.010960,-0.214136,0.104670,0.063525,-0.992476,-0.033106,-0.042025,0.001387,17.654402,-5.070684,5.478355,,,,,,,
1512180828.564596,0.105076,-0.063403,0.292945,0.024359,0.010949,-0.213163,0.104672,0.063360,-0.992486,-0.061123,-0.037817,0.032373,17.727690,-5.445578,5.402534,,,,,,,
1512180828.584585,0.105152,-0.063236,0.288530,0.033021,0.021661,-0.220461,0.104748,0.063194,-0.992489,-0.019238,-0.047737,-0.016895,18.108274,-4.245016,5.774910,,,,,,,
1512180828.604574,0.105147,-0.063137,0.284131,0.025527,0.009894,-0.219546,0.104744,0.063095,-0.992496,-0.020454,-0.050156,0.014011,18.105680,-4.845007,5.999626,,,,,,,
1512180828.624594,0.105147,-0.063049,0.279700,0.020165,0.013086,-0.217481,0.104745,0.063007,-0.992501,-0.083581,-0.049671,0.029824,17.731428,-4.695578,6.152885,,,,,,,
1512180828.644583,0.105129,-0.062961,0.275244,0.030941,0.014189,-0.223714,0.104728,0.062919,-0.992509,-0.030875,-0.029396,-0.021179,17.731703,-4.620581,6.002922,,,,,,,
1512180828.664572,0.105075,-0.062926,0.270841,0.022387,0.007762,-0.222796,0.104674,0.062884,-0.992516,-0.013564,-0.044528,-0.001441,17.731276,-4.695578,5.852882,,,,,,,
1512180828.684561,0.105040,-0.062878,0.266410,0.021217,0.012019,-0.216402,0.104640,0.062837,-0.992523,-0.059367,-0.045549,0.015136,18.034132,-4.095114,6.150612,,,,,,,
1512180828.704580,0.104982,-0.062896,0.261934,0.025534,0.017372,-0.219520,0.104582,0.062855,-0.992528,-0.052825,-0.043003,-0.025920,17.883909,-4.170340,6.376854,,,,,,,
1512180828.724569,0.104973,-0.062909,0.257476,0.022440,0.014175,-0.225972,0.104573,0.062868,-0.992528,-0.027272,-0.034029,-0.006984,18.111128,-3.645010,6.075188,,,,,,,
1512180828.744558,0.104859,-0.062907,0.253044,0.021272,0.008824,-0.219609,0.104460,0.062865,-0.992540,-0.050718,-0.034270,-0.013197,17.960188,-3.870230,6.226357,,,,,,,
1512180828.764564,0.104727,-0.062913,0.248567,0.023427,0.005622,-0.221724,0.104329,0.062872,-0.992554,-0.042973,-0.039633,-0.016236,18.110868,-3.720007,6.225151,,,,,,,
1512180828.784553,0.104594,-0.062969,0.244080,0.018153,0.006689,-0.224994,0.104197,0.062927,-0.992564,-0.033183,-0.032608,-0.010457,18.334990,-3.944662,6.523140,,,,,,,
1512180828.804542,0.104442,-0.062945,0.239624,0.020238,0.009893,-0.221754,0.104045,0.062903,-0.992581,-0.054958,-0.051688,0.005017,17.961271,-3.645224,6.376457,,,,,,,
1512180828.824561,0.104382,-0.062891,0.235170,0.028779,0.010974,-0.222693,0.103987,0.062850,-0.992591,-0.016584,-0.040770,-0.029428,18.112700,-3.345007,6.525322,,,,,,,
1512180828.844550,0.104393,-0.062835,0.230738,0.022350,0.014164,-0.220644,0.103998,0.062793,-0.992593,-0.017252,-0.034198,-0.003119,18.263075,-3.269781,6.599083,,,,,,,
1512180828.864539,0.104384,-0.062708,0.226327,0.028599,0.016289,-0.212019,0.103989,0.062667,-0.992602,-0.075944,-0.054412,0.010546,18.185972,-3.719885,6.449516,,,,,,,
1512180828.884528,0.104394,-0.062505,0.221925,0.033965,0.009896,-0.214094,0.104001,0.062464,-0.992614,-0.034696,-0.044596,-0.010209,18.487364,-3.419439,6.522102,,,,,,,
1512180828.904548,0.104436,-0.062300,0.217575,0.033986,0.014170,-0.215145,0.104044,0.062259,-0.992622,-0.026361,-0.052463,0.000877,18.340284,-2.819662,6.973640,,,,,,,
1512180828.924537,0.104472,-0.062041,0.213265,0.033951,0.017370,-0.213002,0.104081,0.062001,-0.992634,-0.057420,-0.038579,0.003834,18.717878,-2.219091,6.745735,,,,,,,
1512180828.944526,0.104556,-0.061765,0.208947,0.037203,0.013111,-0.216167,0.104167,0.061726,-0.992642,-0.017390,-0.040928,-0.004535,18.792906,-2.218985,6.820091,,,,,,,
1512180828.964546,0.104595,-0.061502,0.204657,0.041384,0.015245,-0.210768,0.104207,0.061463,-0.992655,-0.016652,-0.049409,-0.022803,19.016371,-2.593649,7.118019,,,,,,,
1512180828.984535,0.104517,-0.061230,0.200346,0.031723,0.010952,-0.206657,0.104132,0.061191,-0.992679,-0.076056,-0.059314,0.024982,19.018019,-2.218649,7.043175,,,,,,,
1512180829.004524,0.104466,-0.060988,0.195999,0.034004,0.007766,-0.216231,0.104082,0.060950,-0.992699,-0.041308,-0.057318,0.019463,19.016188,-2.593649,6.743019,,,,,,,
1512180829.024513,0.104265,-0.060818,0.191661,0.034046,0.005631,-0.219439,0.103884,0.060781,-0.992730,0.000562,-0.050450,-0.011985,19.018095,-2.218649,7.193184,,,,,,,
1512180829.044532,0.103996,-0.060688,0.187294,0.026529,0.002416,-0.215291,0.103617,0.060651,-0.992766,-0.043879,-0.049924,0.010482,19.392393,-2.368078,7.114922,,,,,,,
1512180829.064521,0.103744,-0.060554,0.182931,0.026494,-0.004002,-0.214250,0.103368,0.060517,-0.992800,-0.030920,-0.070542,0.024569,19.243437,-2.143301,7.191307,,,,,,,
1512180829.084510,0.103410,-0.060452,0.178625,0.026520,-0.002928,-0.215310,0.103037,0.060416,-0.992841,0.013082,-0.063040,0.006559,19.320097,-1.768194,7.115837,,,,,,,
1512180829.104530,0.103001,-0.060411,0.174338,0.025345,-0.000809,-0.208925,0.102632,0.060374,-0.992885,-0.044481,-0.068599,-0.012104,19.770506,-1.692511,7.262062,,,,,,,
1512180829.124519,0.102587,-0.060334,0.170028,0.022157,-0.011493,-0.210075,0.102220,0.060298,-0.992933,-0.056520,-0.058146,0.020154,20.145353,-1.691961,6.958870,,,,,,,
1512180829.144508,0.102092,-0.060315,0.165794,0.023298,-0.009345,-0.214314,0.101730,0.060278,-0.992984,0.003205,-0.064322,-0.011014,19.621702,-1.392736,6.963463,,,,,,,
1512180829.164527,0.101542,-0.060312,0.161602,0.024267,-0.013630,-0.208986,0.101183,0.060275,-0.993040,-0.015368,-0.071643,-0.020037,19.919340,-1.917288,6.960670,,,,,,,
1512180829.184516,0.101013,-0.060381,0.157472,0.013463,-0.015801,-0.200622,0.100658,0.060344,-0.993089,-0.063381,-0.067150,-0.001997,20.069227,-1.917074,6.734398,,,,,,,
1512180829.204505,0.100554,-0.060421,0.153334,0.011377,-0.009388,-0.202761,0.100202,0.060384,-0.993133,-0.074918,-0.068029,0.032928,20.219755,-1.841848,7.108162,,,,,,,
1512180829.224494,0.100132,-0.060511,0.149254,0.014698,-0.010436,-0.210179,0.099782,0.060474,-0.993170,-0.001485,-0.077030,0.008780,20.065886,-2.667074,6.809044,,,,,,,
1512180829.244514,0.099783,-0.060622,0.145261,0.016689,-0.002975,-0.201597,0.099435,0.060584,-0.993198,-0.029107,-0.069251,-0.027432,20.370359,-1.691610,6.956947,,,,,,,
1512180829.264503,0.099485,-0.060772,0.141198,0.011265,0.003416,-0.195255,0.099138,0.060734,-0.993218,-0.083833,-0.066838,0.000711,20.444456,-1.841497,6.506264,,,,,,,
1512180829.284492,0.099129,-0.060884,0.137125,0.008218,-0.009394,-0.206009,0.098783,0.060846,-0.993247,-0.053404,-0.073832,0.026526,20.297606,-1.166723,6.732826,,,,,,,
1512180829.304511,0.098729,-0.060954,0.133119,0.019891,-0.007246,-0.202634,0.098386,0.060916,-0.993282,0.026782,-0.068317,-0.026722,20.522261,-1.241385,6.730888,,,,,,,
1512180829.324500,0.098157,-0.061047,0.129098,0.017628,-0.011533,-0.194150,0.097817,0.061009,-0.993333,-0.070977,-0.071446,-0.020431,20.444304,-1.916510,6.881218,,,,,,,
1512180829.344489,0.097621,-0.061071,0.125001,0.013493,-0.019003,-0.202766,0.097284,0.061033,-0.993383,-0.052927,-0.072034,0.013998,20.972120,-1.240713,6.427071,,,,,,,
1512180829.364478,0.097090,-0.061010,0.120968,0.018845,-0.012584,-0.203732,0.096757,0.060972,-0.993439,-0.017320,-0.062131,-0.000977,21.047499,-1.165594,6.501472,,,,,,,
1512180829.384498,0.096485,-0.060940,0.116965,0.020944,-0.018990,-0.201590,0.096156,0.060902,-0.993501,-0.023204,-0.093541,-0.005934,21.046522,-1.390600,6.576363,,,,,,,
1512180829.404487,0.096060,-0.060824,0.113029,0.022932,-0.014735,-0.193020,0.095735,0.060786,-0.993549,-0.014283,-0.080729,-0.004513,20.973875,-0.865713,6.577248,,,,,,,
1512180829.424476,0.095706,-0.060703,0.109142,0.023931,0.004488,-0.187606,0.095384,0.060666,-0.993590,-0.050691,-0.080426,0.008590,21.272078,-1.240271,6.349525,,,,,,,
1512180829.444496,0.095266,-0.060585,0.105314,0.025011,-0.007256,-0.188696,0.094948,0.060548,-0.993639,-0.050331,-0.074143,-0.018385,21.274549,-0.715261,6.574760,,,,,,,
1512180829.464485,0.095053,-0.060456,0.101528,0.019667,-0.007272,-0.188778,0.094737,0.060419,-0.993667,-0.012644,-0.076074,0.033371,21.649061,-0.789694,6.271538,,,,,,,
1512180829.484474,0.094834,-0.060335,0.097846,0.027052,0.010887,-0.183277,0.094519,0.060298,-0.993695,-0.038108,-0.084117,-0.024493,21.724073,-0.789587,6.270897,,,,,,,
1512180829.504493,0.094551,-0.060268,0.094199,0.021658,0.003399,-0.179114,0.094238,0.060232,-0.993726,-0.060028,-0.077718,-0.023349,21.797377,-1.164480,6.270088,,,,,,,
1512180829.524482,0.094352,-0.060179,0.090611,0.018418,-0.004088,-0.177056,0.094042,0.060143,-0.993750,-0.034258,-0.085594,0.041861,22.099302,-0.714025,6.042747,,,,,,,
1512180829.544471,0.094101,-0.060187,0.087030,0.017366,-0.001954,-0.178131,0.093792,0.060150,-0.993773,-0.026425,-0.088196,0.008635,22.248808,-0.788794,5.741447,,,,,,,
1512180829.564460,0.093893,-0.060168,0.083522,0.008788,-0.004108,-0.175064,0.093586,0.060132,-0.993794,-0.009525,-0.107953,0.017658,22.546965,-1.163351,5.438713,,,,,,,
1512180829.584480,0.093693,-0.060212,0.080016,0.010885,0.004440,-0.171803,0.093386,0.060175,-0.993810,-0.017001,-0.102900,0.024617,23.076017,-0.262564,5.434669,,,,,,,
1512180829.604469,0.093479,-0.060313,0.076535,0.011827,0.006555,-0.165390,0.093173,0.060276,-0.993824,-0.032382,-0.090229,-0.007748,23.149076,-0.712454,5.583824,,,,,,,
1512180829.624458,0.093375,-0.060414,0.073108,0.010804,0.005494,-0.167539,0.093069,0.060377,-0.993827,-0.028601,-0.081053,-0.009621,23.075270,-0.412558,5.284599,,,,,,,
1512180829.644477,0.093451,-0.060531,0.069716,0.008666,0.015098,-0.167540,0.093144,0.060494,-0.993813,-0.008839,-0.076546,0.000191,23.300917,-0.262228,5.207756,,,,,,,
1512180829.664466,0.093492,-0.060587,0.066428,0.016044,0.015101,-0.162101,0.093184,0.060549,-0.993806,-0.009322,-0.093631,-0.017867,23.523146,-0.861883,5.055565,,,,,,,
1512180829.684455,0.093645,-0.060592,0.063206,0.010625,0.017224,-0.155773,0.093336,0.060555,-0.993791,-0.013365,-0.101051,0.013948,24.049788,-0.486105,4.976280,,,,,,,
1512180829.704444,0.093868,-0.060547,0.060098,0.020097,0.030038,-0.148130,0.093559,0.060510,-0.993773,-0.071555,-0.072885,-0.022508,23.901701,-0.036322,4.752769,,,,,,,
1512180829.724464,0.094163,-0.060551,0.057123,0.014749,0.027891,-0.147149,0.093851,0.060514,-0.993745,-0.021067,-0.080900,-0.027586,24.050459,-0.261099,4.301384,,,,,,,
1512180829.744453,0.094623,-0.060488,0.054311,0.008206,0.025725,-0.138724,0.094310,0.060451,-0.993706,-0.024668,-0.099986,0.019051,24.275358,-0.260763,4.074486,,,,,,,
1512180829.764406,0.095260,-0.060428,0.051643,0.014468,0.042813,-0.128976,0.094942,0.060391,-0.993649,-0.012881,-0.074704,-0.012668,23.975874,-0.111212,3.777092,,,,,,,
1512180829.784425,0.096003,-0.060377,0.049123,0.012190,0.044926,-0.120475,0.095681,0.060341,-0.993581,-0.022667,-0.083000,0.005377,23.974455,-0.411215,3.626961,,,,,,,
1512180829.804414,0.096841,-0.060445,0.046811,0.007830,0.055589,-0.114105,0.096513,0.060408,-0.993497,0.001311,-0.094969,-0.007007,24.199903,-0.335867,3.850090,,,,,,,
1512180829.824403,0.097912,-0.060429,0.044572,0.012996,0.073734,-0.103307,0.097577,0.060392,-0.993394,-0.026639,-0.095884,-0.033355,23.976103,-0.036215,3.552132,,,,,,,
1512180829.844392,0.099260,-0.060431,0.042481,0.005501,0.070516,-0.101294,0.098916,0.060394,-0.993261,0.024864,-0.093292,0.016806,23.525465,-0.186880,3.630882,,,,,,,
1512180829.864412,0.100772,-0.060479,0.040524,0.005357,0.084385,-0.091652,0.100418,0.060442,-0.993108,0.008973,-0.091570,-0.014506,23.375196,-0.262106,3.782127,,,,,,,
1512180829.884401,0.102325,-0.060451,0.038660,0.008441,0.082238,-0.085220,0.101960,0.060414,-0.992952,-0.032319,-0.072331,0.001787,23.226210,-0.037329,3.783501,,,,,,,
1512180829.904390,0.103904,-0.060490,0.036924,0.002097,0.071556,-0.088546,0.103528,0.060453,-0.992788,0.080677,-0.065488,0.017568,22.998777,-0.562674,3.635170,,,,,,,
1512180829.924409,0.105423,-0.060465,0.035387,0.007212,0.077943,-0.075658,0.105035,0.060429,-0.992631,0.067984,-0.084171,-0.015914,22.851881,0.112101,3.786766,,,,,,,
1512180829.944398,0.106785,-0.060460,0.033912,0.007057,0.071519,-0.066087,0.106388,0.060423,-0.992487,0.052884,-0.089323,-0.009466,22.176435,-0.038900,4.242439,,,,,,,
1512180829.964387,0.108142,-0.060418,0.032542,0.006940,0.074703,-0.059684,0.107734,0.060381,-0.992344,0.059105,-0.109530,-0.009273,21.802641,0.260538,3.945763,,,,,,,
1512180829.984407,0.109306,-0.060287,0.031316,0.012166,0.071497,-0.053222,0.108890,0.060251,-0.992226,0.037563,-0.083337,-0.000175,21.277479,0.184748,4.325188,,,,,,,
1512180830.004396,0.110335,-0.060302,0.030272,0.006825,0.054398,-0.053359,0.109911,0.060265,-0.992113,0.087995,-0.062920,-0.049864,20.976851,0.034296,4.402657,,,,,,,
1512180830.024385,0.111375,-0.060286,0.029498,0.006666,0.046904,-0.043791,0.110943,0.060250,-0.991999,0.148365,-0.086373,-0.015921,20.978758,0.409296,4.852837,,,,,,,
1512180830.044374,0.112145,-0.060271,0.028863,-0.002297,0.034019,-0.018382,0.111707,0.060235,-0.991914,0.037249,-0.080697,0.026582,20.677778,0.183847,4.930275,,,,,,,
1512180830.064394,0.112809,-0.060358,0.028354,-0.003406,0.023331,-0.016303,0.112365,0.060321,-0.991834,0.076935,-0.070926,0.002561,20.380400,0.708399,5.458061,,,,,,,
1512180830.084383,0.113396,-0.060457,0.028137,-0.004520,0.024393,-0.013117,0.112946,0.060421,-0.991762,0.128677,-0.084148,-0.007170,20.153273,0.258051,5.234779,,,,,,,
1512180830.104372,0.113569,-0.060615,0.028155,-0.006936,0.004060,0.002767,0.113117,0.060577,-0.991733,0.084805,-0.076782,-0.003750,20.228376,0.258173,5.459129,,,,,,,
1512180830.124391,0.113653,-0.060751,0.028245,-0.010225,-0.006636,0.008014,0.113199,0.060714,-0.991716,0.076864,-0.054976,-0.000441,20.154692,0.558054,5.384911,,,,,,,
1512180830.144380,0.113391,-0.061017,0.028455,-0.014539,-0.015197,0.010051,0.112938,0.060979,-0.991729,0.075554,-0.068547,-0.040909,20.079954,0.632944,5.235588,,,,,,,
1512180830.164369,0.112997,-0.061364,0.028763,-0.022019,-0.028024,0.010966,0.112544,0.061325,-0.991752,0.093907,-0.104370,-0.002403,19.703337,0.257380,5.388603,,,,,,,
1512180830.184358,0.112670,-0.061659,0.029162,-0.016807,-0.021621,0.018527,0.112218,0.061620,-0.991771,0.063274,-0.056097,-0.020100,19.928831,0.332727,5.686714,,,,,,,
1512180830.204378,0.112198,-0.062134,0.029531,-0.026416,-0.020570,0.019457,0.111747,0.062094,-0.991795,0.031304,-0.062720,-0.002575,20.004423,0.482828,5.536156,,,,,,,
1512180830.224367,0.111642,-0.062539,0.029887,-0.023222,-0.030184,0.018400,0.111193,0.062498,-0.991832,0.021330,-0.082381,-0.014669,19.701918,-0.042624,5.238457,,,,,,,
1512180830.244356,0.110864,-0.062836,0.030165,-0.016753,-0.046180,0.014178,0.110419,0.062795,-0.991899,0.034722,-0.070470,-0.011458,19.928984,0.407724,5.311760,,,,,,,
1512180830.264375,0.109766,-0.063083,0.030412,-0.012433,-0.061121,0.009924,0.109328,0.063041,-0.992005,0.010652,-0.066352,-0.007614,19.928343,0.257715,5.386681,,,,,,,
1512180830.284364,0.108404,-0.063221,0.030584,-0.005990,-0.077124,0.006766,0.107976,0.063179,-0.992144,0.029460,-0.053779,-0.018140,19.701994,-0.042624,5.388466,,,,,,,
1512180830.304353,0.106894,-0.063263,0.030701,-0.003832,-0.078189,0.004659,0.106477,0.063221,-0.992303,0.008788,-0.060474,-0.002509,19.778944,0.407495,5.238029,,,,,,,
1512180830.324373,0.105323,-0.063141,0.030742,0.006787,-0.079247,0.006940,0.104918,0.063099,-0.992477,-0.013503,-0.080693,0.027709,19.700071,-0.417624,4.938286,,,,,,,
1512180830.344362,0.103853,-0.062909,0.030776,0.009991,-0.078171,0.006992,0.103461,0.062867,-0.992645,-0.006690,-0.076096,0.044525,19.931532,1.007730,5.012032,,,,,,,
1512180830.364351,0.102518,-0.062657,0.030749,0.014355,-0.067477,0.000693,0.102138,0.062616,-0.992798,-0.045528,-0.064157,0.039917,19.703154,0.257380,5.013603,,,,,,,
1512180830.384340,0.101495,-0.062271,0.030776,0.017577,-0.046104,0.000816,0.101124,0.062231,-0.992926,-0.007923,-0.067602,0.022360,19.928144,0.257715,5.011681,,,,,,,
1512180830.404359,0.100656,-0.061891,0.030756,0.023959,-0.032213,0.002021,0.100294,0.061851,-0.993033,-0.083570,-0.062111,0.002997,19.628935,0.407267,5.239311,,,,,,,
1512180830.424348,0.100185,-0.061436,0.030774,0.017638,-0.017256,-0.001214,0.099829,0.061397,-0.993109,-0.072637,-0.077541,0.019766,19.478422,0.332041,4.865547,,,,,,,
1512180830.444337,0.100009,-0.060937,0.030816,0.026135,-0.003363,0.001089,0.099657,0.060899,-0.993156,-0.065554,-0.066530,0.014580,19.778822,0.407495,5.013039,,,,,,,
1512180830.464357,0.100002,-0.060578,0.030892,0.018668,0.007307,0.002085,0.099652,0.060541,-0.993179,-0.089871,-0.086404,-0.004075,19.853941,0.407602,5.237389,,,,,,,
1512180830.484346,0.100299,-0.060135,0.031004,0.015433,0.013703,0.004190,0.099950,0.060099,-0.993176,-0.061086,-0.088495,0.038510,19.552473,0.107157,5.014809,,,,,,,
1512180830.504335,0.100663,-0.059856,0.031174,0.007929,0.027572,0.007328,0.100314,0.059820,-0.993156,-0.058123,-0.063970,0.010810,19.476881,-0.042959,5.165367,,,,,,,
1512180830.524324,0.101137,-0.059601,0.031324,0.011136,0.023303,0.006292,0.100785,0.059566,-0.993123,-0.032883,-0.091991,0.005300,19.628523,0.332270,5.089272,,,,,,,
1512180830.544344,0.101753,-0.059378,0.031494,0.006803,0.025432,0.011571,0.101398,0.059343,-0.993074,-0.024189,-0.080370,0.033190,19.627821,0.182276,5.014198,,,,,,,
1512180830.564333,0.102385,-0.059195,0.031608,0.004729,0.032912,0.008369,0.102027,0.059161,-0.993021,-0.029929,-0.083117,0.032312,19.627851,0.182276,5.089195,,,,,,,
1512180830.584322,0.103097,-0.059112,0.031720,0.005866,0.029719,0.004111,0.102735,0.059078,-0.992953,0.028399,-0.092220,0.013934,19.703871,0.407389,5.088661,,,,,,,
1512180830.604341,0.103819,-0.058969,0.031801,-0.000584,0.041447,0.007254,0.103453,0.058934,-0.992887,0.001894,-0.085241,0.010053,19.929914,0.632715,5.161858,,,,,,,
1512180830.624330,0.104226,-0.058942,0.031795,0.008000,0.021174,0.003044,0.103857,0.058908,-0.992846,0.020349,-0.061227,-0.012067,19.478605,0.332041,5.240547,,,,,,,
1512180830.644319,0.104495,-0.058878,0.031817,-0.001525,0.006211,-0.002479,0.104124,0.058844,-0.992822,0.051332,-0.084647,0.017358,20.151991,-0.041937,5.384636,,,,,,,
1512180830.664339,0.104437,-0.058849,0.031832,-0.000494,-0.003402,-0.000364,0.104066,0.058815,-0.992830,0.018568,-0.096550,-0.004119,19.552931,0.182154,5.239845,,,,,,,
1512180830.684328,0.104212,-0.058784,0.031836,-0.000502,-0.016219,-0.000408,0.103844,0.058750,-0.992857,0.045265,-0.088215,0.017774,20.078749,0.332941,5.535439,,,,,,,
1512180830.704317,0.103934,-0.058670,0.031873,0.001577,-0.019426,0.002810,0.103568,0.058636,-0.992892,0.047051,-0.086468,0.046573,19.928114,0.182718,5.611656,,,,,,,
1512180830.724306,0.103577,-0.058587,0.031925,0.008994,-0.009806,0.006150,0.103214,0.058554,-0.992934,-0.022221,-0.078985,-0.007325,19.776869,-0.042501,5.162819,,,,,,,
1512180830.744325,0.103193,-0.058616,0.032012,-0.002669,-0.020498,0.001679,0.102833,0.058582,-0.992972,0.027218,-0.094822,-0.010675,19.478559,0.332041,5.165535,,,,,,,
1512180830.764310,0.103025,-0.058546,0.032191,-0.003783,-0.007691,0.004904,0.102667,0.058512,-0.992993,0.016031,-0.098200,-0.001086,19.328947,0.406824,5.241859,,,,,,,
1512180830.784299,0.102892,-0.058608,0.032434,-0.009226,-0.011987,0.011205,0.102534,0.058574,-0.993003,-0.009409,-0.083690,0.013145,19.401945,-0.043066,5.316002,,,,,,,
1512180830.804319,0.102936,-0.058622,0.032747,-0.005013,-0.004504,0.015560,0.102578,0.058589,-0.992998,-0.018670,-0.074916,0.009355,19.253752,0.331705,5.542458,,,,,,,
1512180830.824308,0.102995,-0.058765,0.033105,-0.014693,0.004013,0.020778,0.102635,0.058731,-0.992984,-0.031224,-0.087189,-0.017423,19.404768,0.556940,5.541283,,,,,,,
1512180830.844297,0.103203,-0.058881,0.033519,-0.008355,0.015760,0.024106,0.102841,0.058847,-0.992956,-0.035367,-0.069955,-0.031367,19.253492,0.256708,5.692421,,,,,,,
1512180830.864286,0.103821,-0.059108,0.034024,-0.017871,0.037127,0.021916,0.103454,0.059074,-0.992878,-0.029403,-0.079292,0.000798,19.403532,0.256937,5.766151,,,,,,,
1512180830.884305,0.104885,-0.059331,0.034654,-0.014742,0.062751,0.026311,0.104509,0.059296,-0.992755,-0.011903,-0.043823,-0.018476,19.553267,0.182154,5.914833,,,,,,,
1512180830.904294,0.106377,-0.059691,0.035373,-0.020217,0.085153,0.035903,0.105988,0.059655,-0.992576,-0.070679,-0.043222,-0.034416,19.103453,0.256479,5.618706,,,,,,,
1512180830.924283,0.108353,-0.059946,0.036025,-0.010589,0.107610,0.036126,0.107947,0.059910,-0.992350,-0.033469,-0.078739,-0.059164,19.330290,0.631815,5.916954,,,,,,,
1512180830.944303,0.110659,-0.060224,0.036763,-0.018044,0.121482,0.036064,0.110233,0.060188,-0.992082,-0.022709,-0.069068,-0.036315,19.104353,0.406488,6.068764,,,,,,,
1512180830.964292,0.113245,-0.060421,0.037569,-0.011715,0.134299,0.040464,0.112797,0.060385,-0.991781,0.009152,-0.047521,-0.041635,19.629393,0.407267,6.139305,,,,,,,
1512180830.984281,0.116007,-0.060679,0.038413,-0.018152,0.142831,0.043599,0.115534,0.060641,-0.991451,0.008169,-0.074924,-0.012013,18.804121,0.256037,6.971245,,,,,,,
1512180831.004300,0.118924,-0.060787,0.039267,-0.010782,0.148169,0.049053,0.118425,0.060749,-0.991103,-0.003236,-0.090611,-0.028840,19.706785,0.857386,6.888863,,,,,,,
1512180831.024290,0.121801,-0.060921,0.040258,-0.020359,0.129996,0.046717,0.121275,0.060883,-0.990750,0.068133,-0.072785,0.025830,19.632246,0.932276,7.114540,,,,,,,
1512180831.044279,0.124601,-0.060986,0.041289,-0.012939,0.134278,0.050040,0.124048,0.060948,-0.990403,0.034415,-0.074284,0.008667,19.480955,0.632044,7.265678,,,,,,,
1512180831.064268,0.127132,-0.061139,0.042426,-0.012965,0.118255,0.051051,0.126553,0.061101,-0.990076,0.093189,-0.068074,0.017847,19.781111,0.632502,7.563118,,,,,,,
1512180831.084287,0.129571,-0.061257,0.043800,-0.017475,0.108602,0.064808,0.128966,0.061219,-0.989757,0.124940,-0.088456,0.031689,19.707090,0.857386,7.488869,,,,,,,
1512180831.104276,0.131744,-0.061400,0.045336,-0.012391,0.108580,0.079807,0.131116,0.061361,-0.989466,0.062839,-0.051229,-0.002630,20.306868,0.783289,7.708733,,,,,,,
1512180831.124265,0.133783,-0.061723,0.047022,-0.032717,0.083973,0.082624,0.133130,0.061683,-0.989177,0.162295,-0.057167,0.024989,20.233854,1.233179,7.634575,,,,,,,
1512180831.144285,0.135611,-0.062065,0.048919,-0.035000,0.077547,0.092166,0.134935,0.062025,-0.988911,0.162184,-0.071150,0.025944,20.082273,0.857950,7.860680,,,,,,,
1512180831.164274,0.136919,-0.062530,0.050813,-0.039424,0.050819,0.100537,0.136224,0.062489,-0.988705,0.068930,-0.060490,0.029904,20.308409,1.083292,8.083870,,,,,,,
1512180831.184263,0.137943,-0.063112,0.052859,-0.045727,0.027317,0.092898,0.137232,0.063070,-0.988529,0.190268,-0.038732,0.013675,20.904615,0.259180,7.928383,,,,,,,
1512180831.204252,0.138543,-0.063755,0.055113,-0.050099,0.024099,0.100290,0.137819,0.063712,-0.988406,0.199552,-0.084281,0.023623,20.908705,1.159189,8.003807,,,,,,,
1512180831.224271,0.138708,-0.064354,0.057415,-0.048171,-0.009034,0.110863,0.137977,0.064310,-0.988345,0.207405,-0.061502,0.040042,21.134001,1.234537,7.926933,,,,,,,
1512180831.244260,0.138494,-0.065005,0.059791,-0.051694,-0.028302,0.129935,0.137760,0.064959,-0.988333,0.103405,-0.051806,0.064703,20.907362,0.859186,8.003670,,,,,,,
1512180831.264249,0.138056,-0.065631,0.062275,-0.049544,-0.034710,0.127809,0.137322,0.065584,-0.988353,0.111687,-0.077943,0.031444,21.207319,0.859644,7.926109,,,,,,,
1512180831.284269,0.137735,-0.066106,0.064982,-0.048350,-0.034691,0.120365,0.137000,0.066058,-0.988366,0.158945,-0.039843,0.036401,21.358397,1.084864,8.074944,,,,,,,
1512180831.304258,0.137416,-0.066620,0.067904,-0.044408,-0.030447,0.140694,0.136680,0.066571,-0.988376,0.112740,-0.039136,0.018130,21.355635,0.484858,7.924675,,,,,,,
1512180831.324247,0.137108,-0.067086,0.070889,-0.041354,-0.034739,0.148182,0.136371,0.067036,-0.988387,0.063244,-0.031391,0.039535,21.354460,0.259851,7.624565,,,,,,,
1512180831.344266,0.136738,-0.067579,0.074050,-0.042438,-0.032608,0.149239,0.136001,0.067527,-0.988405,0.072785,-0.017127,-0.003157,21.732054,0.785425,8.071617,,,,,,,
1512180831.364255,0.136292,-0.068043,0.077351,-0.050040,-0.034772,0.157650,0.135556,0.067991,-0.988434,0.108844,-0.034971,0.027863,22.032362,0.860880,7.994102,,,,,,,
1512180831.384244,0.135893,-0.068452,0.080724,-0.048111,-0.033722,0.170476,0.135158,0.068399,-0.988460,0.053486,-0.045251,0.055492,21.731611,0.710428,7.846581,,,,,,,
1512180831.404233,0.135455,-0.068967,0.084159,-0.049157,-0.034788,0.169392,0.134720,0.068912,-0.988484,0.062424,-0.032749,0.025945,21.956694,0.710764,7.994682,,,,,,,
1512180831.424253,0.135082,-0.069489,0.087764,-0.047074,-0.036932,0.171544,0.134347,0.069433,-0.988499,0.130424,-0.033605,-0.012417,21.802107,-0.264471,7.620506,,,,,,,
1512180831.444242,0.134732,-0.069852,0.091422,-0.045114,-0.038015,0.182230,0.133997,0.069795,-0.988521,0.115408,-0.020723,0.050456,22.104322,0.185984,7.993156,,,,,,,
1512180831.464231,0.134371,-0.070251,0.095116,-0.046217,-0.029473,0.185445,0.133637,0.070193,-0.988541,0.038711,-0.035739,0.020982,22.180372,0.411097,8.067619,,,,,,,
1512180831.484250,0.134159,-0.070508,0.098917,-0.039877,-0.021997,0.188759,0.133424,0.070450,-0.988552,0.110442,-0.036941,0.030651,22.180342,0.411097,7.992622,,,,,,,
1512180831.504239,0.134133,-0.070786,0.102850,-0.035617,-0.005968,0.189943,0.133396,0.070727,-0.988536,0.092937,-0.033327,0.029139,22.330259,0.411325,7.841347,,,,,,,
1512180831.524228,0.134337,-0.070999,0.106868,-0.032513,-0.000638,0.195334,0.133596,0.070939,-0.988494,0.077448,-0.045549,0.041030,22.180037,0.411097,7.392616,,,,,,,
1512180831.544217,0.134744,-0.071113,0.111014,-0.028369,-0.000644,0.202858,0.133997,0.071053,-0.988431,0.125036,-0.033334,0.011533,22.255262,0.411219,7.841988,,,,,,,
1512180831.564237,0.135044,-0.071080,0.115209,-0.027414,-0.011336,0.209231,0.134294,0.071020,-0.988393,0.053954,-0.033865,0.017202,22.553541,0.036661,7.764259,,,,,,,
1512180831.584226,0.134944,-0.070938,0.119428,-0.016761,-0.031618,0.208247,0.134196,0.070879,-0.988417,0.080892,-0.041460,0.000334,22.327147,-0.263678,7.691032,,,,,,,
1512180831.604215,0.134446,-0.070662,0.123740,-0.008197,-0.051887,0.206173,0.133707,0.070604,-0.988503,0.161749,-0.017045,-0.059639,22.777082,-0.263006,7.537209,,,,,,,
1512180831.624235,0.133504,-0.070369,0.128177,-0.023307,-0.072233,0.215474,0.132778,0.070311,-0.988649,0.168873,-0.031844,0.014131,22.851362,-0.412893,7.461510,,,,,,,
1512180831.644224,0.132287,-0.069915,0.132565,0.001937,-0.082913,0.236059,0.131579,0.069858,-0.988841,0.066068,-0.074390,0.011149,22.775953,-0.488012,7.312111,,,,,,,
1512180831.664213,0.131175,-0.069525,0.137093,-0.013865,-0.069030,0.225218,0.130483,0.069469,-0.989014,0.102823,-0.073558,0.037949,22.622801,-1.163244,7.088066,,,,,,,
1512180831.684232,0.130348,-0.069122,0.141857,-0.014002,-0.041275,0.234907,0.129669,0.069067,-0.989149,0.118439,-0.026465,0.009413,22.850004,-0.712896,7.461372,,,,,,,
1512180831.704221,0.130145,-0.068909,0.146733,-0.022710,-0.015679,0.246595,0.129470,0.068854,-0.989190,0.062562,-0.027518,0.009530,22.701994,-0.263113,7.387840,,,,,,,
1512180831.724210,0.131073,-0.068644,0.151754,-0.021712,0.040922,0.253201,0.130391,0.068591,-0.989087,0.039913,-0.067797,0.013410,22.850981,-0.487890,7.386467,,,,,,,
1512180831.744199,0.132782,-0.068592,0.156880,-0.031294,0.088976,0.255364,0.132080,0.068538,-0.988867,-0.000977,-0.036770,0.009451,22.548628,-1.013342,7.388771,,,,,,,
1512180831.764191,0.134882,-0.068791,0.162222,-0.046335,0.093212,0.262623,0.134155,0.068737,-0.988573,0.043198,-0.039547,-0.018613,22.626097,-0.488241,7.613380,,,,,,,
1512180831.784180,0.137467,-0.069127,0.167609,-0.058120,0.114546,0.266789,0.136707,0.069072,-0.988200,0.003139,-0.044871,0.010616,23.375090,-0.712103,7.606911,,,,,,,
1512180831.804169,0.140197,-0.069628,0.173047,-0.069888,0.116662,0.269826,0.139399,0.069571,-0.987789,-0.013377,-0.026709,0.052883,22.848326,-1.087896,7.461189,,,,,,,
1512180831.824188,0.142997,-0.070297,0.178571,-0.080454,0.123066,0.264365,0.142158,0.070239,-0.987349,0.025261,-0.049807,0.055983,23.296492,-1.537222,7.832161,,,,,,,
1512180831.844177,0.145749,-0.071143,0.184059,-0.089982,0.107040,0.259908,0.144866,0.071083,-0.986895,0.060868,-0.048530,0.099733,23.446714,-1.461996,7.605919,,,,,,,
1512180831.864166,0.148356,-0.072097,0.189441,-0.088838,0.108115,0.254596,0.147428,0.072034,-0.986446,0.086993,0.009066,0.022869,23.296980,-1.387228,7.457237,,,,,,,
1512180831.884187,0.150798,-0.073219,0.194756,-0.103685,0.095290,0.250075,0.149824,0.073154,-0.986003,0.131731,0.007184,0.048503,23.521833,-1.461889,7.830284,,,,,,,
1512180831.904176,0.153060,-0.074490,0.199943,-0.102560,0.087820,0.245800,0.152041,0.074421,-0.985568,0.108076,-0.015049,0.032596,23.371382,-1.537115,7.606529,,,,,,,
1512180831.924165,0.155126,-0.075831,0.205014,-0.106620,0.078225,0.232915,0.154061,0.075758,-0.985153,0.175422,-0.006788,0.022567,23.747755,-1.236547,7.678474,,,,,,,
1512180831.944154,0.156945,-0.077267,0.210113,-0.110907,0.064332,0.233871,0.155836,0.077190,-0.984762,0.203341,0.011769,0.039969,23.971495,-1.536215,7.826424,,,,,,,
1512180831.964172,0.158411,-0.078752,0.215130,-0.114159,0.044025,0.235885,0.157260,0.078671,-0.984419,0.186108,0.015079,0.068128,23.521864,-1.461889,7.905281,,,,,,,
1512180831.984161,0.159520,-0.080195,0.220078,-0.109895,0.031211,0.234834,0.158334,0.080109,-0.984130,0.165854,0.020264,0.047332,23.519804,-1.911886,7.830070,,,,,,,
1512180832.004150,0.160172,-0.081587,0.225080,-0.107813,0.008787,0.237989,0.158957,0.081496,-0.983916,0.159616,0.010865,0.031905,23.670179,-1.836660,7.903831,,,,,,,
1512180832.024170,0.160214,-0.082973,0.230135,-0.103648,-0.028610,0.241113,0.158981,0.082878,-0.983797,0.150345,-0.003212,0.031633,23.743864,-2.136557,7.978065,,,,,,,
1512180832.044159,0.159945,-0.084165,0.235200,-0.100510,-0.047834,0.244292,0.158700,0.084066,-0.983741,0.183844,0.032694,0.041648,23.743635,-2.211554,8.203026,,,,,,,
1512180832.064148,0.159460,-0.085251,0.240271,-0.093104,-0.056380,0.246498,0.158208,0.085148,-0.983728,0.160563,0.055965,0.048852,23.293974,-2.137228,8.206886,,,,,,,
1512180832.084137,0.158948,-0.086134,0.245412,-0.085726,-0.056377,0.251937,0.157693,0.086027,-0.983734,0.125434,0.018770,0.021927,23.294508,-1.987234,7.906944,,,,,,,
1512180832.104157,0.158398,-0.086758,0.250493,-0.069705,-0.057417,0.250033,0.157143,0.086649,-0.983767,0.103020,0.046530,-0.007337,23.670103,-1.836660,7.753838,,,,,,,
1512180832.124146,0.158044,-0.087206,0.255568,-0.061078,-0.042438,0.244881,0.156788,0.087096,-0.983784,0.074367,0.029664,0.008748,23.293226,-2.287237,8.056816,,,,,,,
1512180832.144135,0.157737,-0.087504,0.260507,-0.049267,-0.038132,0.240806,0.156482,0.087392,-0.983807,0.064328,-0.019918,0.002697,23.518446,-2.211889,7.829933,,,,,,,
1512180832.164155,0.157286,-0.087730,0.265345,-0.035236,-0.053046,0.229229,0.156036,0.087617,-0.983858,0.135163,0.033965,-0.043791,22.992292,-2.437689,7.534294,,,,,,,
1512180832.184144,0.156734,-0.087736,0.270108,-0.046089,-0.044544,0.240826,0.155492,0.087624,-0.983943,0.068675,0.102120,0.000621,22.993071,-2.287680,7.759361,,,,,,,
1512180832.204133,0.156238,-0.087909,0.274927,-0.034259,-0.029564,0.234650,0.155002,0.087796,-0.984005,-0.066303,-0.030514,-0.060840,23.143858,-2.137457,7.983162,,,,,,,
1512180832.224153,0.156359,-0.087394,0.279710,-0.009435,-0.022011,0.216915,0.155128,0.087283,-0.984031,0.087899,-0.071566,0.018058,23.141462,-2.662466,7.907921,,,,,,,
1512180832.244142,0.156795,-0.086869,0.284464,-0.022518,0.001435,0.235997,0.155565,0.086760,-0.984008,0.056945,0.085192,0.077697,23.368116,-2.287115,7.831184,,,,,,,
1512180832.264131,0.157405,-0.086418,0.289198,0.004845,0.017460,0.258839,0.156171,0.086310,-0.983952,0.089831,0.027734,-0.067806,23.440672,-2.812017,7.680290,,,,,,,
1512180832.284119,0.157995,-0.085815,0.293949,-0.001275,0.027091,0.241724,0.156760,0.085710,-0.983911,0.031320,-0.033693,-0.071540,23.441160,-2.737005,7.980339,,,,,,,
1512180832.304138,0.158609,-0.085206,0.298601,-0.015992,0.017480,0.228684,0.157372,0.085103,-0.983865,0.080390,0.037364,-0.024664,23.440672,-2.812017,7.680290,,,,,,,
1512180832.324127,0.158918,-0.084795,0.303308,-0.020352,-0.009243,0.232791,0.157682,0.084693,-0.983851,0.121356,0.057381,-0.046163,23.291014,-2.737234,7.681602,,,,,,,
1512180832.344116,0.158714,-0.084630,0.307877,-0.031978,-0.048766,0.225024,0.157483,0.084529,-0.983897,0.130741,0.013280,-0.007787,23.588758,-3.261786,7.903816,,,,,,,
1512180832.364136,0.158156,-0.084571,0.312510,-0.029866,-0.062647,0.226074,0.156934,0.084470,-0.983990,0.199221,0.021227,-0.018787,23.286024,-3.862249,7.831093,,,,,,,
1512180832.384125,0.157336,-0.084616,0.317240,-0.033218,-0.060534,0.235628,0.156127,0.084516,-0.984115,0.190904,0.026080,-0.028306,23.363096,-3.412130,7.905663,,,,,,,
1512180832.404114,0.156253,-0.084679,0.321986,-0.035479,-0.071233,0.243021,0.155060,0.084578,-0.984278,0.064865,-0.013274,0.028482,23.139097,-3.187460,7.907677,,,,,,,
1512180832.424103,0.155047,-0.084803,0.326701,-0.046153,-0.077664,0.242841,0.153872,0.084702,-0.984454,0.075422,0.009766,0.036395,22.984404,-4.237692,7.983467,,,,,,,
1512180832.444123,0.154490,-0.084816,0.331669,-0.040672,-0.042390,0.235581,0.153323,0.084715,-0.984538,0.192426,0.042300,0.039592,22.986952,-3.637686,7.683739,,,,,,,
1512180832.464112,0.154432,-0.084883,0.336715,-0.039817,-0.011434,0.250629,0.153265,0.084781,-0.984541,0.092752,-0.005680,0.043059,23.211882,-3.637350,7.531822,,,,,,,
1512180832.484101,0.154724,-0.084909,0.341659,-0.031360,-0.005022,0.255037,0.153552,0.084807,-0.984494,-0.025485,-0.018447,0.026517,22.911619,-3.712805,7.684349,,,,,,,
1512180832.504121,0.155166,-0.084841,0.346713,-0.032234,0.001405,0.243319,0.153988,0.084739,-0.984432,0.057483,0.011177,0.038769,23.061216,-3.787573,7.533028,,,,,,,
1512180832.524109,0.155446,-0.084689,0.351825,-0.026855,0.005689,0.240212,0.154266,0.084588,-0.984402,0.058976,0.005088,0.002468,22.535124,-4.013372,7.387383,,,,,,,
1512180832.544098,0.155701,-0.084487,0.356848,-0.030186,-0.018895,0.247542,0.154519,0.084386,-0.984379,0.057502,0.003169,0.065999,22.909895,-4.087805,7.609169,,,,,,,
1512180832.564117,0.155972,-0.084008,0.361836,-0.016428,-0.011408,0.254165,0.154793,0.083909,-0.984377,0.065117,-0.036118,0.062411,22.836241,-3.787924,7.609947,,,,,,,
1512180832.584106,0.156211,-0.083444,0.366776,-0.003561,-0.002842,0.249046,0.155035,0.083347,-0.984387,0.053522,-0.006428,0.022335,22.834929,-4.087912,7.684807,,,,,,,
1512180832.604095,0.156493,-0.082777,0.371629,-0.004487,-0.006022,0.241565,0.155322,0.082682,-0.984398,0.091779,0.003713,0.052192,22.532759,-4.538366,7.387154,,,,,,,
1512180832.624084,0.156899,-0.082014,0.376437,0.009406,0.013224,0.239698,0.155731,0.081922,-0.984397,0.082886,0.023928,-0.015130,23.132383,-4.612478,7.307014,,,,,,,
1512180832.644104,0.157218,-0.081195,0.381149,0.007306,-0.007065,0.237467,0.156055,0.081106,-0.984413,0.118954,0.021525,0.011756,22.454985,-5.138494,7.237511,,,,,,,
1512180832.664093,0.157537,-0.080315,0.385831,0.009405,-0.004929,0.239637,0.156381,0.080228,-0.984433,0.151831,0.009753,0.008633,22.453779,-5.438498,7.537376,,,,,,,
1512180832.684083,0.157765,-0.079324,0.390524,0.010362,-0.004942,0.246047,0.156617,0.079241,-0.984475,0.127334,-0.003786,0.049676,22.831511,-4.837927,7.609459,,,,,,,
1512180832.704103,0.157842,-0.078244,0.395168,0.014630,-0.015618,0.245004,0.156707,0.078164,-0.984547,0.088121,-0.020059,0.042286,22.680433,-5.063147,7.460640,,,,,,,
1512180832.724092,0.157831,-0.076987,0.399795,0.022233,-0.027334,0.236548,0.156711,0.076911,-0.984645,0.100476,0.016305,0.061870,22.530699,-4.988379,7.311943,,,,,,,
1512180832.744081,0.157745,-0.075748,0.404445,0.035083,-0.010220,0.233594,0.156641,0.075676,-0.984752,0.112341,0.027138,-0.055455,22.754393,-5.288046,7.384895,,,,,,,
1512180832.764057,0.157533,-0.074424,0.409094,0.035019,-0.030527,0.235651,0.156448,0.074355,-0.984883,0.128937,0.000367,-0.043422,22.378569,-5.438604,7.088005,,,,,,,
1512180832.784076,0.157269,-0.073051,0.413780,0.033906,-0.026262,0.238849,0.156204,0.072986,-0.985025,0.098054,0.050244,-0.033957,22.228331,-5.513830,7.314247,,,,,,,
1512180832.804065,0.156907,-0.071724,0.418442,0.031754,-0.042285,0.239830,0.155862,0.071663,-0.985176,0.079276,0.010246,-0.009331,22.154051,-5.363943,7.389946,,,,,,,
1512180832.824054,0.156620,-0.070380,0.423090,0.026459,-0.046560,0.237607,0.155594,0.070321,-0.985315,0.095917,-0.002633,0.020273,22.226988,-5.813833,7.314110,,,,,,,
1512180832.844074,0.156240,-0.069078,0.427714,0.019059,-0.043358,0.234314,0.155234,0.069023,-0.985463,0.103524,0.018929,0.024221,22.000334,-6.189169,7.390846,,,,,,,
1512180832.864063,0.155579,-0.067903,0.432340,0.013687,-0.060465,0.235240,0.154595,0.067851,-0.985645,0.124412,-0.012065,0.008610,22.226164,-5.963842,7.014046,,,,,,,
1512180832.904071,0.154391,-0.066070,0.441529,0.001917,-0.040191,0.239406,0.153443,0.066022,-0.985949,0.079391,0.084384,-0.067670,21.699125,-6.414618,7.018288,,,,,,,
1512180832.924060,0.153845,-0.065463,0.446272,-0.002355,-0.042338,0.239335,0.152911,0.065416,-0.986072,0.089155,0.027098,-0.047024,21.772108,-6.864508,7.017448,,,,,,,
1512180832.884052,0.154965,-0.066826,0.436920,0.008280,-0.050869,0.240525,0.154001,0.066777,-0.985812,0.084936,0.025417,-0.018598,21.925184,-6.189291,7.091484,,,,,,,
1512180832.944049,0.153250,-0.064981,0.451046,-0.006563,-0.039133,0.236087,0.152329,0.064935,-0.986194,0.095398,-0.036065,-0.063229,21.545301,-7.239859,6.794182,,,,,,,
1512180832.964038,0.153014,-0.064682,0.455807,-0.022523,-0.013524,0.234876,0.152099,0.064637,-0.986249,0.070954,-0.001374,-0.061083,21.545637,-7.164862,6.794228,,,,,,,
1512180832.984058,0.153109,-0.064615,0.460612,-0.043901,-0.008221,0.238850,0.152193,0.064570,-0.986239,0.042143,0.018025,-0.001844,21.167875,-7.765417,6.647133,,,,,,,
1512180833.004047,0.153285,-0.064616,0.465538,-0.047138,-0.029588,0.240864,0.152367,0.064571,-0.986212,0.075843,0.023777,0.045676,21.018095,-7.765646,7.098412,,,,,,,
1512180833.024036,0.153350,-0.064683,0.470537,-0.045122,-0.025331,0.247301,0.152430,0.064638,-0.986198,0.035345,-0.000429,0.028679,21.094374,-7.465536,6.947914,,,,,,,
1512180833.044055,0.153345,-0.064763,0.475497,-0.042976,-0.015711,0.247367,0.152425,0.064718,-0.986194,0.033382,-0.017797,0.014728,21.316771,-7.990194,6.495766,,,,,,,
1512180833.064044,0.153439,-0.064902,0.480391,-0.038528,-0.005001,0.236809,0.152516,0.064856,-0.986171,0.098506,0.023950,-0.027318,21.016020,-8.140646,6.348244,,,,,,,
1512180833.084033,0.153622,-0.064946,0.485279,-0.037425,-0.001790,0.234704,0.152696,0.064900,-0.986140,0.109328,0.016307,-0.012563,21.316664,-7.990194,6.270760,,,,,,,
1512180833.104022,0.153932,-0.064928,0.490094,-0.033157,-0.004992,0.233686,0.153002,0.064882,-0.986094,0.087324,0.021559,0.034296,21.315992,-8.140203,6.270699,,,,,,,
1512180833.124042,0.154382,-0.064778,0.494856,-0.028879,0.007836,0.233794,0.153447,0.064732,-0.986034,0.063472,-0.008336,0.036022,20.716551,-7.991095,6.050865,,,,,,,
1512180833.144031,0.154976,-0.064474,0.499547,-0.019290,0.017465,0.235034,0.154035,0.064429,-0.985962,0.078082,0.009652,-0.001785,20.788862,-8.590994,6.049950,,,,,,,
1512180833.164020,0.155759,-0.064086,0.504177,-0.014975,0.020681,0.231909,0.154811,0.064042,-0.985866,0.117421,0.034133,0.035823,20.789610,-8.440985,6.200020,,,,,,,
1512180833.184040,0.156392,-0.063641,0.508833,-0.010788,0.016405,0.236218,0.155440,0.063598,-0.985796,0.068041,0.000657,0.020555,20.638441,-8.666220,5.901192,,,,,,,
1512180833.204029,0.156615,-0.063023,0.513359,0.001055,-0.012402,0.227761,0.155666,0.062981,-0.985800,0.108997,-0.010216,0.038244,20.639570,-8.441214,6.126289,,,,,,,
1512180833.224018,0.156349,-0.062291,0.517883,0.000015,-0.039105,0.224453,0.155411,0.062251,-0.985887,0.154541,-0.022624,0.041947,20.713591,-8.666098,6.200554,,,,,,,
1512180833.244037,0.155631,-0.061398,0.522286,0.009554,-0.054047,0.227740,0.154712,0.061360,-0.986052,0.106259,0.006771,0.040160,20.413557,-8.666555,6.128105,,,,,,,
1512180833.264026,0.154592,-0.060403,0.526543,0.019268,-0.068974,0.219299,0.153696,0.060366,-0.986272,0.122595,0.014615,0.042822,20.188322,-8.741888,6.354988,,,,,,,
1512180833.284015,0.153319,-0.059303,0.530828,0.019306,-0.081781,0.217126,0.152450,0.059268,-0.986532,0.160202,0.006024,0.024649,20.564528,-8.441320,6.051933,,,,,,,
1512180833.304004,0.151921,-0.058172,0.535045,0.031040,-0.079630,0.216235,0.151082,0.058139,-0.986810,0.135463,0.013120,-0.021262,20.188139,-8.741888,5.979988,,,,,,,
1512180833.324024,0.150454,-0.057117,0.539203,0.026782,-0.087108,0.216150,0.149642,0.057086,-0.987091,0.109162,0.009763,-0.024353,19.737654,-8.817572,5.683769,,,,,,,
1512180833.344013,0.148969,-0.056051,0.543327,0.026859,-0.081765,0.210835,0.148186,0.056021,-0.987372,0.091118,0.014764,-0.039469,19.887724,-8.817343,5.832497,,,,,,,
1512180833.364002,0.147380,-0.055038,0.547474,0.020482,-0.088178,0.209656,0.146625,0.055010,-0.987661,0.082471,0.022306,-0.025217,19.661299,-9.117682,5.684273,,,,,,,
1512180833.384021,0.145741,-0.054080,0.551597,0.014145,-0.105270,0.205240,0.145014,0.054053,-0.987952,0.093680,-0.009543,0.017081,19.661070,-9.192678,5.909233,,,,,,,
1512180833.404010,0.144093,-0.053126,0.555726,0.012974,-0.103149,0.211627,0.143393,0.053101,-0.988240,0.048670,-0.011566,0.022954,18.755934,-10.244040,5.091393,,,,,,,
1512180833.423999,0.142522,-0.052276,0.559815,0.013039,-0.087120,0.208486,0.141846,0.052253,-0.988509,0.039337,0.005197,0.000426,19.359953,-9.418142,5.686684,,,,,,,
1512180833.443988,0.141132,-0.051429,0.563878,0.011967,-0.076440,0.209574,0.140478,0.051406,-0.988748,0.030970,-0.004989,0.016077,18.983519,-9.718695,5.539726,,,,,,,
1512180833.464008,0.139999,-0.050618,0.567895,0.010923,-0.061488,0.208543,0.139364,0.050596,-0.988948,0.003474,-0.018125,0.022624,18.759016,-9.644033,5.841682,,,,,,,
1512180833.483997,0.139188,-0.049846,0.571788,0.011089,-0.045448,0.199006,0.138567,0.049825,-0.989099,-0.026704,0.002955,-0.007880,18.531614,-10.169378,5.768349,,,,,,,
1512180833.503986,0.138697,-0.049145,0.575614,0.005925,-0.030477,0.190458,0.138086,0.049126,-0.989201,0.004446,0.016212,-0.037487,18.529997,-10.544378,5.918175,,,,,,,
1512180833.524005,0.138351,-0.048476,0.579338,0.009196,-0.024056,0.186263,0.137748,0.048457,-0.989281,-0.005088,-0.013423,-0.027854,18.529814,-10.544378,5.543175,,,,,,,
1512180833.543994,0.138015,-0.047858,0.582891,0.003976,-0.024056,0.178721,0.137420,0.047839,-0.989357,-0.024078,0.004620,0.022117,18.078413,-10.845053,5.471855,,,,,,,
1512180833.563983,0.137794,-0.047322,0.586325,0.000929,-0.019768,0.170165,0.137205,0.047304,-0.989412,0.016802,-0.002580,0.009890,18.152739,-10.994940,5.471153,,,,,,,
1512180833.584003,0.137663,-0.046743,0.589672,0.012716,-0.001586,0.167200,0.137079,0.046726,-0.989457,-0.025598,0.011730,-0.030425,18.379927,-10.544607,5.769447,,,,,,,
1512180833.603992,0.137762,-0.046109,0.592827,0.009666,0.003769,0.158647,0.137181,0.046092,-0.989473,-0.041356,0.048222,-0.028410,18.004362,-10.695166,5.997566,,,,,,,
1512180833.623981,0.138151,-0.045490,0.595913,0.009870,0.012333,0.145884,0.137570,0.045474,-0.989448,0.029636,0.035016,-0.040963,18.078718,-10.845053,6.071861,,,,,,,
1512180833.643970,0.138583,-0.044756,0.598884,0.026959,0.023048,0.145105,0.138001,0.044741,-0.989421,-0.056809,-0.039157,-0.072179,17.856459,-10.245382,6.149055,,,,,,,
1512180833.663989,0.138999,-0.044025,0.601719,0.009989,0.003811,0.139465,0.138418,0.044010,-0.989395,0.051203,0.010860,0.055024,17.776472,-11.295507,5.624199,,,,,,,
1512180833.683979,0.139225,-0.043417,0.604580,0.012024,0.003799,0.144822,0.138645,0.043403,-0.989390,0.006314,0.002571,-0.004399,17.778608,-10.845510,5.849403,,,,,,,
1512180833.703968,0.139416,-0.042752,0.607315,0.016441,-0.001517,0.135273,0.138838,0.042739,-0.989392,-0.009047,-0.039260,0.001386,17.626585,-11.295736,5.850471,,,,,,,
1512180833.723987,0.139582,-0.042040,0.609893,0.009037,-0.004723,0.131958,0.139006,0.042027,-0.989399,0.018266,-0.006612,0.019902,17.851698,-11.220404,5.398598,,,,,,,
1512180833.743976,0.139529,-0.041351,0.612379,0.017644,-0.018585,0.126705,0.138958,0.041339,-0.989435,0.029637,-0.017398,0.028864,17.926619,-11.295294,5.922920,,,,,,,
1512180833.763929,0.139232,-0.040573,0.614786,0.024165,-0.030311,0.118229,0.138668,0.040562,-0.989508,0.043827,0.018169,-0.020716,17.777449,-11.145514,6.224266,,,,,,,
1512180833.783949,0.138795,-0.039903,0.617148,0.015669,-0.034594,0.115958,0.138239,0.039893,-0.989595,0.071508,-0.039328,0.016740,17.401701,-11.296072,6.077385,,,,,,,
1512180833.803938,0.138453,-0.039030,0.619448,0.027370,-0.016421,0.118323,0.137906,0.039020,-0.989676,0.025164,-0.018451,0.008063,17.403013,-10.996069,6.002525,,,,,,,
1512180833.823927,0.138002,-0.038444,0.621650,0.011442,-0.027113,0.114860,0.137462,0.038434,-0.989761,0.010136,0.034701,-0.033661,17.176283,-11.371405,5.929268,,,,,,,
1512180833.843916,0.137771,-0.037827,0.623730,0.019033,-0.019616,0.106464,0.137238,0.037818,-0.989816,0.022858,-0.043143,-0.066397,17.550154,-11.595846,5.700966,,,,,,,
1512180833.863935,0.137398,-0.037008,0.625697,0.027594,-0.020667,0.104452,0.136872,0.036999,-0.989897,0.026519,-0.039258,-0.026811,17.023100,-12.046637,5.630226,,,,,,,
1512180833.883924,0.136804,-0.036417,0.627536,0.013870,-0.034557,0.095677,0.136288,0.036409,-0.990000,0.004993,-0.012208,0.014872,17.246107,-12.496298,5.703102,,,,,,,
1512180833.903913,0.136159,-0.035819,0.629249,0.018269,-0.039875,0.087193,0.135652,0.035811,-0.990109,-0.012452,-0.046477,0.003201,16.949476,-11.746756,5.706001,,,,,,,
1512180833.923933,0.135323,-0.035184,0.630824,0.016269,-0.050543,0.078598,0.134826,0.035177,-0.990245,0.015961,-0.028066,0.015971,17.095015,-12.721533,5.554283,,,,,,,
1512180833.943922,0.134503,-0.034612,0.632319,0.015268,-0.044125,0.075410,0.134018,0.034606,-0.990374,-0.001816,-0.017012,0.019473,16.872450,-12.196875,5.706429,,,,,,,
1512180833.963911,0.133727,-0.033962,0.633675,0.024938,-0.036632,0.070242,0.133251,0.033955,-0.990500,-0.014645,-0.028691,-0.031289,17.247038,-12.271307,5.553215,,,,,,,
1512180833.983900,0.132942,-0.033354,0.634893,0.013388,-0.046239,0.059382,0.132477,0.033348,-0.990625,0.016434,-0.006004,0.025857,17.244383,-12.871313,5.627937,,,,,,,
1512180834.003919,0.132266,-0.032819,0.636095,0.020837,-0.038752,0.060582,0.131810,0.032813,-0.990732,0.017985,-0.029563,0.001092,17.097044,-12.271536,5.554482,,,,,,,
1512180834.023908,0.131675,-0.032290,0.637247,0.016571,-0.036625,0.060526,0.131227,0.032284,-0.990826,-0.051042,-0.006909,0.010114,17.171751,-12.346426,5.628822,,,,,,,
1512180834.043897,0.131059,-0.031814,0.638315,0.011382,-0.036616,0.051923,0.130618,0.031809,-0.990922,-0.002383,-0.016596,-0.007567,16.945356,-12.646749,5.555580,,,,,,,
1512180834.063917,0.130381,-0.031220,0.639403,0.023031,-0.038744,0.056348,0.129949,0.031215,-0.991029,0.001155,-0.035030,-0.003050,16.869825,-12.796881,5.856163,,,,,,,
1512180834.083906,0.129681,-0.030614,0.640467,0.020927,-0.035537,0.055264,0.129257,0.030610,-0.991139,-0.028824,-0.016190,0.009266,17.018812,-13.021643,5.854774,,,,,,,
1512180834.103895,0.129135,-0.030077,0.641508,0.021965,-0.016309,0.058547,0.128718,0.030072,-0.991225,0.000204,-0.013562,-0.035737,17.023207,-12.046637,5.855232,,,,,,,
1512180834.123914,0.128826,-0.029462,0.642502,0.026248,-0.003486,0.057586,0.128414,0.029458,-0.991283,-0.029919,-0.025002,-0.006230,17.023207,-12.046637,5.855232,,,,,,,
1512180834.143903,0.128607,-0.028940,0.643470,0.020996,-0.010956,0.053222,0.128199,0.028936,-0.991326,-0.031992,-0.050359,0.001046,17.022535,-12.196646,5.855156,,,,,,,
1512180834.163892,0.128412,-0.028395,0.644312,0.021189,-0.012008,0.040424,0.128008,0.028391,-0.991367,-0.033556,-0.004724,0.017688,16.721434,-12.422094,5.707603,,,,,,,
1512180834.183881,0.128089,-0.028057,0.645188,0.008396,-0.012029,0.040238,0.127688,0.028053,-0.991417,0.062131,0.037361,-0.050590,16.570768,-12.572317,5.708809,,,,,,,
1512180834.203901,0.128124,-0.027531,0.646088,0.026468,0.008290,0.044837,0.127726,0.027527,-0.991427,-0.030970,-0.063904,-0.065595,16.794828,-12.796988,5.856789,,,,,,,
1512180834.223890,0.128460,-0.026835,0.646782,0.024376,0.012557,0.041619,0.128061,0.026832,-0.991403,-0.069269,-0.025016,0.055368,17.022306,-12.271643,6.080116,,,,,,,
1512180834.243879,0.128513,-0.026402,0.647364,0.013809,-0.003463,0.036084,0.128115,0.026399,-0.991408,-0.021105,-0.004289,0.056654,16.647230,-12.272207,5.933311,,,,,,,
1512180834.263899,0.128589,-0.025857,0.648051,0.023540,-0.000229,0.027707,0.128192,0.025854,-0.991412,0.009442,-0.058187,-0.013562,16.871885,-12.346869,5.931358,,,,,,,
1512180834.283888,0.128572,-0.025354,0.648712,0.022419,0.002965,0.030898,0.128177,0.025352,-0.991427,0.006451,-0.003852,-0.073926,16.418028,-13.172552,5.634804,,,,,,,
1512180834.303877,0.128310,-0.025051,0.649233,-0.001027,-0.030177,0.029380,0.127918,0.025048,-0.991468,-0.027759,-0.015313,0.027601,16.491377,-13.547445,5.708992,,,,,,,
1512180834.323896,0.128269,-0.024785,0.649749,0.009703,-0.004518,0.026426,0.127879,0.024782,-0.991480,0.027639,-0.059893,0.027933,16.795393,-12.646978,5.631859,,,,,,,
1512180834.343885,0.128155,-0.024638,0.650237,0.005377,0.012555,0.030686,0.127766,0.024636,-0.991498,-0.022007,-0.050225,0.013547,16.570127,-12.722326,5.783745,,,,,,,
1512180834.363874,0.128094,-0.024520,0.650699,0.000115,-0.013080,0.025190,0.127705,0.024518,-0.991509,0.015972,-0.043881,0.067742,16.794188,-12.946981,5.931725,,,,,,,
1512180834.383863,0.128155,-0.024436,0.651160,-0.000840,-0.003456,0.018813,0.127766,0.024433,-0.991503,0.002849,-0.047566,0.014193,16.645735,-12.572210,5.633171,,,,,,,
1512180834.403883,0.127983,-0.024421,0.651571,-0.001927,-0.014139,0.019827,0.127596,0.024419,-0.991526,-0.018206,-0.029515,0.014871,16.343107,-13.172659,5.785454,,,,,,,
1512180834.423872,0.127530,-0.024537,0.651953,-0.007214,-0.030163,0.016496,0.127146,0.024535,-0.991580,0.079427,-0.036757,-0.027142,16.720350,-12.722097,6.232460,,,,,,,
1512180834.443861,0.126890,-0.024715,0.652383,-0.011499,-0.032309,0.017493,0.126511,0.024712,-0.991657,0.079880,-0.054589,0.001164,16.796934,-12.346975,6.006996,,,,,,,
1512180834.463880,0.126139,-0.024973,0.652759,-0.013762,-0.031264,0.024923,0.125766,0.024971,-0.991746,-0.063785,-0.050911,0.039155,16.799253,-11.821981,5.932243,,,,,,,
1512180834.483869,0.125557,-0.025158,0.653039,-0.019975,-0.034453,0.014164,0.125187,0.025155,-0.991814,-0.039540,-0.029931,0.068612,16.722120,-12.347097,6.382637,,,,,,,
1512180834.503858,0.125115,-0.025376,0.653389,-0.011236,-0.016261,0.001558,0.124748,0.025374,-0.991864,0.069710,-0.028761,-0.048465,16.795057,-12.721991,5.631828,,,,,,,
1512180834.523847,0.124744,-0.025647,0.653831,-0.027553,-0.030205,0.021532,0.124379,0.025644,-0.991903,-0.020452,-0.042032,0.037558,16.719969,-12.722097,5.482460,,,,,,,
1512180834.543867,0.124687,-0.025932,0.654168,-0.015849,-0.009903,0.022834,0.124322,0.025929,-0.991903,-0.039667,-0.046727,0.039434,16.949217,-11.821753,5.855965,,,,,,,
1512180834.563856,0.124698,-0.026231,0.654576,-0.016758,0.008273,0.014356,0.124332,0.026228,-0.991894,0.005795,-0.031461,-0.017795,17.175535,-11.521414,5.779198,,,,,,,
1512180834.583845,0.124762,-0.026626,0.655010,-0.018988,0.002923,0.020704,0.124395,0.026623,-0.991876,-0.013539,-0.024120,-0.000815,17.024336,-11.821646,6.080330,,,,,,,
1512180834.603864,0.124946,-0.026894,0.655415,-0.022219,0.006118,0.022801,0.124576,0.026891,-0.991846,-0.039569,-0.031805,0.031381,16.572981,-12.122305,6.084023,,,,,,,
1512180834.623853,0.124956,-0.027176,0.655747,-0.016786,-0.002405,0.016454,0.124585,0.027172,-0.991837,-0.029095,-0.025860,-0.016922,16.945204,-12.721762,5.930550,,,,,,,
1512180834.643842,0.124889,-0.027475,0.656128,-0.019952,-0.013092,0.013170,0.124518,0.027472,-0.991837,0.069360,-0.039801,0.005799,16.571211,-12.497320,5.933846,,,,,,,
1512180834.663862,0.124777,-0.027671,0.656481,-0.012596,-0.002408,0.020779,0.124406,0.027668,-0.991846,-0.012696,-0.017826,-0.009345,16.796736,-12.421988,6.306969,,,,,,,
1512180834.683851,0.124417,-0.027934,0.656685,-0.013555,-0.019488,0.013242,0.124048,0.027930,-0.991883,0.001822,0.007348,-0.028289,17.174376,-11.821417,6.154060,,,,,,,
1512180834.703840,0.124027,-0.028232,0.656919,-0.011286,-0.028019,0.003647,0.123660,0.028229,-0.991923,0.076581,-0.027008,-0.043676,17.022871,-12.121634,5.855186,,,,,,,
1512180834.723829,0.123658,-0.028450,0.657161,-0.013497,-0.015215,0.008990,0.123293,0.028446,-0.991962,0.026273,-0.024418,-0.014477,17.098173,-12.046530,5.779594,,,,,,,
1512180834.743849,0.123303,-0.028727,0.657302,-0.012447,-0.022689,0.010046,0.122940,0.028723,-0.991998,-0.012695,-0.016730,0.006372,16.645170,-12.722204,5.858101,,,,,,,
1512180834.763822,0.122950,-0.029000,0.657490,-0.013442,-0.028021,0.005750,0.122589,0.028996,-0.992034,0.042999,-0.017888,-0.009523,17.022612,-12.196646,6.005165,,,,,,,
1512180834.783811,0.122311,-0.029347,0.657691,-0.017675,-0.032297,0.003542,0.121954,0.029343,-0.992102,0.030893,-0.033326,-0.021127,17.099333,-11.821524,6.079689,,,,,,,
1512180834.803830,0.121328,-0.029571,0.657941,-0.016715,-0.056874,0.008801,0.120978,0.029566,-0.992215,0.010553,-0.036448,0.050015,17.175718,-11.521414,6.154198,,,,,,,
1512180834.823819,0.120052,-0.029836,0.658201,-0.023246,-0.067583,0.016130,0.119711,0.029831,-0.992361,0.016520,-0.025635,0.013479,16.874434,-11.821859,6.306602,,,,,,,
1512180834.843808,0.119129,-0.030181,0.658469,-0.019876,-0.052602,0.006637,0.118793,0.030177,-0.992460,0.056927,-0.037409,0.013701,16.800749,-11.521978,6.232384,,,,,,,
1512180834.863828,0.118557,-0.030621,0.658759,-0.020943,-0.023768,0.007787,0.118224,0.030616,-0.992515,0.037156,-0.027854,0.004676,16.798613,-11.971975,6.007179,,,,,,,
1512180834.883817,0.117750,-0.031103,0.659112,-0.026571,-0.032354,0.025800,0.117422,0.031098,-0.992595,-0.050573,-0.045319,0.040340,16.949095,-11.896749,6.305931,,,,,,,
1512180834.903806,0.116978,-0.031521,0.659377,-0.022136,-0.038735,0.015182,0.116653,0.031516,-0.992673,-0.021560,-0.049628,0.042325,16.874998,-11.671865,6.081673,,,,,,,
1512180834.923795,0.116422,-0.031992,0.659760,-0.025202,-0.021636,0.007733,0.116099,0.031987,-0.992722,0.058553,-0.047047,0.020509,16.949583,-11.746756,5.931007,,,,,,,
1512180834.943814,0.115692,-0.032509,0.660126,-0.029762,-0.035566,0.024674,0.115373,0.032503,-0.992790,-0.092760,-0.041246,0.079063,16.799406,-11.821981,6.232246,,,,,,,
1512180834.963803,0.115168,-0.032983,0.660402,-0.023115,-0.023778,0.009886,0.114851,0.032977,-0.992835,-0.063093,-0.033542,0.038657,17.023985,-11.896643,6.080299,,,,,,,
1512180834.983792,0.114822,-0.033482,0.660788,-0.027314,-0.010959,0.006672,0.114506,0.033476,-0.992858,0.036831,-0.052000,0.031219,16.874739,-11.671865,5.556679,,,,,,,
1512180835.003812,0.114578,-0.033923,0.661179,-0.020033,-0.004557,0.018529,0.114262,0.033916,-0.992872,-0.038593,-0.039577,0.037610,16.798918,-11.896978,5.932213,,,,,,,
1512180835.023801,0.114464,-0.034417,0.661436,-0.025346,-0.008835,0.017371,0.114147,0.034410,-0.992868,-0.055736,-0.035936,0.033685,16.797758,-12.196981,6.307076,,,,,,,
1512180835.043790,0.114536,-0.034832,0.661713,-0.024113,0.000793,0.006758,0.114217,0.034825,-0.992845,0.014750,-0.031163,0.026750,17.023314,-12.046637,6.080223,,,,,,,
1512180835.063779,0.114637,-0.035262,0.662045,-0.018834,0.010414,0.011135,0.114315,0.035255,-0.992819,-0.001064,-0.039863,0.018423,16.723356,-12.047094,6.157784,,,,,,,
1512180835.083798,0.114850,-0.035695,0.662307,-0.020988,0.016812,0.012190,0.114525,0.035687,-0.992779,-0.016609,-0.038556,0.001095,16.796553,-12.421988,5.931969,,,,,,,
1512180835.103787,0.115008,-0.036111,0.662569,-0.023185,0.012525,0.015339,0.114680,0.036103,-0.992746,-0.029017,-0.030702,0.004770,16.946898,-12.346762,5.930717,,,,,,,
1512180835.123776,0.114975,-0.036505,0.662848,-0.020992,-0.009891,0.011031,0.114646,0.036497,-0.992736,-0.002539,-0.047682,0.013442,16.872160,-12.271872,5.781395,,,,,,,
1512180835.143796,0.114890,-0.036934,0.663180,-0.024186,-0.010962,0.010982,0.114559,0.036926,-0.992730,0.033085,-0.051315,0.033486,17.097197,-12.271536,5.854485,,,,,,,
1512180835.163785,0.114890,-0.037350,0.663544,-0.016817,0.011467,0.017562,0.114557,0.037342,-0.992715,0.004919,-0.038990,0.010140,16.947599,-12.196753,6.005791,,,,,,,
1512180835.183774,0.115093,-0.037785,0.663957,-0.018904,0.016812,0.015420,0.114757,0.037776,-0.992675,0.004856,-0.022288,-0.015443,17.023909,-11.896643,5.930290,,,,,,,
1512180835.203793,0.115201,-0.038179,0.664292,-0.023230,-0.006704,0.017405,0.114863,0.038170,-0.992648,0.007330,-0.045677,0.007678,17.250090,-11.671301,6.228493,,,,,,,
1512180835.223782,0.115154,-0.038547,0.664597,-0.023230,-0.005636,0.017408,0.114814,0.038537,-0.992639,0.012139,-0.036554,0.014337,17.399290,-11.821081,6.002144,,,,,,,
1512180835.243771,0.114994,-0.039043,0.664893,-0.027452,-0.005636,0.015217,0.114653,0.039034,-0.992638,-0.035857,-0.050630,-0.022987,16.949247,-11.821753,5.930962,,,,,,,
1512180835.263760,0.114812,-0.039590,0.665118,-0.032609,-0.012031,0.004459,0.114471,0.039580,-0.992638,0.018678,-0.049223,-0.007026,17.174330,-11.821417,6.079048,,,,,,,
1512180835.283780,0.114598,-0.040226,0.665374,-0.032658,-0.019517,0.006562,0.114255,0.040215,-0.992637,0.039233,-0.048211,0.017417,17.400007,-11.671072,6.077217,,,,,,,
1512180835.303769,0.114329,-0.040903,0.665564,-0.034768,-0.017380,0.005474,0.113984,0.040892,-0.992641,0.009551,-0.043043,0.015254,17.250944,-11.446295,5.928596,,,,,,,
1512180835.323758,0.114191,-0.041678,0.665748,-0.041144,0.002908,0.005453,0.113844,0.041666,-0.992625,-0.011717,-0.032327,-0.003851,17.401701,-11.296072,6.077385,,,,,,,
1512180835.343778,0.114071,-0.042486,0.665952,-0.041206,0.005039,0.009726,0.113721,0.042473,-0.992604,-0.024106,-0.036339,0.001042,17.327070,-11.221182,6.153069,,,,,,,
1512180835.363767,0.114110,-0.043291,0.666113,-0.038990,-0.001362,0.003335,0.113756,0.043278,-0.992566,-0.008532,-0.020771,0.000058,17.025984,-11.446630,6.005501,,,,,,,
1512180835.383756,0.114183,-0.044151,0.666301,-0.040062,0.001843,0.004399,0.113824,0.044137,-0.992520,-0.002694,-0.028893,-0.018649,17.400084,-11.671072,6.227211,,,,,,,
1512180835.403775,0.114177,-0.044957,0.666445,-0.047537,-0.000312,0.004280,0.113814,0.044942,-0.992485,-0.050932,-0.035283,0.043617,16.950300,-11.596746,6.006081,,,,,,,
1512180835.423764,0.114090,-0.045894,0.666634,-0.050634,-0.008841,-0.001120,0.113722,0.045877,-0.992453,0.006532,-0.022440,0.021139,17.174711,-11.746420,6.154091,,,,,,,
1512180835.443753,0.114016,-0.046815,0.666822,-0.049614,-0.005646,0.001034,0.113645,0.046798,-0.992419,-0.010114,-0.022918,0.030337,17.400053,-11.671072,6.152214,,,,,,,
1512180835.463742,0.113996,-0.047715,0.666986,-0.043223,-0.005632,0.002197,0.113620,0.047697,-0.992379,0.008786,0.005511,0.022347,17.475447,-11.595968,6.301613,,,,,,,
1512180835.483762,0.114142,-0.048596,0.667171,-0.044300,0.011453,0.003305,0.113759,0.048577,-0.992320,0.013575,-0.019479,0.004069,17.400267,-11.596075,5.927238,,,,,,,
1512180835.503751,0.114445,-0.049398,0.667337,-0.042259,0.022121,0.008699,0.114056,0.049378,-0.992246,-0.052380,-0.011444,0.056547,17.324781,-11.671194,5.627846,,,,,,,
1512180835.523740,0.114937,-0.050194,0.667508,-0.035885,0.027466,0.009874,0.114540,0.050173,-0.992151,-0.022590,-0.000124,0.006296,17.472425,-12.195974,5.626335,,,,,,,
1512180835.543759,0.115517,-0.050841,0.667714,-0.031579,0.027481,0.007807,0.115111,0.050819,-0.992052,-0.001296,-0.003929,0.010194,17.401960,-11.221075,5.927422,,,,,,,
