timestamp(unix),attitude_roll(radians),attitude_pitch(radians),attitude_yaw(radians),rotation_rate_x(radians/s),rotation_rate_y(radians/s),rotation_rate_z(radians/s),gravity_x(G),gravity_y(G),gravity_z(G),user_acc_x(G),user_acc_y(G),user_acc_z(G),magnetic_field_x(microteslas),magnetic_field_y(microteslas),magnetic_field_z(microteslas),latitude(degree),longitude(degree),altitude(meter),speed(m/s),course(degree),timestamp(unix),User Mark
1512180456.390113,0.103063,0.063717,0.750960,-0.000270,0.000573,0.000212,0.102672,-0.063674,-0.992675,-0.015377,0.009764,0.012191,57.045528,20.084476,79.498199,,,,,,,
1512180456.410102,0.103059,0.063673,0.750962,-0.001330,-0.000493,0.000194,0.102668,-0.063630,-0.992678,-0.003989,0.012696,0.000689,57.193874,19.709690,79.571747,,,,,,,
1512180456.430053,0.103068,0.063682,0.750955,-0.003468,0.000569,0.000164,0.102677,-0.063639,-0.992677,-0.015412,0.005335,0.014390,56.741360,19.184010,79.275330,,,,,,,
1512180456.450042,0.103041,0.063655,0.750967,-0.000246,-0.001556,-0.000861,0.102650,-0.063612,-0.992681,-0.001195,0.007811,-0.005350,56.966778,19.259357,79.423447,,,,,,,
1512180456.470061,0.103041,0.063688,0.750963,-0.003490,0.000564,0.001227,0.102651,-0.063645,-0.992679,-0.016927,0.009965,0.019733,56.966702,19.259357,79.273453,,,,,,,
1512180456.490050,0.103036,0.063636,0.750977,-0.000269,-0.000493,0.000205,0.102645,-0.063593,-0.992683,0.001252,0.010233,-0.004830,56.971264,20.234364,79.648895,,,,,,,
1512180456.510039,0.103037,0.063653,0.750958,-0.001345,0.000568,0.000190,0.102646,-0.063610,-0.992682,-0.018571,0.005046,0.015555,56.517818,19.483677,79.502380,,,,,,,
1512180456.530059,0.103044,0.063646,0.750957,0.000803,-0.000496,-0.000849,0.102654,-0.063603,-0.992682,-0.000451,0.009510,-0.006067,56.895107,20.009235,79.349426,,,,,,,
1512180456.550048,0.103044,0.063678,0.750953,-0.002422,-0.000508,0.000167,0.102653,-0.063635,-0.992680,-0.016883,0.010931,0.016316,56.817333,19.409122,79.199783,,,,,,,
1512180456.570037,0.103047,0.063657,0.750948,0.000798,-0.001566,-0.000854,0.102657,-0.063614,-0.992681,-0.001720,0.008042,-0.002925,56.743084,19.559010,79.350494,,,,,,,
1512180456.590055,0.103025,0.063669,0.750935,-0.003491,-0.000512,0.000151,0.102635,-0.063626,-0.992682,-0.013249,0.006528,0.019538,56.594051,19.783787,79.276886,,,,,,,
1512180456.610044,0.103002,0.063649,0.750924,0.001850,-0.001572,-0.000842,0.102611,-0.063606,-0.992686,-0.000896,0.005852,-0.006078,56.744137,19.784016,79.425598,,,,,,,
1512180456.630033,0.102996,0.063671,0.750921,-0.002406,0.000561,-0.000894,0.102606,-0.063628,-0.992685,-0.018179,0.012130,0.024835,56.744854,19.934010,79.500671,,,,,,,
1512180456.650054,0.102982,0.063625,0.750918,0.000781,-0.001575,-0.000856,0.102592,-0.063582,-0.992689,0.003823,0.008284,-0.010134,56.892483,19.409229,79.499161,,,,,,,
1512180456.670043,0.102977,0.063625,0.750912,-0.002419,-0.000513,-0.000899,0.102587,-0.063582,-0.992690,-0.019808,0.005980,0.020903,56.591808,19.258793,79.501633,,,,,,,
1512180456.690032,0.102973,0.063608,0.750912,0.001824,0.000558,0.000232,0.102584,-0.063565,-0.992691,0.002336,0.004361,-0.008468,56.896191,20.234241,79.499542,,,,,,,
1512180456.710021,0.102956,0.063607,0.750910,-0.003486,-0.000513,-0.000913,0.102566,-0.063564,-0.992693,-0.016415,0.009136,0.023394,56.745266,20.009022,79.650711,,,,,,,
1512180456.730040,0.102949,0.063577,0.750922,-0.000304,-0.000508,0.000201,0.102559,-0.063534,-0.992696,0.000392,0.009930,-0.007014,56.818951,19.709126,79.724930,,,,,,,
1512180456.750029,0.102925,0.063573,0.750921,-0.005616,-0.001579,-0.000945,0.102535,-0.063530,-0.992699,-0.011746,0.007393,0.023231,56.669811,19.933903,79.426300,,,,,,,
1512180456.770019,0.102906,0.063566,0.750925,0.000765,-0.001574,-0.000855,0.102517,-0.063524,-0.992701,-0.003411,0.003587,-0.010488,56.595974,20.158787,79.727051,,,,,,,
1512180456.790038,0.102894,0.063599,0.750937,-0.003538,-0.001584,0.001215,0.102505,-0.063556,-0.992700,-0.016904,0.011066,0.026803,56.216351,19.183231,79.279785,,,,,,,
1512180456.810027,0.102892,0.063562,0.750939,-0.000289,0.001641,-0.000855,0.102503,-0.063520,-0.992703,0.002935,0.004560,-0.010395,56.520443,20.083683,79.352646,,,,,,,
1512180456.830016,0.102895,0.063566,0.750916,-0.002427,0.000570,-0.000891,0.102506,-0.063524,-0.992702,-0.016080,0.008851,0.021709,56.744396,19.859013,79.275635,,,,,,,
1512180456.850035,0.102898,0.063565,0.750899,0.001828,0.000575,-0.000831,0.102509,-0.063522,-0.992702,0.002944,0.002853,-0.010640,56.669170,19.783909,79.501236,,,,,,,
1512180456.870024,0.102897,0.063573,0.750886,-0.003501,0.000569,-0.000907,0.102508,-0.063531,-0.992701,-0.019577,0.011285,0.026530,56.519878,19.933674,79.577576,,,,,,,
1512180456.890013,0.102886,0.063539,0.750882,-0.001361,-0.000489,-0.000876,0.102498,-0.063496,-0.992705,0.000011,0.006245,-0.010195,56.515423,18.958683,79.427124,,,,,,,
1512180456.910033,0.102874,0.063524,0.750888,-0.004583,-0.001566,0.000139,0.102486,-0.063481,-0.992707,-0.013618,0.007847,0.021012,56.895184,20.009235,79.499435,,,,,,,
1512180456.930022,0.102842,0.063518,0.750882,0.000780,-0.000486,-0.001910,0.102454,-0.063475,-0.992710,-0.004798,0.004515,-0.011242,56.970226,20.009357,79.573792,,,,,,,
1512180456.950011,0.102829,0.063517,0.750881,-0.004572,-0.001566,-0.000925,0.102441,-0.063475,-0.992712,-0.015634,0.010252,0.028295,56.745220,20.009022,79.575699,,,,,,,
1512180456.970031,0.102817,0.063493,0.750876,-0.000304,0.000580,-0.000854,0.102429,-0.063450,-0.992715,0.003375,0.002323,-0.018165,56.819851,19.934132,79.500031,,,,,,,
1512180456.990020,0.102812,0.063514,0.750868,-0.001389,-0.001559,0.000191,0.102424,-0.063472,-0.992714,-0.018668,0.010508,0.020454,56.819469,19.859135,79.425003,,,,,,,
1512180457.010009,0.102792,0.063492,0.750874,0.000736,0.000577,0.000229,0.102404,-0.063449,-0.992717,-0.000582,0.005222,-0.012379,56.744930,20.009022,78.975708,,,,,,,
1512180457.029998,0.102776,0.063495,0.750862,-0.002443,0.000576,-0.000881,0.102388,-0.063453,-0.992719,-0.016512,0.012427,0.025617,57.119778,19.934574,79.347488,,,,,,,
1512180457.050017,0.102764,0.063491,0.750877,0.000706,-0.000490,0.002362,0.102377,-0.063448,-0.992720,0.001459,0.004503,-0.016481,57.193844,19.709690,79.496750,,,,,,,
1512180457.070006,0.102751,0.063496,0.750881,-0.002467,-0.000494,0.000183,0.102363,-0.063453,-0.992721,-0.013496,0.013664,0.021042,56.744884,19.934010,79.575668,,,,,,,
1512180457.089994,0.102745,0.063508,0.750857,0.002881,0.000587,-0.000799,0.102358,-0.063465,-0.992721,-0.002489,0.003040,-0.011918,56.593761,19.708790,79.351837,,,,,,,
1512180457.110014,0.102728,0.063495,0.750852,-0.004599,-0.001560,0.000153,0.102341,-0.063453,-0.992724,-0.016510,0.012915,0.027819,56.894848,19.934238,79.499405,,,,,,,
1512180457.130003,0.102733,0.063470,0.750843,0.000746,-0.000481,-0.000831,0.102346,-0.063428,-0.992725,0.001231,0.005460,-0.016003,57.045818,20.159473,79.423218,,,,,,,
1512180457.149992,0.102727,0.063464,0.750848,-0.004601,-0.000489,0.000160,0.102340,-0.063421,-0.992726,-0.018355,0.010702,0.021931,56.820599,20.084141,79.650101,,,,,,,
1512180457.170012,0.102731,0.063457,0.750831,0.000759,-0.001544,-0.001897,0.102344,-0.063414,-0.992726,0.001675,0.001769,-0.012340,56.745754,20.159016,79.275772,,,,,,,
1512180457.190001,0.102715,0.063438,0.750816,-0.003503,-0.000479,-0.001953,0.102328,-0.063395,-0.992729,-0.019107,0.013606,0.023887,56.744091,19.784016,79.350601,,,,,,,
1512180457.209990,0.102700,0.063420,0.750811,0.000746,-0.000471,-0.000822,0.102313,-0.063378,-0.992731,-0.000720,0.004418,-0.013830,56.819775,19.934132,79.350037,,,,,,,
1512180457.230010,0.102687,0.063397,0.750807,-0.004596,-0.000484,-0.000901,0.102301,-0.063355,-0.992734,-0.017630,0.011124,0.024640,56.368725,19.708454,79.278763,,,,,,,
1512180457.249999,0.102682,0.063391,0.750796,0.001802,0.000597,-0.000802,0.102296,-0.063348,-0.992735,-0.003129,0.003656,-0.013872,56.895107,20.009235,79.349426,,,,,,,
1512180457.269988,0.102675,0.063381,0.750813,-0.003527,-0.000470,0.000189,0.102289,-0.063338,-0.992736,-0.013955,0.014770,0.024215,56.745190,20.009022,79.500702,,,,,,,
1512180457.290008,0.102641,0.063374,0.750812,0.001793,-0.002601,0.000259,0.102256,-0.063332,-0.992740,0.000634,0.004387,-0.018429,56.519955,19.933674,79.727585,,,,,,,
1512180457.309997,0.102633,0.063380,0.750828,-0.002463,0.001669,0.000214,0.102247,-0.063338,-0.992741,-0.020445,0.012816,0.020710,56.741695,19.259007,79.275360,,,,,,,
1512180457.329986,0.102620,0.063381,0.750843,0.000727,-0.000463,0.000253,0.102234,-0.063339,-0.992742,0.000854,0.003417,-0.015254,56.671566,20.308903,79.576477,,,,,,,
1512180457.349975,0.102613,0.063374,0.750849,-0.003528,0.000605,0.000198,0.102228,-0.063332,-0.992743,-0.017801,0.016701,0.024649,56.521526,20.308689,79.502762,,,,,,,
1512180457.369993,0.102615,0.063367,0.750832,0.001817,-0.000452,-0.000793,0.102229,-0.063324,-0.992743,0.000157,0.004868,-0.017709,56.521526,20.308689,79.502762,,,,,,,
1512180457.389982,0.102610,0.063349,0.750844,-0.001398,0.000610,0.000231,0.102225,-0.063307,-0.992745,-0.012839,0.011824,0.019371,56.445370,20.083576,79.203293,,,,,,,
1512180457.409971,0.102621,0.063344,0.750844,0.000750,0.001684,-0.000799,0.102236,-0.063302,-0.992744,-0.008425,0.003365,-0.014672,56.519390,19.858677,79.277557,,,,,,,
1512180457.429999,0.102635,0.063326,0.750856,-0.004591,0.000610,0.000188,0.102249,-0.063284,-0.992744,-0.017105,0.015936,0.024665,56.520077,20.008686,79.277618,,,,,,,
1512180457.449988,0.102647,0.063344,0.750827,0.003965,-0.000443,-0.001824,0.102262,-0.063301,-0.992741,0.006503,0.001686,-0.020045,56.444958,19.933567,79.728226,,,,,,,
1512180457.469977,0.102695,0.063316,0.750835,-0.005649,0.005953,0.000195,0.102309,-0.063274,-0.992738,-0.028761,0.013240,0.018861,56.520489,20.083683,79.427643,,,,,,,
1512180457.489996,0.102692,0.063337,0.750828,0.001848,0.000631,-0.001845,0.102306,-0.063295,-0.992737,0.006123,0.003618,-0.014694,56.520596,20.083683,79.652649,,,,,,,
1512180457.509985,0.102681,0.063313,0.750819,-0.002438,0.000620,-0.000841,0.102295,-0.063271,-0.992740,-0.014908,0.014458,0.021762,56.369213,19.783451,79.578781,,,,,,,
1512180457.529974,0.102652,0.063307,0.750803,0.000746,-0.000442,0.000270,0.102267,-0.063264,-0.992743,-0.004717,0.003343,-0.019738,56.594952,19.933796,79.726944,,,,,,,
1512180457.549994,0.102639,0.063291,0.750821,-0.003520,-0.002585,0.000201,0.102254,-0.063249,-0.992746,-0.013829,0.013963,0.018136,56.521191,20.233677,79.502716,,,,,,,
1512180457.569983,0.102649,0.063301,0.750803,0.001836,0.000634,-0.000773,0.102264,-0.063259,-0.992744,-0.003509,0.005779,-0.018975,56.520519,20.083683,79.502655,,,,,,,
1512180457.589972,0.102652,0.063280,0.750832,-0.004600,-0.000451,0.001261,0.102266,-0.063238,-0.992745,-0.015123,0.016378,0.021523,56.368679,19.708454,79.203751,,,,,,,
1512180457.609961,0.102640,0.063269,0.750843,0.000769,-0.000437,-0.000792,0.102255,-0.063227,-0.992747,0.003611,0.004054,-0.022024,56.370403,20.083454,79.278931,,,,,,,
1512180457.629980,0.102633,0.063253,0.750855,-0.001348,-0.000433,-0.000819,0.102248,-0.063211,-0.992748,-0.013320,0.013925,0.016934,56.520641,20.158680,79.052689,,,,,,,
1512180457.649969,0.102639,0.063246,0.750839,0.001811,0.000633,0.001361,0.102254,-0.063204,-0.992748,-0.007725,0.001070,-0.014179,56.443127,19.558567,79.428040,,,,,,,
1512180457.669958,0.102655,0.063243,0.750824,-0.002422,0.000626,-0.000834,0.102270,-0.063200,-0.992747,-0.015813,0.010985,0.019084,56.820782,20.159138,79.350143,,,,,,,
1512180457.689978,0.102667,0.063238,0.750834,0.002899,0.000635,0.000312,0.102282,-0.063196,-0.992746,0.003354,0.003534,-0.022528,56.520184,20.008686,79.502625,,,,,,,
1512180457.709967,0.102643,0.063217,0.750852,-0.003465,-0.000436,-0.000847,0.102258,-0.063175,-0.992750,-0.016427,0.015125,0.012251,56.370403,20.083454,79.278931,,,,,,,
1512180457.729956,0.102620,0.063218,0.750852,0.000761,-0.000437,0.001345,0.102235,-0.063176,-0.992752,-0.003282,0.004720,-0.016525,56.520489,20.083683,79.427643,,,,,,,
1512180457.749975,0.102599,0.063197,0.750843,-0.002407,-0.000442,-0.000835,0.102214,-0.063155,-0.992756,-0.013256,0.016554,0.014988,56.446499,20.308567,79.428391,,,,,,,
1512180457.769964,0.102578,0.063208,0.750842,0.003961,-0.000433,0.001391,0.102194,-0.063165,-0.992757,0.000010,0.002771,-0.021113,56.743008,19.559010,79.200500,,,,,,,
1512180457.789953,0.102575,0.063188,0.750865,-0.002437,0.000629,0.002370,0.102191,-0.063146,-0.992759,-0.014697,0.015813,0.015464,56.520779,20.158680,79.352692,,,,,,,
1512180457.809973,0.102596,0.063210,0.750858,0.002924,0.000638,0.000314,0.102211,-0.063168,-0.992755,-0.003456,0.001049,-0.018735,56.369732,19.933460,79.278854,,,,,,,
1512180457.829962,0.102590,0.063181,0.750860,-0.001302,-0.000432,-0.001884,0.102205,-0.063139,-0.992758,-0.013506,0.016294,0.015478,56.444057,19.783558,79.278152,,,,,,,
1512180457.849951,0.102603,0.063202,0.750853,0.004011,0.001708,-0.000735,0.102218,-0.063160,-0.992755,-0.001449,0.004475,-0.023328,56.443569,19.633564,79.653091,,,,,,,
1512180457.869971,0.102590,0.063190,0.750849,-0.001299,-0.000427,-0.000815,0.102205,-0.063148,-0.992757,-0.016146,0.016319,0.013494,56.445751,20.158573,79.278320,,,,,,,
1512180457.889960,0.102588,0.063200,0.750816,0.001880,-0.000426,0.000296,0.102203,-0.063158,-0.992757,-0.003754,0.005190,-0.015315,56.669506,19.858906,79.501282,,,,,,,
1512180457.909949,0.102576,0.063173,0.750823,-0.002382,-0.001502,0.000231,0.102192,-0.063131,-0.992759,-0.010365,0.017263,0.018455,56.519726,19.933674,79.277588,,,,,,,
1512180457.929938,0.102555,0.063200,0.750821,0.002957,0.001713,0.000321,0.102171,-0.063158,-0.992760,-0.003675,-0.001158,-0.017753,56.518902,19.708683,79.652481,,,,,,,
1512180457.949957,0.102532,0.063200,0.750832,-0.000234,-0.001492,0.000266,0.102148,-0.063158,-0.992762,-0.014135,0.014376,0.013026,56.518764,19.708683,79.352478,,,,,,,
1512180457.969946,0.102500,0.063240,0.750839,0.004022,-0.004694,0.000315,0.102116,-0.063198,-0.992763,0.004649,0.003521,-0.016881,56.669506,19.858906,79.501282,,,,,,,
1512180457.989935,0.102468,0.063207,0.750847,-0.002369,-0.001499,0.000234,0.102084,-0.063165,-0.992768,-0.010608,0.013666,0.009446,56.668377,19.633900,79.276169,,,,,,,
1512180458.009955,0.102453,0.063227,0.750850,0.002942,-0.000425,0.001380,0.102070,-0.063185,-0.992769,-0.007938,0.002775,-0.020003,56.364971,18.883442,79.203369,,,,,,,
1512180458.029944,0.102416,0.063209,0.750841,0.000831,-0.001491,0.000281,0.102032,-0.063167,-0.992774,-0.011243,0.016108,0.006522,56.593792,19.708790,79.426834,,,,,,,
1512180458.049933,0.102413,0.063239,0.750843,0.004052,0.001724,-0.000726,0.102030,-0.063196,-0.992772,-0.002695,0.005488,-0.025279,56.595409,20.083790,79.277023,,,,,,,
1512180458.069952,0.102391,0.063175,0.750854,-0.005549,-0.001489,0.000192,0.102008,-0.063133,-0.992778,-0.012759,0.019233,0.011852,56.443493,19.633564,79.503082,,,,,,,
1512180458.089941,0.102397,0.063219,0.750840,0.004042,0.001731,0.000341,0.102014,-0.063176,-0.992775,-0.015237,0.002508,-0.016945,56.591732,19.258793,79.351639,,,,,,,
1512180458.109930,0.102400,0.063197,0.750831,-0.000201,0.000663,-0.000789,0.102017,-0.063155,-0.992776,-0.016873,0.016814,0.008859,56.368832,19.708454,79.503754,,,,,,,
1512180458.129950,0.102406,0.063229,0.750807,0.005161,0.000683,-0.001774,0.102023,-0.063186,-0.992773,0.003507,0.006439,-0.016153,56.520412,20.083683,79.277649,,,,,,,
1512180458.149939,0.102405,0.063201,0.750810,0.001922,0.000672,0.000310,0.102022,-0.063159,-0.992775,-0.012666,0.019275,0.005287,56.593792,19.708790,79.426834,,,,,,,
1512180458.169928,0.102421,0.063208,0.750793,0.003011,0.002816,-0.000731,0.102038,-0.063166,-0.992773,-0.013140,0.003230,-0.012537,56.518383,19.633686,79.277451,,,,,,,
1512180458.189917,0.102411,0.063188,0.750785,0.000871,-0.001461,-0.000778,0.102028,-0.063146,-0.992775,-0.004295,0.015874,-0.000434,56.744396,19.859013,79.275635,,,,,,,
1512180458.209936,0.102420,0.063192,0.750747,0.003042,0.002829,-0.001791,0.102037,-0.063150,-0.992774,-0.005876,0.004418,-0.009011,56.744167,19.784016,79.500610,,,,,,,
1512180458.229925,0.102286,0.063122,0.750646,-0.018883,-0.049491,-0.033209,0.101905,-0.063080,-0.992792,0.038766,-0.000595,0.029459,56.595898,20.158787,79.577042,,,,,,,
1512180458.249914,0.102377,0.063176,0.750733,0.001840,0.010289,0.006749,0.101995,-0.063134,-0.992780,-0.024053,0.023003,-0.029956,56.747051,20.459019,79.200912,,,,,,,
1512180458.269934,0.102388,0.063215,0.750692,0.006171,0.000694,0.002517,0.102005,-0.063173,-0.992776,-0.056763,0.006364,-0.011268,56.519238,19.783680,79.652512,,,,,,,
1512180458.289923,0.102342,0.063236,0.750653,-0.000039,-0.017454,-0.010430,0.101960,-0.063194,-0.992779,0.052551,-0.012307,-0.013950,56.518124,19.558674,79.427414,,,,,,,
1512180458.309912,0.102363,0.063189,0.750705,-0.000165,0.009240,-0.000739,0.101980,-0.063147,-0.992780,-0.000265,-0.002908,-0.005023,56.366924,19.258457,79.728546,,,,,,,
1512180458.329932,0.102323,0.063220,0.750693,0.007259,0.003910,0.001485,0.101941,-0.063178,-0.992782,-0.040753,0.013236,-0.017823,56.365688,19.033451,79.278442,,,,,,,
1512180458.349921,0.102295,0.063157,0.750687,-0.000186,-0.005715,-0.000790,0.101913,-0.063115,-0.992789,0.008774,0.007268,0.013404,56.444958,19.933567,79.728226,,,,,,,
1512180458.369910,0.102299,0.063183,0.750691,0.005123,-0.001431,0.001439,0.101917,-0.063141,-0.992787,-0.008304,0.006150,-0.017314,56.444851,19.933567,79.503220,,,,,,,
1512180458.389929,0.102259,0.063162,0.750673,-0.002275,0.000707,-0.001855,0.101877,-0.063120,-0.992792,-0.024027,0.013361,0.008524,56.593166,19.558796,79.501770,,,,,,,
1512180458.409918,0.102257,0.063197,0.750666,0.003032,0.001781,-0.000708,0.101875,-0.063155,-0.992790,-0.015267,0.005874,-0.006462,56.369061,19.783451,79.278793,,,,,,,
1512180458.429868,0.102223,0.063147,0.750670,0.001960,-0.002492,-0.000737,0.101842,-0.063105,-0.992797,-0.000188,0.011439,-0.002305,56.294842,19.933338,79.504501,,,,,,,
1512180458.449888,0.102246,0.063175,0.750637,-0.000167,0.001781,-0.000750,0.101864,-0.063133,-0.992793,-0.013165,0.005348,0.000636,56.219173,19.783222,79.505066,,,,,,,
1512180458.469877,0.102256,0.063141,0.750614,-0.002272,0.002856,-0.001838,0.101874,-0.063099,-0.992794,-0.013053,0.015309,0.008206,56.519848,19.933674,79.502579,,,,,,,
1512180458.489866,0.102265,0.063156,0.750619,0.000891,0.001792,0.000339,0.101883,-0.063114,-0.992792,-0.009186,0.002186,-0.005880,56.518948,19.708683,79.727478,,,,,,,
1512180458.509855,0.102264,0.063110,0.750629,-0.001242,-0.001414,0.000299,0.101883,-0.063068,-0.992795,0.001572,0.008212,0.008191,56.445904,20.158573,79.578323,,,,,,,
1512180458.529874,0.102285,0.063156,0.750616,0.001943,0.002865,0.001429,0.101903,-0.063114,-0.992790,-0.016393,0.006549,0.001808,56.593380,19.633793,79.276810,,,,,,,
1512180458.549863,0.102296,0.063106,0.750610,0.000942,0.001802,-0.002853,0.101915,-0.063064,-0.992792,-0.002443,0.006515,-0.002600,56.367489,19.408451,79.503616,,,,,,,
1512180458.569852,0.102298,0.063118,0.750627,-0.000182,0.000731,0.001397,0.101916,-0.063076,-0.992791,-0.004001,0.001140,0.004190,56.518383,19.633686,79.277451,,,,,,,
1512180458.589872,0.102269,0.063104,0.750634,0.000899,-0.001402,0.000340,0.101888,-0.063063,-0.992795,-0.002050,0.004301,0.005689,56.743755,19.709019,79.350571,,,,,,,
1512180458.609861,0.102251,0.063136,0.750633,0.003033,-0.001397,0.000374,0.101870,-0.063094,-0.992795,-0.007326,-0.004686,0.000958,56.516811,19.258671,79.502274,,,,,,,
1512180458.629850,0.102273,0.063082,0.750666,-0.000180,0.003935,0.001413,0.101892,-0.063040,-0.992796,0.004859,-0.004251,0.000425,56.518459,19.633686,79.427444,,,,,,,
1512180458.649869,0.102279,0.063121,0.750664,0.001941,0.000728,0.001431,0.101898,-0.063079,-0.992793,-0.009872,-0.013749,0.006511,56.590954,19.108784,79.126572,,,,,,,
1512180458.669858,0.102303,0.063116,0.750692,0.001936,-0.000336,0.002497,0.101921,-0.063074,-0.992791,0.003670,-0.019094,-0.003028,56.368206,19.558460,79.578690,,,,,,,
1512180458.689847,0.102326,0.063174,0.750732,0.002981,0.000727,0.003581,0.101944,-0.063132,-0.992785,-0.012481,-0.028085,0.000109,56.368465,19.633457,79.428711,,,,,,,
1512180458.709867,0.102286,0.063186,0.750786,0.000825,-0.001418,0.004606,0.101904,-0.063144,-0.992788,-0.001333,-0.017102,0.006643,56.519207,19.783680,79.577515,,,,,,,
1512180458.729856,0.102281,0.063261,0.750862,0.004019,-0.000340,0.005723,0.101899,-0.063219,-0.992784,-0.019471,-0.028730,-0.002440,56.367702,19.483448,79.278656,,,,,,,
1512180458.749845,0.102258,0.063290,0.750942,0.000852,-0.001410,0.003536,0.101876,-0.063248,-0.992785,0.005836,-0.021851,0.001375,56.517864,19.483677,79.577377,,,,,,,
1512180458.769834,0.102219,0.063328,0.751016,-0.001315,-0.002492,0.004557,0.101836,-0.063286,-0.992786,-0.011947,-0.020897,0.019123,56.592861,19.483784,79.576736,,,,,,,
1512180458.789853,0.102214,0.063399,0.751093,0.001890,0.000723,0.004609,0.101831,-0.063356,-0.992782,-0.007044,-0.023466,0.001907,56.368832,19.708454,79.503754,,,,,,,
1512180458.809842,0.102216,0.063456,0.751176,0.002973,-0.000341,0.003555,0.101832,-0.063413,-0.992778,-0.006007,-0.022173,-0.001988,56.368832,19.708454,79.503754,,,,,,,
1512180458.829831,0.102223,0.063480,0.751251,-0.000213,0.000728,0.003515,0.101839,-0.063437,-0.992776,0.001570,-0.023110,-0.003806,56.368420,19.633457,79.353714,,,,,,,
1512180458.849851,0.102228,0.063514,0.751332,-0.001333,-0.000355,0.005623,0.101844,-0.063471,-0.992773,-0.014335,-0.025106,0.015662,56.069775,19.933002,79.356415,,,,,,,
1512180458.869840,0.102239,0.063540,0.751412,-0.001298,-0.000344,0.004562,0.101855,-0.063497,-0.992771,0.001951,-0.025019,0.002033,56.367825,19.483448,79.503647,,,,,,,
1512180458.889829,0.102237,0.063576,0.751508,-0.000271,0.000721,0.006712,0.101853,-0.063533,-0.992769,-0.005479,-0.025502,0.010194,56.293835,19.708347,79.504395,,,,,,,
1512180458.909849,0.102217,0.063616,0.751614,-0.000266,-0.000351,0.005639,0.101832,-0.063573,-0.992768,0.000310,-0.026897,-0.000198,56.144665,19.858112,79.805740,,,,,,,
1512180458.929838,0.102195,0.063653,0.751758,-0.001367,-0.002491,0.007749,0.101811,-0.063610,-0.992768,-0.006230,-0.023732,0.013596,56.143612,19.633121,79.730637,,,,,,,
1512180458.949827,0.102201,0.063679,0.751886,-0.001312,0.001789,0.004567,0.101816,-0.063636,-0.992766,0.003439,-0.029519,0.003020,56.143841,19.708118,79.505661,,,,,,,
1512180458.969846,0.102202,0.063713,0.752058,-0.001396,-0.000362,0.008820,0.101817,-0.063670,-0.992764,-0.004741,-0.024633,0.011898,56.067181,19.332996,79.581131,,,,,,,
1512180458.989835,0.102199,0.063749,0.752218,-0.000321,-0.000355,0.008839,0.101814,-0.063705,-0.992762,-0.001655,-0.028961,0.001963,56.064709,18.808002,79.355896,,,,,,,
1512180459.009824,0.102174,0.063777,0.752395,-0.001379,-0.002494,0.007749,0.101789,-0.063734,-0.992762,-0.008451,-0.026308,0.017192,55.688732,18.582432,79.433975,,,,,,,
1512180459.029844,0.102128,0.063800,0.752583,-0.000307,-0.002489,0.007767,0.101743,-0.063756,-0.992766,0.004748,-0.029398,0.002058,55.920589,20.082783,79.657761,,,,,,,
1512180459.049833,0.102091,0.063809,0.752783,-0.004630,-0.002505,0.010901,0.101706,-0.063766,-0.992769,-0.010794,-0.024079,0.016435,55.692852,19.482441,79.584381,,,,,,,
1512180459.069822,0.102049,0.063838,0.752986,-0.001420,-0.002499,0.009881,0.101665,-0.063794,-0.992771,-0.002986,-0.026934,0.003162,55.544201,19.782215,79.585800,,,,,,,
1512180459.089811,0.101994,0.063832,0.753193,-0.004598,-0.002500,0.008770,0.101610,-0.063789,-0.992777,-0.006777,-0.023064,0.014567,55.618267,19.557331,79.735062,,,,,,,
1512180459.109830,0.101954,0.063816,0.753394,-0.002493,-0.000367,0.009871,0.101570,-0.063773,-0.992782,-0.008080,-0.026971,0.007476,55.468975,19.707111,79.811401,,,,,,,
1512180459.129819,0.101898,0.063819,0.753600,-0.005708,-0.001440,0.010888,0.101515,-0.063776,-0.992788,-0.010527,-0.022833,0.011342,55.469997,19.932102,79.811508,,,,,,,
1512180459.149808,0.101844,0.063833,0.753826,-0.003561,-0.002502,0.009849,0.101461,-0.063790,-0.992792,-0.001821,-0.030357,0.004175,55.693951,19.707447,79.734497,,,,,,,
1512180459.169828,0.101797,0.063838,0.754059,-0.005707,-0.003571,0.010882,0.101415,-0.063794,-0.992797,-0.013219,-0.022586,0.018370,55.020367,20.006428,79.890366,,,,,,,
1512180459.189817,0.101746,0.063845,0.754280,-0.001437,-0.002492,0.010949,0.101364,-0.063802,-0.992801,0.000229,-0.027415,0.003483,55.244061,19.706760,79.963318,,,,,,,
1512180459.209806,0.101699,0.063835,0.754525,-0.006781,-0.001431,0.011942,0.101317,-0.063792,-0.992807,-0.013746,-0.020620,0.012048,54.869015,19.706211,79.891510,,,,,,,
1512180459.229825,0.101663,0.063869,0.754788,-0.000397,-0.001425,0.012031,0.101281,-0.063826,-0.992808,-0.000115,-0.027132,0.000072,54.569027,19.705753,79.894058,,,,,,,
1512180459.249814,0.101611,0.063840,0.755055,-0.006810,-0.001435,0.013004,0.101229,-0.063796,-0.992815,-0.012744,-0.025758,0.015719,54.346050,20.155415,79.896179,,,,,,,
1512180459.269803,0.101603,0.063846,0.755320,-0.002537,0.000715,0.013076,0.101221,-0.063802,-0.992816,-0.005381,-0.024958,-0.003171,54.346569,20.230427,80.271210,,,,,,,
1512180459.289823,0.101599,0.063826,0.755592,-0.010003,-0.000365,0.012963,0.101218,-0.063783,-0.992818,-0.010627,-0.023101,0.021840,54.045406,20.004963,79.973648,,,,,,,
1512180459.309812,0.101590,0.063863,0.755849,-0.001443,-0.001414,0.010951,0.101209,-0.063819,-0.992816,-0.006909,-0.026909,0.002902,53.819347,19.779621,79.900467,,,,,,,
1512180459.329801,0.101559,0.063840,0.756132,-0.004677,-0.000354,0.013039,0.101178,-0.063797,-0.992821,-0.009671,-0.021820,0.009438,53.368114,19.478947,80.129150,,,,,,,
1512180459.349790,0.101516,0.063870,0.756384,-0.002548,-0.001417,0.013066,0.101135,-0.063827,-0.992823,-0.004929,-0.029832,0.005366,53.669994,19.854404,80.501770,,,,,,,
1512180459.369810,0.101473,0.063866,0.756639,-0.000416,-0.001411,0.013097,0.101092,-0.063822,-0.992828,-0.006534,-0.025442,0.001205,53.143383,19.553623,79.981094,,,,,,,
1512180459.389799,0.101480,0.063846,0.756879,0.002798,-0.000335,0.012081,0.101099,-0.063803,-0.992828,0.000112,-0.027109,-0.018661,53.369579,19.778950,80.354279,,,,,,,
1512180459.409788,0.101504,0.063814,0.757125,-0.008879,0.004999,0.009800,0.101123,-0.063771,-0.992828,-0.029010,-0.015056,0.017669,52.917995,19.478275,79.907974,,,,,,,
1512180459.429780,0.101522,0.063790,0.757350,-0.005699,-0.000336,0.010894,0.101141,-0.063747,-0.992828,0.003961,-0.019673,0.013076,53.144955,19.853611,80.431244,,,,,,,
1512180459.449769,0.101543,0.063729,0.757610,-0.009996,-0.001413,0.012961,0.101163,-0.063686,-0.992829,-0.007214,-0.021244,0.024827,52.994167,19.703388,80.207443,,,,,,,
1512180459.469758,0.101548,0.063754,0.757835,0.001743,-0.000327,0.012068,0.101168,-0.063711,-0.992827,-0.003771,-0.029429,-0.008988,52.770168,19.928059,80.209457,,,,,,,
1512180459.489778,0.101549,0.063677,0.758065,-0.008912,0.002862,0.011925,0.101169,-0.063634,-0.992832,-0.018818,-0.019328,0.018330,52.467129,19.252598,80.211685,,,,,,,
1512180459.509767,0.101556,0.063645,0.758290,-0.003543,-0.001399,0.009855,0.101176,-0.063602,-0.992833,0.003362,-0.021024,0.002599,52.619503,19.777821,80.210663,,,,,,,
1512180459.529756,0.101561,0.063572,0.758497,-0.013138,0.001791,0.010794,0.101182,-0.063529,-0.992838,-0.018479,-0.014093,0.026865,52.317028,19.252369,79.987961,,,,,,,
1512180459.549775,0.101569,0.063592,0.758721,0.004986,-0.002458,0.011911,0.101190,-0.063549,-0.992835,0.004416,-0.027592,-0.019066,52.242886,19.477268,79.688705,,,,,,,
1512180459.569764,0.101564,0.063527,0.758954,-0.004562,-0.001404,0.010517,0.101185,-0.063484,-0.992840,-0.015049,-0.020195,0.009625,52.469753,19.927601,79.387009,,,,,,,
1512180459.589753,0.101530,0.063537,0.759155,-0.002346,0.000749,0.008239,0.101151,-0.063494,-0.992843,-0.010727,-0.031385,0.000900,52.242657,19.477268,79.238708,,,,,,,
1512180459.609742,0.101491,0.063498,0.759362,-0.006668,-0.004614,0.012233,0.101113,-0.063456,-0.992849,-0.002801,-0.027578,0.026373,52.315487,19.027378,78.937866,,,,,,,
1512180459.629762,0.101476,0.063489,0.759535,-0.002311,0.000743,0.008937,0.101098,-0.063446,-0.992851,-0.012856,-0.027771,0.000404,52.466976,19.327595,79.236725,,,,,,,
1512180459.649751,0.101449,0.063469,0.759680,-0.002229,-0.000320,0.005559,0.101071,-0.063426,-0.992855,-0.022290,-0.030507,0.012677,52.012707,18.426914,78.790146,,,,,,,
1512180459.669740,0.101446,0.063460,0.759804,-0.002203,0.001820,0.006465,0.101069,-0.063418,-0.992856,0.007681,-0.027769,-0.002200,52.464291,18.802586,78.561493,,,,,,,
1512180459.689759,0.101447,0.063425,0.759918,-0.007534,0.000737,0.006381,0.101070,-0.063383,-0.992858,-0.027003,-0.027651,0.017959,53.064175,18.803486,78.331390,,,,,,,
1512180459.709748,0.101447,0.063403,0.759993,0.001082,0.002898,0.002251,0.101070,-0.063361,-0.992860,-0.021327,-0.027124,-0.002410,52.913433,18.653263,78.182602,,,,,,,
1512180459.729737,0.101423,0.063368,0.760032,-0.003140,-0.002445,0.000039,0.101046,-0.063325,-0.992864,-0.008333,-0.020094,0.010244,53.287930,18.578831,77.879379,,,,,,,
1512180459.749757,0.101410,0.063290,0.760069,-0.002049,0.000766,0.000068,0.101033,-0.063248,-0.992871,0.005000,-0.022339,-0.000263,53.437267,18.429050,77.878036,,,,,,,
1512180459.769746,0.101369,0.063219,0.760079,-0.007429,-0.000323,0.003182,0.100993,-0.063177,-0.992879,-0.024775,-0.023950,0.020940,53.811779,18.354618,77.574814,,,,,,,
1512180459.789735,0.101339,0.063142,0.760068,-0.007388,0.000744,0.001052,0.100964,-0.063100,-0.992887,-0.011441,-0.025218,0.011426,54.263988,18.880299,77.271225,,,,,,,
1512180459.809754,0.101340,0.063081,0.760034,-0.006265,-0.001383,-0.001069,0.100965,-0.063039,-0.992891,-0.010084,-0.023341,0.018754,54.336483,18.355396,76.970352,,,,,,,
1512180459.829743,0.101327,0.063012,0.760001,0.000162,0.003967,-0.002024,0.100953,-0.062970,-0.992896,-0.015840,-0.017993,-0.002999,54.786510,18.356083,77.041534,,,,,,,
1512180459.849732,0.101347,0.062930,0.759953,-0.005126,0.001821,-0.004242,0.100974,-0.062888,-0.992899,-0.024527,-0.026879,0.006114,55.010128,18.056416,76.964478,,,,,,,
1512180459.869721,0.101435,0.062883,0.759891,0.000220,0.005035,-0.004153,0.101061,-0.062842,-0.992894,-0.003253,-0.021280,-0.003780,55.011364,18.356419,76.739624,,,,,,,
1512180459.889741,0.101513,0.062785,0.759844,-0.007233,0.005027,-0.003193,0.101139,-0.062743,-0.992892,-0.018406,-0.027772,0.009615,55.611065,18.282307,76.809479,,,,,,,
1512180459.909730,0.101582,0.062720,0.759757,0.000232,0.003965,-0.003091,0.101208,-0.062679,-0.992889,-0.014965,-0.023380,-0.012986,55.910366,18.132771,76.731873,,,,,,,
1512180459.929719,0.101635,0.062631,0.759672,-0.001861,0.003967,-0.004186,0.101261,-0.062590,-0.992889,-0.015522,-0.021761,-0.011277,55.909756,17.982761,76.881805,,,,,,,
1512180459.949739,0.101644,0.062574,0.759579,0.003520,-0.000291,-0.006254,0.101271,-0.062534,-0.992892,0.001833,-0.026181,-0.015638,56.360317,18.133442,76.653046,,,,,,,
1512180459.969728,0.101672,0.062502,0.759466,-0.002886,0.000760,-0.005280,0.101299,-0.062461,-0.992893,-0.023647,-0.029519,0.007328,56.509502,17.983662,76.351700,,,,,,,
1512180459.989717,0.101672,0.062409,0.759306,0.000384,0.003976,-0.008419,0.101299,-0.062369,-0.992899,-0.019207,-0.023691,-0.012060,56.283367,17.758320,76.128510,,,,,,,
1512180460.009736,0.101677,0.062318,0.759119,-0.003832,0.000768,-0.010625,0.101305,-0.062277,-0.992904,-0.021090,-0.023324,-0.001130,56.882427,17.534214,76.273300,,,,,,,
1512180460.029725,0.101681,0.062245,0.758915,0.000490,-0.001353,-0.012700,0.101309,-0.062205,-0.992908,-0.006094,-0.023122,-0.009899,57.111263,18.359562,76.496780,,,,,,,
1512180460.049714,0.101678,0.062168,0.758653,-0.005926,-0.004572,-0.010672,0.101307,-0.062128,-0.992913,-0.011265,-0.022558,0.025094,57.184795,18.059681,76.270996,,,,,,,
1512180460.069734,0.101702,0.062048,0.758383,0.000520,0.005058,-0.011609,0.101331,-0.062008,-0.992918,-0.013090,-0.022816,-0.015840,57.335369,18.134907,76.719757,,,,,,,
1512180460.089723,0.101737,0.061961,0.758099,-0.002616,0.005056,-0.014855,0.101367,-0.061921,-0.992920,-0.029269,-0.034438,0.003617,57.484844,18.060123,76.343445,,,,,,,
1512180460.109712,0.101786,0.061858,0.757790,-0.005768,0.000780,-0.017049,0.101416,-0.061818,-0.992922,-0.014548,-0.022837,0.009706,57.560513,18.210239,76.342880,,,,,,,
1512180460.129701,0.101881,0.061779,0.757469,-0.004706,0.003987,-0.014888,0.101510,-0.061740,-0.992917,-0.014520,-0.033917,0.018460,57.785259,18.135578,76.490936,,,,,,,
1512180460.149720,0.102029,0.061699,0.757115,0.003923,0.015755,-0.020056,0.101658,-0.061660,-0.992907,-0.018116,-0.013856,-0.027845,57.635586,18.210346,76.492249,,,,,,,
1512180460.169709,0.102121,0.061595,0.756770,0.001724,0.003996,-0.014796,0.101750,-0.061556,-0.992904,-0.018697,-0.023527,-0.011796,57.634457,17.985355,76.267136,,,,,,,
1512180460.189698,0.102298,0.061477,0.756404,-0.008814,0.008262,-0.021332,0.101927,-0.061438,-0.992893,-0.009062,-0.018136,0.031711,57.632915,17.610340,76.566956,,,,,,,
1512180460.209718,0.102426,0.061427,0.756053,0.001804,0.001862,-0.018003,0.102054,-0.061388,-0.992883,-0.011188,-0.022474,-0.012671,57.784237,17.910572,76.490829,,,,,,,
1512180460.229707,0.102567,0.061292,0.755716,-0.007742,0.009330,-0.019180,0.102195,-0.061254,-0.992877,-0.013359,-0.020701,0.008486,57.484509,17.985126,76.343414,,,,,,,
1512180460.249696,0.102690,0.061250,0.755381,-0.000312,0.003997,-0.015892,0.102318,-0.061211,-0.992867,-0.008644,-0.025108,-0.004127,57.635220,18.135349,76.417206,,,,,,,
1512180460.269715,0.102858,0.061149,0.755023,-0.004517,0.007193,-0.019144,0.102485,-0.061110,-0.992856,0.001824,-0.023011,0.001156,57.408566,17.760014,76.493942,,,,,,,
1512180460.289704,0.102986,0.061077,0.754685,-0.007729,0.003982,-0.017069,0.102612,-0.061039,-0.992847,-0.011166,-0.027035,0.013843,57.783825,17.835575,76.340790,,,,,,,
1512180460.309693,0.103125,0.060989,0.754327,-0.003421,0.006130,-0.018064,0.102751,-0.060952,-0.992838,-0.012968,-0.022239,0.010172,57.485546,18.210133,76.418518,,,,,,,
1512180460.329713,0.103229,0.060902,0.753942,-0.005520,0.002923,-0.019172,0.102855,-0.060864,-0.992833,-0.012233,-0.024737,0.003834,57.260250,18.134785,76.495392,,,,,,,
1512180460.349702,0.103322,0.060811,0.753546,-0.002276,0.001867,-0.020193,0.102947,-0.060773,-0.992829,0.000843,-0.019213,0.002594,58.010281,18.210911,75.889053,,,,,,,
1512180460.369691,0.103402,0.060713,0.753141,-0.004384,0.002927,-0.021289,0.103028,-0.060676,-0.992826,-0.021866,-0.022531,0.016111,58.083492,17.836033,75.663239,,,,,,,
1512180460.389710,0.103458,0.060631,0.752727,-0.000105,0.000796,-0.021236,0.103084,-0.060594,-0.992825,-0.009319,-0.024291,0.005093,57.935558,18.210804,76.414688,,,,,,,
1512180460.409699,0.103548,0.060526,0.752306,-0.002168,0.004007,-0.023384,0.103173,-0.060489,-0.992822,-0.019815,-0.023648,0.000543,57.857357,17.535679,76.115021,,,,,,,
1512180460.429660,0.103630,0.060468,0.751859,-0.000023,0.004008,-0.023354,0.103255,-0.060431,-0.992817,-0.012801,-0.027124,-0.001049,58.161037,18.286137,76.712814,,,,,,,
1512180460.449649,0.103707,0.060377,0.751405,-0.006416,0.002929,-0.022385,0.103332,-0.060340,-0.992815,-0.022568,-0.024850,0.025820,58.237057,18.511250,76.712280,,,,,,,
1512180460.469668,0.103778,0.060321,0.750947,-0.001068,0.000802,-0.022314,0.103403,-0.060284,-0.992811,-0.011820,-0.027027,0.004560,58.385967,18.286472,76.560898,,,,,,,
1512180460.489657,0.103819,0.060248,0.750443,-0.004176,0.001874,-0.026620,0.103444,-0.060212,-0.992811,-0.021566,-0.029098,0.017317,58.611156,18.361820,76.259033,,,,,,,
1512180460.509646,0.103867,0.060205,0.749936,0.001192,-0.000250,-0.027614,0.103493,-0.060169,-0.992809,-0.008278,-0.030774,-0.009282,58.836605,18.437153,76.482147,,,,,,,
1512180460.529666,0.103904,0.060174,0.749406,-0.003078,0.000808,-0.027674,0.103530,-0.060138,-0.992807,-0.026503,-0.035031,0.016488,58.461330,18.361591,76.635300,,,,,,,
1512180460.549655,0.103929,0.060159,0.748837,0.003352,-0.000246,-0.029717,0.103554,-0.060122,-0.992805,-0.015297,-0.032560,-0.000863,58.988811,18.887379,76.856079,,,,,,,
1512180460.569644,0.103955,0.060125,0.748260,-0.000907,-0.001317,-0.029781,0.103580,-0.060089,-0.992804,-0.026432,-0.033356,0.008704,58.988735,18.887379,76.706085,,,,,,,
1512180460.589663,0.103966,0.060114,0.747664,0.003344,-0.002385,-0.029726,0.103591,-0.060078,-0.992804,-0.018310,-0.030162,0.002737,58.763622,18.812046,77.157944,,,,,,,
1512180460.609652,0.103994,0.060105,0.747031,0.001282,-0.001305,-0.032946,0.103619,-0.060069,-0.992801,-0.024060,-0.028982,0.009464,58.764645,19.037052,77.158051,,,,,,,
1512180460.629641,0.103989,0.060063,0.746358,0.003426,-0.001303,-0.033982,0.103614,-0.060027,-0.992805,-0.018195,-0.026048,-0.006265,58.913738,18.812275,77.381683,,,,,,,
1512180460.649661,0.103927,0.060031,0.745657,-0.001900,-0.006655,-0.035147,0.103553,-0.059995,-0.992813,-0.025016,-0.028323,0.012390,58.314068,18.886372,77.386810,,,,,,,
1512180460.669650,0.103892,0.059985,0.744904,0.003485,-0.002368,-0.038252,0.103519,-0.059949,-0.992819,-0.015552,-0.024432,0.001837,58.315884,19.261372,77.611984,,,,,,,
1512180460.689639,0.103815,0.059913,0.744116,-0.000756,-0.004506,-0.039386,0.103443,-0.059877,-0.992831,-0.034671,-0.027235,0.013477,58.541363,19.336704,77.910095,,,,,,,
1512180460.709628,0.103736,0.059843,0.743295,0.004616,-0.005564,-0.042512,0.103365,-0.059807,-0.992844,-0.017061,-0.026771,-0.001098,58.314373,18.886372,77.986816,,,,,,,
1512180460.729647,0.103702,0.059798,0.742417,0.000397,-0.006629,-0.044706,0.103332,-0.059762,-0.992850,-0.019164,-0.031485,0.011054,57.865124,19.035694,78.140701,,,,,,,
1512180460.749636,0.103630,0.059750,0.741482,0.007896,-0.001266,-0.045641,0.103260,-0.059715,-0.992860,-0.027286,-0.027336,-0.010252,58.016216,19.260929,78.289520,,,,,,,
1512180460.769625,0.103569,0.059735,0.740501,0.003662,-0.003414,-0.048913,0.103200,-0.059700,-0.992867,-0.035695,-0.033531,0.017129,58.167187,19.486149,78.213364,,,,,,,
1512180460.789645,0.103527,0.059669,0.739512,0.010084,-0.002329,-0.049880,0.103159,-0.059634,-0.992876,-0.005991,-0.025892,-0.025252,57.718273,19.710484,78.367294,,,,,,,
1512180460.809634,0.103474,0.059668,0.738504,0.005821,-0.002335,-0.049942,0.103106,-0.059633,-0.992881,-0.039584,-0.030592,-0.008736,57.417599,19.560032,78.369766,,,,,,,
1512180460.829623,0.103408,0.059624,0.737472,0.006906,-0.005534,-0.051002,0.103041,-0.059588,-0.992891,-0.027510,-0.024762,-0.013884,57.344402,19.934910,78.595581,,,,,,,
1512180460.849642,0.103405,0.059635,0.736407,0.003773,-0.001263,-0.055300,0.103037,-0.059599,-0.992890,-0.024882,-0.029680,0.005876,57.643917,19.785358,78.967957,,,,,,,
1512180460.869631,0.103386,0.059629,0.735297,0.011237,-0.000182,-0.055187,0.103018,-0.059594,-0.992893,-0.024787,-0.023292,-0.014569,57.343533,19.709919,78.895477,,,,,,,
1512180460.889620,0.103396,0.059651,0.734180,0.003768,-0.001265,-0.055301,0.103028,-0.059616,-0.992890,-0.032563,-0.034775,-0.000579,57.417599,19.485020,79.044724,,,,,,,
1512180460.909640,0.103392,0.059633,0.733032,0.011266,-0.002316,-0.057327,0.103024,-0.059597,-0.992892,-0.020840,-0.020587,-0.018888,57.344021,19.784916,79.195496,,,,,,,
1512180460.929629,0.103357,0.059617,0.731859,0.002778,-0.003391,-0.059585,0.102990,-0.059582,-0.992896,-0.037026,-0.029956,0.006187,57.119656,19.934574,79.122482,,,,,,,
1512180460.949618,0.103323,0.059572,0.730650,0.009206,-0.006581,-0.061635,0.102956,-0.059537,-0.992902,-0.021963,-0.020892,-0.019869,56.894665,19.934238,79.124405,,,,,,,
1512180460.969607,0.103303,0.059542,0.729403,0.002832,-0.005519,-0.062789,0.102937,-0.059507,-0.992906,-0.043275,-0.035891,0.004381,56.592663,19.483784,79.201736,,,,,,,
1512180460.989627,0.103295,0.059495,0.728107,0.012476,-0.003371,-0.066911,0.102929,-0.059460,-0.992910,0.001960,-0.018268,-0.020442,56.668453,19.708912,78.751205,,,,,,,
1512180461.009616,0.103285,0.059474,0.726800,0.005027,-0.005511,-0.067023,0.102919,-0.059439,-0.992912,-0.013976,-0.029825,0.001686,56.520702,20.158680,79.202682,,,,,,,
1512180461.029605,0.103200,0.059431,0.725431,0.010352,-0.006566,-0.065880,0.102835,-0.059396,-0.992924,-0.029837,-0.022788,-0.007061,56.670818,20.158909,79.426407,,,,,,,
1512180461.049624,0.103100,0.059388,0.724027,0.001871,-0.005508,-0.069200,0.102736,-0.059353,-0.992936,-0.033568,-0.028217,0.003846,56.594769,19.933796,79.351944,,,,,,,
1512180461.069613,0.102980,0.059358,0.722613,0.009363,-0.010834,-0.071242,0.102617,-0.059323,-0.992950,0.005827,-0.021594,-0.013779,56.594738,19.933796,79.276947,,,,,,,
1512180461.089602,0.102874,0.059357,0.721170,0.005099,-0.007637,-0.071293,0.102511,-0.059322,-0.992961,-0.040088,-0.040501,0.015438,56.367672,19.483448,79.203644,,,,,,,
1512180461.109622,0.102762,0.059338,0.719689,0.010462,-0.009761,-0.073355,0.102400,-0.059303,-0.992974,-0.017256,-0.021156,-0.005119,56.294735,19.933338,79.279495,,,,,,,
1512180461.129611,0.102695,0.059341,0.718192,0.005147,-0.005498,-0.074485,0.102334,-0.059307,-0.992981,-0.027108,-0.034123,0.006408,56.445858,20.158573,79.503326,,,,,,,
1512180461.149600,0.102651,0.059297,0.716693,0.011538,-0.006551,-0.073326,0.102290,-0.059263,-0.992988,-0.018169,-0.026782,-0.016808,56.594357,19.858784,79.201904,,,,,,,
1512180461.169619,0.102626,0.059301,0.715179,0.006264,-0.005484,-0.076597,0.102266,-0.059266,-0.992990,-0.018847,-0.029784,0.012643,56.446087,20.233570,79.278366,,,,,,,
1512180461.189608,0.102639,0.059225,0.713663,0.010504,-0.000143,-0.075453,0.102280,-0.059190,-0.992993,-0.023300,-0.028334,-0.015430,56.446087,20.233570,79.278366,,,,,,,
1512180461.209597,0.102700,0.059154,0.712147,0.003039,0.000911,-0.075559,0.102341,-0.059119,-0.992991,-0.031555,-0.034768,-0.006078,56.521160,20.233677,79.427719,,,,,,,
1512180461.229586,0.102767,0.059073,0.710604,0.004139,-0.002280,-0.076615,0.102408,-0.059039,-0.992989,-0.019522,-0.021924,-0.000267,56.522961,20.683689,78.977936,,,,,,,
1512180461.249606,0.102781,0.058983,0.709092,0.003050,-0.000151,-0.075559,0.102422,-0.058949,-0.992993,-0.026357,-0.036419,-0.000141,56.822735,20.609135,79.200348,,,,,,,
1512180461.269595,0.102726,0.058891,0.707540,0.006293,-0.008686,-0.078740,0.102368,-0.058857,-0.993004,-0.008908,-0.024288,-0.006416,56.672100,20.458912,79.276550,,,,,,,
1512180461.289584,0.102673,0.058813,0.705992,0.000961,-0.006560,-0.078811,0.102315,-0.058780,-0.993014,-0.010945,-0.030484,0.002810,56.970821,20.159351,79.423859,,,,,,,
1512180461.309603,0.102641,0.058700,0.704422,0.002014,-0.003355,-0.077718,0.102285,-0.058667,-0.993024,-0.019414,-0.026691,0.000745,56.519924,20.008686,78.977615,,,,,,,
1512180461.329592,0.102614,0.058639,0.702804,0.005251,-0.004411,-0.079806,0.102258,-0.058605,-0.993030,-0.017435,-0.032124,0.000766,56.597057,20.458790,79.202194,,,,,,,
1512180461.349581,0.102633,0.058499,0.701137,0.004255,-0.003337,-0.084081,0.102277,-0.058466,-0.993036,-0.022138,-0.022757,0.003885,56.897732,20.609241,79.199707,,,,,,,
1512180461.369601,0.102639,0.058399,0.699470,0.004239,-0.003338,-0.083015,0.102284,-0.058365,-0.993042,-0.020970,-0.028930,-0.008530,56.371685,20.383457,79.129074,,,,,,,
1512180461.389590,0.102564,0.058223,0.697770,0.001070,-0.007613,-0.085209,0.102210,-0.058190,-0.993059,-0.013481,-0.021308,-0.000593,56.223339,20.758244,79.055511,,,,,,,
1512180461.409579,0.102476,0.058081,0.696055,-0.001057,-0.008689,-0.086312,0.102124,-0.058049,-0.993077,-0.045438,-0.032238,0.007923,56.143490,19.708118,78.830658,,,,,,,
1512180461.429600,0.102363,0.057912,0.694319,-0.002112,-0.012956,-0.086339,0.102013,-0.057879,-0.993098,0.000450,-0.009672,0.009669,56.148449,20.758121,79.281158,,,,,,,
1512180461.449589,0.102246,0.057746,0.692580,0.004299,-0.010809,-0.087305,0.101898,-0.057714,-0.993119,-0.018127,-0.033960,-0.010360,56.372738,20.608463,79.204163,,,,,,,
1512180461.469578,0.102098,0.057488,0.690790,-0.006342,-0.014027,-0.088537,0.101752,-0.057456,-0.993149,-0.019828,-0.020089,-0.001571,56.148556,20.758121,79.506149,,,,,,,
1512180461.489568,0.101935,0.057322,0.688960,0.001157,-0.011874,-0.090552,0.101592,-0.057290,-0.993175,-0.039229,-0.031760,0.002758,56.147839,20.608112,79.431076,,,,,,,
1512180461.509587,0.101777,0.057089,0.687127,0.004400,-0.010791,-0.092631,0.101436,-0.057058,-0.993204,-0.018901,-0.021890,-0.025137,56.148144,20.683125,79.356110,,,,,,,
1512180461.529576,0.101663,0.056910,0.685261,0.002278,-0.010797,-0.093730,0.101323,-0.056880,-0.993226,-0.013433,-0.032109,-0.008727,56.149075,20.908115,79.206223,,,,,,,
1512180461.549565,0.101541,0.056712,0.683348,0.001213,-0.011866,-0.093748,0.101204,-0.056682,-0.993250,-0.026741,-0.018651,-0.007681,56.374798,21.058460,79.279373,,,,,,,
1512180461.569585,0.101451,0.056589,0.681394,0.003411,-0.007585,-0.097968,0.101115,-0.056559,-0.993266,-0.040172,-0.029058,0.000392,56.148403,20.758121,79.206146,,,,,,,
1512180461.589574,0.101381,0.056402,0.679415,0.004518,-0.008644,-0.100086,0.101046,-0.056372,-0.993283,-0.000308,-0.009638,-0.020129,56.147427,20.533115,79.281052,,,,,,,
1512180461.609563,0.101338,0.056260,0.677439,0.000222,-0.004382,-0.098001,0.101004,-0.056231,-0.993296,-0.042289,-0.030378,0.002085,56.372051,20.458454,79.204102,,,,,,,
1512180461.629582,0.101263,0.056108,0.675401,0.004506,-0.009718,-0.100093,0.100931,-0.056078,-0.993312,-0.038919,-0.012678,-0.007070,56.149349,20.983128,79.056259,,,,,,,
1512180461.649571,0.101257,0.056012,0.673346,0.005639,-0.006499,-0.103260,0.100926,-0.055983,-0.993318,-0.007282,-0.025942,-0.002440,55.773037,20.682560,79.134308,,,,,,,
1512180461.669560,0.101235,0.055865,0.671289,0.009885,-0.003291,-0.102122,0.100904,-0.055836,-0.993328,-0.031767,-0.018719,-0.026188,56.375179,21.133457,79.354416,,,,,,,
1512180461.689580,0.101244,0.055800,0.669175,0.002434,-0.004372,-0.103301,0.100913,-0.055771,-0.993331,-0.040641,-0.020126,0.011412,56.225170,21.133244,79.355682,,,,,,,
1512180461.709569,0.101284,0.055741,0.667057,0.012059,-0.003287,-0.105291,0.100954,-0.055712,-0.993330,-0.028353,-0.011564,-0.013460,55.922543,20.532780,79.507965,,,,,,,
1512180461.729558,0.101354,0.055768,0.664905,0.008899,-0.001151,-0.107461,0.101023,-0.055739,-0.993321,-0.023218,-0.025758,0.012899,56.224575,20.983234,79.505615,,,,,,,
1512180461.749547,0.101426,0.055744,0.662742,0.016360,-0.002200,-0.106286,0.101094,-0.055715,-0.993316,-0.014241,-0.012507,-0.020555,55.923443,20.757786,79.283066,,,,,,,
1512180461.769566,0.101572,0.055813,0.660536,0.011078,0.003141,-0.108474,0.101239,-0.055784,-0.993297,-0.039288,-0.021578,0.013851,56.375439,21.208469,79.204453,,,,,,,
1512180461.789555,0.101701,0.055825,0.658337,0.018511,0.001002,-0.108380,0.101367,-0.055796,-0.993283,-0.019077,-0.015630,-0.009463,56.677090,21.583912,79.127075,,,,,,,
1512180461.809544,0.101837,0.055896,0.656155,0.011063,-0.000070,-0.108489,0.101503,-0.055867,-0.993265,-0.012529,-0.021922,0.000361,56.076900,21.508015,79.432129,,,,,,,
1512180461.829564,0.101946,0.056003,0.653982,0.017454,0.001005,-0.108394,0.101610,-0.055974,-0.993248,-0.031740,-0.015498,0.005165,56.225246,21.133244,79.505692,,,,,,,
1512180461.849553,0.102055,0.056199,0.651772,0.018546,0.001006,-0.110512,0.101717,-0.056169,-0.993226,-0.022051,-0.031446,0.019395,56.376217,21.358463,79.429520,,,,,,,
1512180461.869542,0.102111,0.056327,0.649536,0.020690,-0.005398,-0.111570,0.101772,-0.056298,-0.993214,-0.001476,-0.036354,-0.006115,56.527279,21.583698,79.503342,,,,,,,
1512180461.889561,0.102135,0.056547,0.647240,0.014266,-0.004341,-0.109526,0.101795,-0.056517,-0.993199,-0.039050,-0.015657,-0.006206,56.302944,21.733356,79.505325,,,,,,,
1512180461.909550,0.102038,0.056682,0.644906,0.021829,-0.012860,-0.115841,0.101698,-0.056652,-0.993201,-0.005308,0.012615,-0.024377,56.375546,21.208469,79.429443,,,,,,,
1512180461.929539,0.101933,0.056838,0.642625,0.016476,-0.011806,-0.114851,0.101592,-0.056808,-0.993203,0.009843,-0.003831,-0.018806,56.449795,21.058567,79.278748,,,,,,,
1512180461.949559,0.101892,0.056900,0.640284,0.013270,-0.002198,-0.113797,0.101551,-0.056869,-0.993204,-0.028095,-0.002823,-0.021598,56.525585,21.208698,79.503174,,,,,,,
1512180461.969548,0.101912,0.056934,0.637955,0.011108,-0.004339,-0.111702,0.101571,-0.056903,-0.993200,-0.023187,-0.018140,-0.024714,56.453243,21.808582,79.429077,,,,,,,
1512180461.989537,0.102047,0.056857,0.635638,0.013278,0.005280,-0.113770,0.101706,-0.056826,-0.993190,-0.015326,-0.006467,-0.037984,56.299114,20.908344,79.279953,,,,,,,
1512180462.009526,0.102261,0.056708,0.633361,0.007972,0.007413,-0.114905,0.101919,-0.056678,-0.993177,-0.029134,-0.023461,-0.040667,56.752575,21.659031,79.426468,,,,,,,
1512180462.029546,0.102475,0.056549,0.631082,0.000465,0.000985,-0.112906,0.102132,-0.056519,-0.993164,-0.053640,-0.006424,0.000122,56.377117,21.583469,79.204620,,,,,,,
1512180462.049535,0.102635,0.056440,0.628775,-0.000559,-0.001144,-0.115058,0.102292,-0.056410,-0.993154,-0.046307,-0.021211,0.021154,56.378017,21.733463,79.654694,,,,,,,
1512180462.069524,0.102774,0.056306,0.626492,0.004820,-0.001132,-0.118179,0.102431,-0.056276,-0.993147,-0.014601,-0.003233,0.010481,56.378170,21.808475,79.279724,,,,,,,
1512180462.089543,0.102910,0.056226,0.624213,0.002610,-0.001148,-0.113949,0.102566,-0.056196,-0.993138,-0.020138,-0.005038,0.012821,56.226482,21.433247,79.280823,,,,,,,
1512180462.109532,0.103037,0.056110,0.621859,0.007971,0.005277,-0.114912,0.102693,-0.056080,-0.993131,-0.057543,0.002385,0.011503,56.379299,22.033466,79.504837,,,,,,,
1512180462.129521,0.103122,0.056096,0.619442,0.014450,-0.002179,-0.120174,0.102778,-0.056067,-0.993123,-0.023096,-0.008997,-0.014522,56.530376,22.258701,79.653656,,,,,,,
1512180462.149541,0.103165,0.056017,0.617054,0.011248,-0.007525,-0.120239,0.102820,-0.055987,-0.993123,0.015634,0.009753,-0.016810,56.154858,22.183125,79.281815,,,,,,,
1512180462.169530,0.103105,0.056018,0.614614,0.013341,-0.008596,-0.118081,0.102761,-0.055989,-0.993129,-0.040978,-0.001552,-0.008458,56.379971,22.183475,79.504898,,,,,,,
1512180462.189519,0.103023,0.056041,0.612081,0.012401,-0.010724,-0.126634,0.102679,-0.056012,-0.993136,-0.028765,0.015271,0.010760,55.853436,21.882679,79.134216,,,,,,,
1512180462.209538,0.103007,0.056151,0.609562,0.019862,-0.008570,-0.125448,0.102663,-0.056122,-0.993132,-0.003526,0.002533,-0.012483,55.779293,22.032566,79.509933,,,,,,,
1512180462.229527,0.102964,0.056212,0.607035,0.018765,-0.007506,-0.123328,0.102620,-0.056183,-0.993133,-0.041844,0.005234,-0.006761,56.305828,22.408360,79.205643,,,,,,,
1512180462.249516,0.102851,0.056372,0.604447,0.020900,-0.013915,-0.124387,0.102506,-0.056342,-0.993135,-0.024610,0.002494,-0.010389,55.930386,22.257801,79.658752,,,,,,,
1512180462.269505,0.102774,0.056449,0.601848,0.023108,-0.007493,-0.128597,0.102430,-0.056419,-0.993139,-0.028806,0.011848,-0.018229,55.929592,22.107792,79.433685,,,,,,,
1512180462.289525,0.102679,0.056548,0.599212,0.017769,-0.008574,-0.128681,0.102334,-0.056518,-0.993143,-0.059106,0.001449,-0.022375,56.003963,21.957905,79.507980,,,,,,,
1512180462.309514,0.102695,0.056624,0.596567,0.017852,-0.006423,-0.132933,0.102350,-0.056594,-0.993137,-0.051356,0.021010,-0.004940,55.630352,22.257343,79.586304,,,,,,,
1512180462.329503,0.102763,0.056706,0.593894,0.024282,-0.002138,-0.134958,0.102418,-0.056675,-0.993126,-0.025315,0.007771,-0.037682,55.628170,21.807346,79.286102,,,,,,,
1512180462.349522,0.102787,0.056758,0.591226,0.016768,-0.007495,-0.131887,0.102441,-0.056728,-0.993120,-0.038873,0.012828,0.002047,55.705944,22.407459,79.435730,,,,,,,
1512180462.369511,0.102769,0.056824,0.588480,0.016814,-0.008560,-0.135089,0.102423,-0.056794,-0.993118,-0.049139,0.005799,0.005280,55.630199,22.257343,79.286316,,,,,,,
1512180462.389500,0.102772,0.056915,0.585715,0.022165,-0.004277,-0.136063,0.102426,-0.056884,-0.993113,-0.038110,0.013732,0.001078,55.706585,22.557453,79.360809,,,,,,,
1512180462.409520,0.102757,0.056994,0.582899,0.019083,-0.005331,-0.142504,0.102410,-0.056963,-0.993110,-0.033028,-0.005476,0.004783,55.405483,22.332005,79.213257,,,,,,,
1512180462.429478,0.102758,0.057057,0.580041,0.016917,-0.008548,-0.141485,0.102410,-0.057026,-0.993106,-0.054177,0.008931,0.016162,55.483791,23.007130,79.737930,,,,,,,
1512180462.449467,0.102775,0.057186,0.577134,0.018079,-0.007464,-0.146793,0.102426,-0.057155,-0.993097,-0.020685,-0.001637,0.009851,55.482037,22.632130,79.587753,,,,,,,
1512180462.469486,0.102807,0.057296,0.574208,0.019124,-0.004263,-0.145701,0.102458,-0.057265,-0.993088,-0.023402,0.003355,0.009796,55.480984,22.407124,79.512650,,,,,,,
1512180462.489475,0.102847,0.057461,0.571255,0.023333,-0.004264,-0.142443,0.102496,-0.057429,-0.993074,-0.056491,-0.006490,0.003404,55.181026,22.406666,79.590195,,,,,,,
1512180462.509464,0.102943,0.057520,0.568253,0.020262,-0.002116,-0.149942,0.102592,-0.057488,-0.993061,-0.044028,0.013574,0.010197,55.107937,22.856556,79.366043,,,,,,,
1512180462.529454,0.103033,0.057589,0.565265,0.021325,-0.003184,-0.149931,0.102681,-0.057557,-0.993048,-0.015034,-0.005767,-0.025675,55.482891,22.857121,79.287857,,,,,,,
1512180462.549473,0.103077,0.057609,0.562266,0.018095,-0.007463,-0.147859,0.102724,-0.057577,-0.993042,-0.028902,0.004949,-0.015167,55.409313,23.157017,79.438629,,,,,,,
1512180462.569462,0.103069,0.057645,0.559245,0.014917,-0.008532,-0.148974,0.102716,-0.057613,-0.993041,-0.041787,-0.007511,0.000197,55.482967,22.857121,79.437851,,,,,,,
1512180462.589451,0.103009,0.057562,0.556190,0.016021,-0.008525,-0.151089,0.102656,-0.057530,-0.993052,-0.038737,0.009023,-0.005087,55.031765,22.631443,79.066574,,,,,,,
1512180462.609471,0.103013,0.057514,0.553111,0.011813,-0.007456,-0.154344,0.102661,-0.057482,-0.993054,-0.015549,-0.007841,-0.006198,55.258114,22.931782,79.064804,,,,,,,
1512180462.629460,0.103011,0.057427,0.549966,0.008614,-0.009597,-0.154398,0.102659,-0.057395,-0.993059,-0.038877,0.005653,0.019518,55.334133,23.156895,79.064270,,,,,,,
1512180462.649449,0.103062,0.057397,0.546769,0.011900,-0.005310,-0.159666,0.102710,-0.057366,-0.993056,-0.074008,-0.004661,0.018706,55.034100,23.156452,78.991821,,,,,,,
1512180462.669468,0.103103,0.057346,0.543562,0.015151,-0.008509,-0.163898,0.102751,-0.057315,-0.993054,-0.025923,0.019549,-0.005099,55.333828,23.081898,79.139236,,,,,,,
1512180462.689457,0.103179,0.057339,0.540330,0.021504,-0.007432,-0.160602,0.102827,-0.057307,-0.993047,-0.007826,0.005672,-0.012873,55.334393,23.231907,78.914307,,,,,,,
1512180462.709446,0.103243,0.057327,0.537044,0.019363,0.000041,-0.159540,0.102890,-0.057295,-0.993041,-0.067490,0.003874,-0.004334,55.334774,23.306904,78.989334,,,,,,,
1512180462.729466,0.103335,0.057369,0.533669,0.019451,-0.001016,-0.164873,0.102981,-0.057337,-0.993029,-0.059265,0.008570,-0.006650,55.484386,23.232121,78.913040,,,,,,,
1512180462.749455,0.103461,0.057377,0.530285,0.022718,-0.002071,-0.169093,0.103106,-0.057346,-0.993016,-0.032794,0.013279,-0.024257,54.959133,23.231342,78.392502,,,,,,,
1512180462.769444,0.103495,0.057490,0.526897,0.023730,-0.009558,-0.166976,0.103140,-0.057458,-0.993006,-0.046194,0.003106,-0.011099,55.410625,23.532017,78.688812,,,,,,,
1512180462.789433,0.103499,0.057545,0.523477,0.020608,-0.011687,-0.171291,0.103143,-0.057514,-0.993002,-0.022485,0.024127,0.000021,55.559658,23.307240,78.762436,,,,,,,
1512180462.809452,0.103540,0.057660,0.520008,0.020641,-0.000998,-0.172317,0.103183,-0.057628,-0.992992,-0.047428,-0.006245,-0.012364,55.485332,23.457127,78.763138,,,,,,,
1512180462.829441,0.103489,0.057756,0.516519,0.016394,-0.011689,-0.174551,0.103132,-0.057724,-0.992991,-0.062926,0.004455,0.031245,55.260555,23.531788,78.540100,,,,,,,
1512180462.849430,0.103591,0.057906,0.512999,0.024963,-0.007397,-0.176543,0.103232,-0.057873,-0.992972,-0.014487,0.010113,-0.002328,55.561001,23.607243,78.762573,,,,,,,
1512180462.869450,0.103692,0.057995,0.509458,0.028156,0.001155,-0.175399,0.103332,-0.057963,-0.992957,-0.040023,0.008982,-0.012491,55.410473,23.532017,78.388809,,,,,,,
1512180462.889439,0.103729,0.058077,0.505896,0.022833,-0.005264,-0.176566,0.103369,-0.058044,-0.992948,-0.036154,-0.008988,-0.012225,55.260403,23.456791,78.915054,,,,,,,
1512180462.909428,0.103804,0.058184,0.502299,0.020718,-0.006333,-0.177667,0.103442,-0.058151,-0.992934,-0.028170,0.019348,0.017165,55.411007,23.607014,78.763840,,,,,,,
1512180462.929447,0.103786,0.058299,0.498722,0.028167,-0.008456,-0.176498,0.103424,-0.058266,-0.992929,-0.031769,-0.014366,-0.015829,55.486675,23.757130,78.763275,,,,,,,
1512180462.949436,0.103781,0.058361,0.495151,0.022889,-0.009526,-0.179777,0.103418,-0.058328,-0.992926,-0.016062,-0.001425,0.009268,55.785564,23.532581,78.535629,,,,,,,
1512180462.969425,0.103736,0.058474,0.491575,0.024935,-0.013804,-0.174430,0.103373,-0.058441,-0.992924,-0.020060,-0.002228,-0.013439,55.786724,23.757587,78.835724,,,,,,,
1512180462.989445,0.103616,0.058563,0.487978,0.017530,-0.015950,-0.178813,0.103253,-0.058530,-0.992931,-0.053968,-0.002521,0.027920,55.859203,23.232685,78.534851,,,,,,,
1512180463.009434,0.103490,0.058722,0.484408,0.030343,-0.022332,-0.179713,0.103127,-0.058688,-0.992935,0.001304,-0.012189,-0.022858,56.086651,23.758030,78.683182,,,,,,,
1512180463.029423,0.103276,0.058806,0.480867,0.023889,-0.018080,-0.176596,0.102915,-0.058772,-0.992952,-0.015299,0.004146,0.007845,55.862926,24.057697,78.535233,,,,,,,
1512180463.049412,0.103004,0.058891,0.477297,0.023843,-0.022361,-0.174481,0.102644,-0.058857,-0.992975,-0.053724,-0.013317,-0.011770,56.012020,23.832920,78.758850,,,,,,,
1512180463.069432,0.102748,0.059008,0.473730,0.028144,-0.021281,-0.176547,0.102389,-0.058974,-0.992995,-0.008181,0.000487,-0.009065,55.487240,23.907124,78.538361,,,,,,,
1512180463.089421,0.102499,0.059076,0.470185,0.030253,-0.018072,-0.174370,0.102141,-0.059042,-0.993016,-0.008925,-0.006235,-0.023189,56.082821,22.933018,78.457794,,,,,,,
1512180463.109410,0.102269,0.059082,0.466612,0.020678,-0.017017,-0.175572,0.101913,-0.059047,-0.993039,-0.048248,0.003933,-0.003314,55.864376,24.357700,78.760361,,,,,,,
1512180463.129429,0.102093,0.059120,0.463038,0.013197,-0.019168,-0.174622,0.101738,-0.059086,-0.993055,-0.018135,-0.030712,0.016599,56.164715,24.433140,78.757843,,,,,,,
1512180463.149418,0.101948,0.059205,0.459437,0.028202,-0.019137,-0.179736,0.101593,-0.059170,-0.993065,-0.021896,0.002652,-0.016518,56.088345,24.133030,78.683350,,,,,,,
1512180463.169407,0.101820,0.059271,0.455887,0.017477,-0.014888,-0.175612,0.101465,-0.059236,-0.993074,-0.070490,-0.016966,0.030672,55.937923,24.057804,78.534592,,,,,,,
1512180463.189427,0.101607,0.059334,0.452299,0.031316,-0.017005,-0.174352,0.101254,-0.059299,-0.993092,-0.043027,0.004215,-0.014889,56.086620,23.758030,78.608185,,,,,,,
1512180463.209416,0.101340,0.059348,0.448716,0.020724,-0.023421,-0.178792,0.100989,-0.059313,-0.993118,-0.018881,-0.002576,-0.014252,56.013943,24.282917,78.534058,,,,,,,
1512180463.229405,0.101164,0.059390,0.445104,0.022880,-0.018073,-0.179807,0.100813,-0.059355,-0.993133,-0.040556,0.003279,-0.004578,56.014538,24.432911,78.384140,,,,,,,
1512180463.249424,0.101091,0.059465,0.441447,0.017628,-0.010588,-0.183051,0.100741,-0.059430,-0.993136,-0.061266,-0.014789,0.016741,56.315090,24.508366,78.831604,,,,,,,
1512180463.269413,0.101036,0.059488,0.437774,0.024001,-0.011657,-0.182968,0.100686,-0.059453,-0.993140,-0.043451,0.010914,0.001716,56.238934,24.283253,78.532150,,,,,,,
1512180463.289402,0.100950,0.059528,0.434076,0.016578,-0.017002,-0.185224,0.100600,-0.059493,-0.993147,-0.028655,-0.005158,0.012403,56.240017,24.508259,78.682251,,,,,,,
1512180463.309391,0.100857,0.059584,0.430356,0.029313,-0.014862,-0.182906,0.100507,-0.059548,-0.993153,-0.035795,-0.002860,-0.008160,56.091412,24.808033,78.758667,,,,,,,
1512180463.329411,0.100687,0.059620,0.426605,0.014438,-0.014874,-0.185251,0.100338,-0.059585,-0.993168,-0.068554,-0.010026,0.025425,55.861431,23.757694,78.235092,,,,,,,
1512180463.349400,0.100517,0.059638,0.422840,0.017705,-0.022336,-0.189492,0.100169,-0.059603,-0.993183,-0.035045,-0.000959,0.027928,56.016644,24.882923,78.534348,,,,,,,
1512180463.369389,0.100448,0.059704,0.419103,0.028388,-0.009493,-0.189289,0.100100,-0.059669,-0.993187,-0.023043,-0.003396,-0.033989,56.166042,24.733143,78.682999,,,,,,,
1512180463.389408,0.100411,0.059606,0.415322,0.016638,-0.010585,-0.188398,0.100065,-0.059571,-0.993196,-0.040021,0.011796,-0.006209,56.317837,25.183369,78.231934,,,,,,,
1512180463.409397,0.100428,0.059666,0.411538,0.025078,-0.005250,-0.183999,0.100081,-0.059630,-0.993191,-0.036696,-0.007646,-0.016422,56.164761,24.508137,78.157898,,,,,,,
1512180463.429358,0.100419,0.059560,0.407772,0.020839,-0.007387,-0.185131,0.100073,-0.059525,-0.993198,-0.046530,-0.003906,0.004627,56.619335,25.483829,78.529526,,,,,,,
1512180463.449378,0.100371,0.059485,0.403978,0.018734,-0.012722,-0.186243,0.100025,-0.059450,-0.993207,-0.024646,-0.018293,-0.019397,56.393322,25.258488,78.531326,,,,,,,
1512180463.469367,0.100418,0.059431,0.400188,0.016631,-0.005250,-0.188383,0.100072,-0.059396,-0.993206,-0.028539,0.002069,0.008083,56.767910,25.184055,78.378098,,,,,,,
1512180463.489356,0.100393,0.059434,0.396382,0.018718,-0.011662,-0.186244,0.100048,-0.059399,-0.993208,-0.047268,-0.014041,0.007521,56.541851,24.958714,78.304901,,,,,,,
1512180463.509375,0.100367,0.059403,0.392579,0.010264,-0.012733,-0.190634,0.100022,-0.059368,-0.993212,-0.054856,0.001399,0.057360,56.545116,25.633717,78.755219,,,,,,,
1512180463.529364,0.100280,0.059430,0.388798,0.017709,-0.018062,-0.189477,0.099936,-0.059395,-0.993219,-0.019461,-0.020592,-0.002508,56.693966,25.408939,78.453842,,,,,,,
1512180463.549353,0.100169,0.059448,0.384932,0.015632,-0.014855,-0.192694,0.099825,-0.059413,-0.993230,-0.054583,0.002269,0.020848,56.620007,25.633823,78.529587,,,,,,,
1512180463.569342,0.100056,0.059562,0.381111,0.026266,-0.020183,-0.191493,0.099712,-0.059527,-0.993234,-0.024410,-0.013593,-0.014502,56.843929,25.409168,78.377563,,,,,,,
1512180463.589362,0.099953,0.059559,0.377262,0.023083,-0.016984,-0.192596,0.099610,-0.059524,-0.993245,-0.022186,0.001968,0.005055,56.620953,25.858829,78.379684,,,,,,,
1512180463.609351,0.099735,0.059610,0.373387,0.024123,-0.021260,-0.191531,0.099393,-0.059575,-0.993263,-0.036451,0.004308,-0.035591,56.694332,25.483936,78.528885,,,,,,,
1512180463.629340,0.099514,0.059668,0.369501,0.023070,-0.023390,-0.191550,0.099173,-0.059632,-0.993282,-0.037192,-0.011611,0.010921,56.696743,26.008945,78.604126,,,,,,,
1512180463.649360,0.099262,0.059753,0.365590,0.026349,-0.023379,-0.196834,0.098922,-0.059717,-0.993302,-0.037216,-0.006857,-0.002701,56.621777,26.008839,78.679749,,,,,,,
1512180463.669349,0.099028,0.059755,0.361644,0.019994,-0.021245,-0.199050,0.098689,-0.059719,-0.993325,-0.036678,0.003613,0.008553,56.846844,26.009174,78.827835,,,,,,,
1512180463.689338,0.098871,0.059780,0.357680,0.024216,-0.020179,-0.196855,0.098533,-0.059744,-0.993339,-0.033211,-0.003625,-0.016244,56.621990,26.083836,78.454788,,,,,,,
1512180463.709357,0.098746,0.059765,0.353719,0.015680,-0.014851,-0.195893,0.098410,-0.059729,-0.993352,-0.053900,-0.003015,0.021443,56.921703,26.009281,78.527206,,,,,,,
1512180463.729346,0.098563,0.059798,0.349761,0.021011,-0.018045,-0.195826,0.098227,-0.059762,-0.993368,-0.056678,-0.010031,0.008489,56.770016,25.634052,78.528320,,,,,,,
1512180463.749335,0.098492,0.059734,0.345832,0.019998,-0.011634,-0.199017,0.098157,-0.059699,-0.993379,-0.040723,0.007788,-0.011199,56.771328,25.934055,78.453445,,,,,,,
1512180463.769355,0.098427,0.059683,0.341924,0.025227,-0.014839,-0.192554,0.098093,-0.059648,-0.993388,-0.029535,-0.002394,-0.051458,56.999096,26.534397,78.601807,,,,,,,
1512180463.789344,0.098343,0.059576,0.338010,0.009248,-0.011662,-0.193844,0.098010,-0.059541,-0.993403,-0.065555,0.005342,0.012781,57.074291,26.609501,78.301208,,,,,,,
1512180463.809333,0.098273,0.059516,0.334098,0.014595,-0.015923,-0.194846,0.097941,-0.059481,-0.993413,-0.054606,0.007845,-0.029414,57.148800,26.459629,78.675507,,,,,,,
1512180463.829322,0.098300,0.059366,0.330177,0.008285,-0.007375,-0.199170,0.097969,-0.059331,-0.993419,-0.022301,0.001027,0.008846,56.774853,26.684055,78.753784,,,,,,,
1512180463.849341,0.098350,0.059274,0.326257,0.009274,-0.006317,-0.194890,0.098020,-0.059240,-0.993420,-0.051907,0.009938,0.012295,56.772305,26.159046,78.378555,,,,,,,
1512180463.869330,0.098506,0.059069,0.322347,0.006096,-0.003115,-0.195991,0.098175,-0.059035,-0.993417,-0.033310,0.007338,-0.002509,56.999844,26.684406,78.751877,,,,,,,
1512180463.889319,0.098739,0.058969,0.318347,0.016818,0.002252,-0.199013,0.098408,-0.058934,-0.993400,-0.044071,0.001866,0.000708,56.924816,26.684284,78.677521,,,,,,,
1512180463.909339,0.098853,0.058737,0.314358,0.013593,-0.003099,-0.198014,0.098522,-0.058703,-0.993402,-0.049480,0.008227,-0.003760,57.000561,26.834400,78.826950,,,,,,,
1512180463.929328,0.098917,0.058548,0.310397,0.010369,-0.011660,-0.198096,0.098587,-0.058515,-0.993407,-0.020751,0.002164,0.009856,56.924511,26.609287,78.752487,,,,,,,
1512180463.949317,0.098917,0.058416,0.306426,0.018913,-0.009503,-0.197960,0.098587,-0.058383,-0.993414,-0.057999,0.007662,-0.009470,57.225719,26.909733,78.450073,,,,,,,
1512180463.969336,0.098908,0.058351,0.302412,0.022147,-0.007357,-0.200038,0.098579,-0.058318,-0.993419,-0.051643,0.018310,0.005992,57.001797,27.134403,78.602097,,,,,,,
1512180463.989325,0.099050,0.058244,0.298461,0.024235,-0.002017,-0.196790,0.098721,-0.058211,-0.993411,-0.018826,0.026610,-0.029294,56.926754,27.134296,78.527725,,,,,,,
1512180464.009314,0.099309,0.058218,0.294508,0.018881,0.008654,-0.194698,0.098978,-0.058185,-0.993387,-0.045313,0.018040,-0.035101,57.153072,27.434635,78.450958,,,,,,,
1512180464.029334,0.099707,0.058118,0.290584,0.018883,0.015061,-0.194676,0.099373,-0.058086,-0.993353,-0.039864,0.023311,-0.035028,57.151836,27.134632,78.675812,,,,,,,
1512180464.049323,0.100294,0.058064,0.286624,0.018920,0.025752,-0.195701,0.099958,-0.058031,-0.993298,-0.077542,0.034411,-0.017399,57.077953,27.359516,78.901550,,,,,,,
1512180464.069312,0.100945,0.057902,0.282625,0.017893,0.022546,-0.198929,0.100605,-0.057870,-0.993242,0.003032,0.024163,-0.051985,57.227993,27.359745,78.975281,,,,,,,
1512180464.089301,0.101612,0.057773,0.278655,0.017839,0.020403,-0.195739,0.101268,-0.057741,-0.993182,-0.039089,0.024935,-0.035398,57.225750,26.909733,78.525070,,,,,,,
1512180464.109321,0.102210,0.057642,0.274647,0.012567,0.021472,-0.199009,0.101863,-0.057610,-0.993129,-0.071071,0.029824,-0.007451,57.304317,27.659855,78.899780,,,,,,,
1512180464.129310,0.102721,0.057534,0.270632,0.021113,0.014014,-0.199975,0.102371,-0.057502,-0.993083,-0.028641,0.018577,-0.025090,57.756344,28.110538,78.896164,,,,,,,
1512180464.149299,0.103264,0.057339,0.266630,0.012607,0.021479,-0.201139,0.102911,-0.057308,-0.993038,-0.040258,0.025631,-0.002170,57.379345,27.659977,78.974136,,,,,,,
1512180464.169318,0.103810,0.057272,0.262599,0.016851,0.012940,-0.200040,0.103454,-0.057240,-0.992986,-0.034347,0.025105,-0.010646,57.678905,27.585423,78.746552,,,,,,,
1512180464.189307,0.104398,0.057211,0.258585,0.023238,0.020419,-0.199925,0.104038,-0.057180,-0.992928,-0.007664,0.017247,-0.007606,57.456264,28.110081,78.748703,,,,,,,
1512180464.209296,0.104889,0.057170,0.254596,0.025303,0.015078,-0.195647,0.104525,-0.057139,-0.992879,-0.022921,0.017695,-0.013972,57.682049,28.260426,78.971863,,,,,,,
1512180464.229316,0.105370,0.057069,0.250605,0.012524,0.017192,-0.196893,0.105004,-0.057038,-0.992835,-0.073342,0.018204,0.015387,57.456371,28.110081,78.973709,,,,,,,
1512180464.249305,0.105893,0.057152,0.246630,0.030667,0.015089,-0.197702,0.105522,-0.057121,-0.992775,-0.024925,0.008400,-0.011421,57.457470,28.335087,79.123810,,,,,,,
1512180464.269294,0.106438,0.057157,0.242727,0.024264,0.016144,-0.197793,0.106063,-0.057125,-0.992717,-0.010848,0.019314,0.019695,57.683407,28.560429,78.972000,,,,,,,
1512180464.289313,0.107041,0.057195,0.238857,0.022097,0.022550,-0.194601,0.106662,-0.057163,-0.992651,-0.045169,0.013005,0.009100,57.234936,28.859760,79.350967,,,,,,,
1512180464.309302,0.107623,0.057211,0.234964,0.019934,0.017198,-0.193587,0.107240,-0.057180,-0.992587,-0.037462,0.024252,0.008701,57.684795,28.860432,79.047134,,,,,,,
1512180464.329291,0.108268,0.057215,0.231092,0.019924,0.019336,-0.192512,0.107879,-0.057184,-0.992518,-0.022537,0.011605,-0.003561,57.986584,29.235874,79.269775,,,,,,,
1512180464.349280,0.108842,0.057190,0.227276,0.021993,0.018260,-0.189290,0.108450,-0.057159,-0.992457,-0.021642,0.008178,-0.004094,57.985912,29.085880,79.269699,,,,,,,
1512180464.369300,0.109279,0.057098,0.223461,0.015596,0.010774,-0.189408,0.108884,-0.057067,-0.992415,-0.013227,0.019821,-0.009340,57.910503,29.010761,79.120300,,,,,,,
1512180464.389289,0.109697,0.056959,0.219661,0.018780,0.009711,-0.188298,0.109300,-0.056928,-0.992377,-0.017076,0.016050,-0.023568,57.535534,29.010197,79.198486,,,,,,,
1512180464.409278,0.110124,0.056854,0.215836,0.011336,0.013973,-0.189458,0.109724,-0.056823,-0.992337,-0.025388,0.012176,0.013531,57.984829,28.860874,79.119598,,,,,,,
1512180464.429293,0.110546,0.056745,0.212027,0.012320,0.010756,-0.185193,0.110143,-0.056715,-0.992296,-0.018087,0.012602,0.002657,57.836895,29.310658,79.196075,,,,,,,
1512180464.449282,0.111076,0.056690,0.208251,0.017732,0.016126,-0.188288,0.110670,-0.056660,-0.992241,-0.030668,0.004902,0.026756,58.288387,29.611332,79.492386,,,,,,,
1512180464.469271,0.111508,0.056597,0.204505,0.019838,0.009709,-0.188285,0.111099,-0.056567,-0.992198,-0.015289,0.016909,-0.019307,58.138760,29.686100,79.568695,,,,,,,
1512180464.489291,0.111991,0.056585,0.200794,0.017644,0.013972,-0.184036,0.111578,-0.056554,-0.992145,0.001581,0.029806,-0.006878,58.136669,29.236103,79.418488,,,,,,,
1512180464.509280,0.112399,0.056507,0.197142,0.016423,0.011818,-0.174466,0.111984,-0.056477,-0.992104,-0.043761,-0.001079,-0.000130,58.437832,29.461552,79.716049,,,,,,,
1512180464.529269,0.112649,0.056461,0.193509,0.018613,0.002213,-0.178733,0.112232,-0.056431,-0.992078,-0.033146,0.006229,-0.009722,58.363796,29.686451,79.641785,,,,,,,
1512180464.549288,0.112918,0.056346,0.189925,0.014372,0.006483,-0.179845,0.112499,-0.056316,-0.992055,-0.017819,0.029796,-0.009700,58.439358,29.836552,79.416214,,,,,,,
1512180464.569277,0.113179,0.056193,0.186350,0.017569,0.003284,-0.179809,0.112760,-0.056164,-0.992034,-0.000043,0.016765,-0.025529,58.890987,30.212238,79.262573,,,,,,,
1512180464.589266,0.113453,0.056015,0.182778,0.002602,0.004319,-0.177894,0.113032,-0.055986,-0.992013,-0.022731,0.005464,0.022301,58.663799,29.686893,79.639236,,,,,,,
1512180464.609255,0.113724,0.055826,0.179207,0.003669,0.002193,-0.176814,0.113302,-0.055797,-0.991992,-0.035162,0.006541,0.004795,58.513912,29.761677,79.190552,,,,,,,
1512180464.629275,0.114043,0.055689,0.175651,0.011191,0.003276,-0.180968,0.113620,-0.055660,-0.991964,-0.004016,0.001995,0.019140,59.116955,30.362583,79.860733,,,,,,,
1512180464.649264,0.114344,0.055511,0.172116,0.013281,0.008617,-0.177719,0.113919,-0.055483,-0.991939,-0.000135,0.004549,0.001171,59.043163,30.662464,79.561493,,,,,,,
1512180464.669253,0.114576,0.055368,0.168605,0.013126,0.003254,-0.169215,0.114150,-0.055340,-0.991921,-0.043472,-0.012943,-0.000526,59.267483,30.512806,79.559509,,,,,,,
1512180464.689273,0.114782,0.055326,0.165093,0.025967,0.000076,-0.172237,0.114355,-0.055298,-0.991900,-0.042196,-0.012939,-0.017576,59.266506,30.287800,79.634415,,,,,,,
1512180464.709262,0.114931,0.055265,0.161626,0.024931,-0.003128,-0.174397,0.114503,-0.055237,-0.991886,-0.001970,-0.015671,-0.011837,59.342037,30.437916,79.333847,,,,,,,
1512180464.729251,0.115033,0.055379,0.158196,0.028012,-0.002074,-0.167955,0.114604,-0.055350,-0.991868,-0.039149,-0.028573,0.006532,59.416439,30.288029,79.483139,,,,,,,
1512180464.749270,0.115091,0.055457,0.154759,0.023757,-0.004212,-0.168021,0.114660,-0.055429,-0.991857,-0.056768,-0.031196,0.007452,59.343792,30.812916,79.484024,,,,,,,
1512180464.769259,0.115234,0.055688,0.151301,0.021700,-0.002069,-0.172307,0.114801,-0.055659,-0.991828,-0.041498,-0.038106,0.034934,59.795452,31.188587,79.405365,,,,,,,
1512180464.789248,0.115369,0.055898,0.147916,0.038691,-0.003115,-0.167798,0.114933,-0.055869,-0.991801,-0.015385,-0.022104,-0.023107,59.795712,31.263599,79.255402,,,,,,,
1512180464.809268,0.115537,0.056095,0.144501,0.026983,-0.005267,-0.169041,0.115099,-0.056066,-0.991770,-0.027926,-0.029307,0.005152,59.871716,31.488712,79.254868,,,,,,,
1512180464.829257,0.115734,0.056285,0.141054,0.022738,0.002204,-0.170144,0.115293,-0.056255,-0.991737,-0.052137,-0.043797,0.013481,60.094204,30.889042,79.627686,,,,,,,
1512180464.849246,0.115952,0.056392,0.137605,0.025947,0.003275,-0.171162,0.115508,-0.056362,-0.991706,-0.038833,-0.030934,-0.009698,60.018459,30.738926,79.478256,,,,,,,
1512180464.869235,0.116224,0.056472,0.134136,0.015304,0.000057,-0.172393,0.115777,-0.056442,-0.991670,-0.017221,-0.041871,0.010332,59.720592,31.188480,79.706009,,,,,,,
1512180464.889254,0.116390,0.056482,0.130676,0.030191,-0.000992,-0.170049,0.115942,-0.056452,-0.991650,-0.006643,-0.043920,-0.038715,60.546459,31.414722,79.399094,,,,,,,
1512180464.909243,0.116399,0.056411,0.127234,0.015244,-0.007421,-0.168152,0.115951,-0.056381,-0.991653,-0.047500,-0.038757,0.002289,60.396755,31.489491,79.325409,,,,,,,
1512180464.929232,0.116438,0.056378,0.123798,0.015281,-0.007423,-0.171354,0.115991,-0.056348,-0.991651,-0.012811,-0.042742,0.026700,60.771832,31.490055,79.472214,,,,,,,
1512180464.949252,0.116445,0.056270,0.120397,0.022671,-0.008488,-0.166986,0.115998,-0.056240,-0.991656,0.012786,-0.046360,-0.021848,60.322659,31.714390,79.101151,,,,,,,
1512180464.969241,0.116405,0.056215,0.117028,0.003481,-0.010648,-0.166202,0.115959,-0.056185,-0.991664,-0.035652,-0.047437,0.071406,60.698071,31.789951,79.248001,,,,,,,
1512180464.989230,0.116345,0.056233,0.113652,0.020524,-0.010627,-0.165957,0.115899,-0.056203,-0.991669,-0.036188,-0.053858,0.015610,61.071728,31.490513,79.244675,,,,,,,
1512180465.009249,0.116183,0.056169,0.110337,0.016198,-0.020256,-0.162856,0.115739,-0.056139,-0.991692,-0.004624,-0.037550,0.017128,60.997692,31.715397,79.170410,,,,,,,
1512180465.029238,0.116045,0.056140,0.107099,0.017253,-0.017049,-0.161762,0.115602,-0.056111,-0.991709,-0.007997,-0.051510,0.024134,61.073116,31.790516,79.319809,,,,,,,
1512180465.049227,0.115854,0.056136,0.103880,0.018240,-0.017061,-0.157486,0.115413,-0.056106,-0.991732,-0.038386,-0.049317,0.015886,61.372921,31.715961,79.617233,,,,,,,
1512180465.069247,0.115667,0.056061,0.100642,0.019364,-0.017050,-0.160667,0.115228,-0.056032,-0.991757,-0.043481,-0.035872,-0.022388,60.920223,31.190281,78.945801,,,,,,,
1512180465.089236,0.115569,0.056172,0.097464,0.014048,-0.017051,-0.160740,0.115130,-0.056142,-0.991763,-0.036471,-0.054423,0.021044,61.223705,31.940739,79.168594,,,,,,,
1512180465.109225,0.115380,0.056179,0.094341,0.019330,-0.018121,-0.158538,0.114942,-0.056149,-0.991784,-0.014433,-0.048221,-0.005363,61.598782,31.941303,79.315414,,,,,,,
1512180465.129214,0.115082,0.056125,0.091224,0.016056,-0.023477,-0.154341,0.114647,-0.056096,-0.991821,-0.044899,-0.050212,-0.017746,61.448406,31.866077,79.241653,,,,,,,
1512180465.149234,0.114789,0.056161,0.088071,0.016110,-0.023470,-0.157538,0.114356,-0.056132,-0.991853,-0.036216,-0.057805,0.007005,61.373043,31.790958,79.167252,,,,,,,
1512180465.169223,0.114421,0.056105,0.084944,0.020362,-0.025597,-0.156415,0.113992,-0.056076,-0.991898,0.017982,-0.044068,-0.022766,61.524578,32.166187,78.866165,,,,,,,
1512180465.189212,0.114060,0.056007,0.081767,0.014989,-0.021343,-0.154349,0.113634,-0.055978,-0.991944,-0.045122,-0.058387,-0.016936,61.825665,32.391636,79.013702,,,,,,,
1512180465.209231,0.113818,0.056010,0.078581,0.000122,-0.022427,-0.157766,0.113394,-0.055981,-0.991972,-0.052496,-0.057392,0.066526,61.973827,32.016865,78.712265,,,,,,,
1512180465.229220,0.113541,0.056031,0.075414,0.012961,-0.023470,-0.160782,0.113119,-0.056002,-0.992002,-0.032416,-0.061125,0.015470,62.275295,32.317310,78.934845,,,,,,,
1512180465.249209,0.113250,0.056065,0.072278,0.018247,-0.027735,-0.157519,0.112831,-0.056036,-0.992033,-0.012199,-0.052012,0.002439,62.200558,32.392200,78.785522,,,,,,,
1512180465.269229,0.113056,0.056056,0.069196,0.009669,-0.018143,-0.154414,0.112638,-0.056027,-0.992055,-0.018415,-0.055301,0.039617,62.650631,32.392872,78.931702,,,,,,,
1512180465.289218,0.112824,0.056189,0.066110,0.029808,-0.011722,-0.147706,0.112407,-0.056159,-0.992074,-0.051845,-0.060799,-0.054191,62.422924,31.792530,78.933334,,,,,,,
1512180465.309207,0.112492,0.056242,0.063042,0.029878,-0.025595,-0.152015,0.112078,-0.056212,-0.992108,-0.011980,-0.042726,-0.026477,62.649837,32.242878,78.706635,,,,,,,
1512180465.329226,0.112162,0.056247,0.060027,0.020215,-0.025618,-0.147891,0.111750,-0.056217,-0.992145,0.007589,-0.063259,-0.008374,62.652431,32.842884,78.481918,,,,,,,
1512180465.349215,0.111595,0.056338,0.056999,0.024433,-0.033096,-0.145725,0.111186,-0.056309,-0.992203,-0.022502,-0.056545,-0.027801,62.877468,32.843220,78.555008,,,,,,,
1512180465.369204,0.110900,0.056478,0.053927,0.023385,-0.046976,-0.146852,0.110497,-0.056448,-0.992272,-0.025398,-0.070200,0.015069,62.876080,32.543217,78.479874,,,,,,,
1512180465.389193,0.110108,0.056503,0.050940,0.018096,-0.048052,-0.150133,0.109711,-0.056473,-0.992358,-0.019867,-0.067703,0.007434,62.951199,32.618336,78.029266,,,,,,,
1512180465.409213,0.109257,0.056515,0.047930,0.006460,-0.054466,-0.155653,0.108866,-0.056485,-0.992450,-0.005747,-0.069247,0.048160,62.873119,31.943211,77.954590,,,,,,,
1512180465.429173,0.108473,0.056650,0.044966,0.010585,-0.053407,-0.147061,0.108086,-0.056619,-0.992528,-0.009545,-0.083029,0.045232,63.250515,32.468769,78.026642,,,,,,,
1512180465.449162,0.107726,0.056645,0.042032,0.018031,-0.044854,-0.145858,0.107345,-0.056615,-0.992609,-0.004623,-0.083675,0.011270,63.176189,32.618671,78.027344,,,,,,,
1512180465.469181,0.106952,0.056651,0.039142,0.014731,-0.043803,-0.139505,0.106577,-0.056621,-0.992691,-0.010126,-0.082234,0.022705,63.624172,32.169331,78.023315,,,,,,,
1512180465.489170,0.106148,0.056662,0.036265,0.010479,-0.049149,-0.140652,0.105779,-0.056631,-0.992776,-0.034673,-0.084970,0.038705,63.400402,32.468998,77.800369,,,,,,,
1512180465.509159,0.105309,0.056687,0.033490,0.018919,-0.050214,-0.135203,0.104946,-0.056657,-0.992863,-0.017146,-0.095275,-0.016003,63.701412,32.694447,77.797928,,,,,,,
1512180465.529179,0.104411,0.056707,0.030759,0.018954,-0.052346,-0.137341,0.104054,-0.056676,-0.992955,-0.002995,-0.072856,0.008687,63.851299,32.694675,77.571640,,,,,,,
1512180465.549168,0.103555,0.056680,0.028074,0.009286,-0.043822,-0.132120,0.103204,-0.056650,-0.993046,-0.044152,-0.059516,0.013248,64.001984,32.844898,77.570435,,,,,,,
1512180465.569157,0.102726,0.056636,0.025440,0.009218,-0.051311,-0.128951,0.102381,-0.056606,-0.993133,-0.011286,-0.079045,0.007477,64.075638,32.620014,76.894699,,,,,,,
1512180465.589176,0.101938,0.056682,0.022784,0.018830,-0.037405,-0.128761,0.101598,-0.056652,-0.993211,-0.060628,-0.081410,-0.013945,64.001724,32.844898,77.045441,,,,,,,
1512180465.609165,0.101157,0.056569,0.020194,0.023030,-0.041681,-0.125519,0.100823,-0.056539,-0.993296,-0.017221,-0.050868,-0.061849,64.302246,32.995350,76.742966,,,,,,,
1512180465.629154,0.100602,0.056370,0.017650,-0.005675,-0.027827,-0.129082,0.100273,-0.056341,-0.993363,-0.029976,-0.065943,0.027131,64.301193,32.770359,76.667862,,,,,,,
1512180465.649143,0.100220,0.056272,0.015103,-0.005711,-0.025696,-0.126944,0.099894,-0.056243,-0.993407,-0.066706,-0.068284,0.031936,64.301529,32.845356,76.667892,,,,,,,
1512180465.669163,0.100089,0.056248,0.012569,-0.003483,-0.012865,-0.132198,0.099764,-0.056218,-0.993422,-0.048541,-0.079524,0.032469,64.299210,32.395344,76.067688,,,,,,,
1512180465.689152,0.100109,0.056168,0.010106,0.001692,-0.009678,-0.123587,0.099784,-0.056138,-0.993424,-0.008903,-0.076217,0.052338,64.524246,32.395695,76.140778,,,,,,,
1512180465.709141,0.100034,0.056061,0.007712,0.006900,0.001001,-0.114943,0.099710,-0.056031,-0.993438,-0.072412,-0.071792,-0.013429,64.525406,32.695683,75.765915,,,,,,,
1512180465.729161,0.100110,0.056087,0.005415,0.019664,-0.005392,-0.113715,0.099786,-0.056057,-0.993429,-0.001077,-0.059467,-0.028605,64.223389,32.245243,75.768250,,,,,,,
1512180465.749150,0.100393,0.056027,0.003226,0.003575,0.022342,-0.106390,0.100067,-0.055997,-0.993404,-0.065155,-0.081423,0.014903,64.297867,32.170353,75.392578,,,,,,,
1512180465.769139,0.100797,0.055987,0.001095,0.020584,0.021298,-0.102946,0.100469,-0.055957,-0.993365,-0.023092,-0.079098,-0.036344,63.925518,32.769794,75.321045,,,,,,,
1512180465.789158,0.101549,0.055979,-0.000891,-0.000783,0.025532,-0.100043,0.101216,-0.055949,-0.993290,0.035853,-0.074589,0.028828,63.773952,32.394566,75.547150,,,,,,,
1512180465.809147,0.102463,0.055971,-0.002777,0.001239,0.045815,-0.092481,0.102123,-0.055942,-0.993197,-0.037121,-0.066586,0.022983,63.249462,32.543781,75.251678,,,,,,,
1512180465.829136,0.103459,0.055968,-0.004598,0.000132,0.047941,-0.090360,0.103113,-0.055939,-0.993095,-0.049219,-0.069305,0.032448,63.399837,32.619007,75.325439,,,,,,,
1512180465.849156,0.104585,0.056002,-0.006281,0.009684,0.049024,-0.087016,0.104231,-0.055973,-0.992977,0.036883,-0.086941,0.003719,62.871731,31.943211,75.179596,,,,,,,
1512180465.869145,0.105693,0.055935,-0.007846,0.010600,0.058620,-0.077375,0.105332,-0.055906,-0.992864,-0.020661,-0.067431,-0.035731,62.650555,32.767872,75.406891,,,,,,,
1512180465.889134,0.106792,0.055879,-0.009342,0.011586,0.046863,-0.073137,0.106423,-0.055850,-0.992751,0.044349,-0.061322,-0.038697,62.350658,32.767429,75.634430,,,,,,,
1512180465.909123,0.107997,0.055819,-0.010666,0.001908,0.055381,-0.067919,0.107620,-0.055790,-0.992625,0.041596,-0.066159,0.014491,61.675854,32.766422,76.015167,,,,,,,
1512180465.929142,0.109115,0.055706,-0.011849,0.000650,0.053214,-0.057288,0.108729,-0.055677,-0.992511,0.036092,-0.077745,0.015262,61.601376,32.916309,75.715881,,,,,,,
1512180465.949131,0.110257,0.055668,-0.012865,0.006957,0.048949,-0.050809,0.109863,-0.055639,-0.992388,0.087509,-0.071573,-0.009840,60.927532,33.140293,76.021713,,,,,,,
1512180465.969120,0.111440,0.055665,-0.013752,0.011031,0.067086,-0.038963,0.111037,-0.055636,-0.992258,0.000703,-0.054822,-0.006430,60.328991,33.439396,76.251968,,,,,,,
1512180465.989140,0.112647,0.055594,-0.014396,-0.012535,0.054226,-0.031883,0.112235,-0.055565,-0.992127,0.084359,-0.045677,0.039124,60.254177,33.439289,76.627594,,,,,,,
1512180466.009129,0.114033,0.055641,-0.014836,-0.003174,0.062753,-0.017862,0.113610,-0.055613,-0.991968,0.063133,-0.062704,0.030588,59.804333,33.438602,76.931412,,,,,,,
1512180466.029118,0.115453,0.055748,-0.015138,-0.004360,0.071280,-0.010387,0.115018,-0.055719,-0.991799,0.018436,-0.059484,0.039727,59.730541,33.663502,77.307159,,,,,,,
1512180466.049137,0.116849,0.055824,-0.015154,0.023126,0.065950,0.002782,0.116401,-0.055795,-0.991634,0.094765,-0.030783,-0.052937,59.281841,33.887821,77.911087,,,,,,,
1512180466.069126,0.118103,0.055690,-0.014952,-0.008007,0.061607,0.016177,0.117646,-0.055661,-0.991494,0.096725,-0.062686,-0.038214,59.130306,33.512592,78.212189,,,,,,,
1512180466.089115,0.119163,0.055696,-0.014591,-0.013629,0.047677,0.033103,0.118697,-0.055667,-0.991369,0.030672,-0.051938,0.034933,58.906246,33.737263,78.064194,,,,,,,
1512180466.109135,0.120056,0.055616,-0.014098,-0.017836,0.039130,0.028747,0.119582,-0.055587,-0.991267,0.019944,-0.046433,0.040049,58.985485,34.637379,78.438980,,,,,,,
1512180466.129124,0.120847,0.055558,-0.013406,-0.006081,0.033818,0.027837,0.120367,-0.055530,-0.991175,0.131098,-0.029675,-0.011098,59.133160,34.112598,78.512466,,,,,,,
1512180466.149113,0.121484,0.055403,-0.012633,-0.004129,0.033798,0.038524,0.121000,-0.055375,-0.991107,0.055148,-0.013732,-0.027936,59.133953,34.262608,78.737534,,,,,,,
1512180466.169102,0.122079,0.055254,-0.011813,-0.005250,0.032720,0.041702,0.121590,-0.055226,-0.991043,0.062431,-0.035091,-0.032288,59.134319,34.337605,78.812561,,,,,,,
1512180466.189122,0.122626,0.055182,-0.010989,-0.008426,0.023103,0.039489,0.122133,-0.055154,-0.990980,0.081831,-0.056434,-0.013064,59.061306,34.787495,78.738403,,,,,,,
1512180466.209111,0.123097,0.055160,-0.010124,-0.010607,0.020960,0.042649,0.122600,-0.055132,-0.990924,0.047185,-0.036116,0.037509,59.285625,34.637836,78.736420,,,,,,,
1512180466.229100,0.123552,0.055191,-0.009265,-0.012688,0.019894,0.039417,0.123050,-0.055163,-0.990866,0.022366,-0.035413,0.052176,58.985027,34.487385,78.888901,,,,,,,
1512180466.249119,0.123888,0.055271,-0.008395,0.003209,0.013499,0.044956,0.123382,-0.055243,-0.990820,0.054993,-0.080362,0.019217,58.909466,34.337269,79.114471,,,,,,,
1512180466.269108,0.124120,0.055428,-0.007522,0.004245,0.017771,0.047119,0.123611,-0.055399,-0.990783,0.002686,-0.059255,0.013274,59.284389,34.337833,78.961288,,,,,,,
1512180466.289097,0.124252,0.055669,-0.006644,0.006348,0.009231,0.049255,0.123740,-0.055640,-0.990753,-0.014655,-0.049249,0.006897,59.283825,34.187824,79.186218,,,,,,,
1512180466.309117,0.124241,0.055844,-0.005773,-0.004239,-0.003604,0.042654,0.123728,-0.055815,-0.990745,0.000631,-0.044969,0.027595,59.057522,33.887486,79.262985,,,,,,,
1512180466.329106,0.124272,0.056059,-0.004847,-0.002169,-0.003597,0.048021,0.123758,-0.056030,-0.990729,0.027503,-0.046173,0.021674,59.209774,34.412708,79.036957,,,,,,,
1512180466.349095,0.124313,0.056140,-0.003938,-0.023483,0.007042,0.046677,0.123798,-0.056111,-0.990720,-0.039417,-0.057521,0.075864,59.133724,34.187595,78.962494,,,,,,,
1512180466.369114,0.124441,0.056322,-0.003088,-0.014840,0.010277,0.040420,0.123923,-0.056292,-0.990694,-0.037955,-0.062681,0.068071,59.208721,34.187717,78.961853,,,,,,,
1512180466.389103,0.124603,0.056307,-0.002207,0.006495,0.012448,0.039670,0.124083,-0.056277,-0.990675,0.060990,-0.070844,-0.051928,59.282375,33.887821,78.961075,,,,,,,
1512180466.409092,0.124817,0.056175,-0.001323,-0.009596,0.019886,0.045858,0.124297,-0.056146,-0.990655,-0.000365,-0.063086,-0.007605,58.905117,33.437260,78.514069,,,,,,,
1512180466.429081,0.124948,0.056018,-0.000504,-0.012791,0.009204,0.045777,0.124427,-0.055989,-0.990648,0.008446,-0.067119,-0.018431,59.359020,34.262943,78.885620,,,,,,,
1512180466.449075,0.125004,0.055836,0.000264,-0.011637,0.003871,0.039376,0.124484,-0.055807,-0.990651,0.026196,-0.034571,-0.020778,59.057339,33.887486,78.887985,,,,,,,
1512180466.469064,0.124787,0.055627,0.001005,-0.015902,-0.012153,0.039261,0.124271,-0.055599,-0.990689,-0.012119,-0.029210,-0.019397,59.583263,34.113270,78.733627,,,,,,,
1512180466.489053,0.124452,0.055469,0.001731,-0.023244,-0.020694,0.031663,0.123940,-0.055441,-0.990740,0.025046,-0.048975,0.026750,59.206997,33.812717,78.886688,,,,,,,
1512180466.509072,0.124030,0.055464,0.002476,-0.006287,-0.020683,0.037237,0.123522,-0.055436,-0.990792,0.023710,-0.047927,-0.001228,59.356579,33.737934,78.735367,,,,,,,
1512180466.529061,0.123614,0.055398,0.003179,-0.012583,-0.015337,0.031836,0.123110,-0.055370,-0.990847,0.000730,-0.050297,0.029620,59.806774,33.813618,78.431580,,,,,,,
1512180466.549050,0.123186,0.055490,0.003831,0.009751,-0.016375,0.035355,0.122685,-0.055462,-0.990895,-0.026753,-0.039829,-0.025798,59.582180,33.888279,78.583542,,,,,,,
1512180466.569070,0.122727,0.055401,0.004397,-0.002885,-0.018521,0.024499,0.122231,-0.055373,-0.990956,0.002433,-0.066255,-0.022884,59.730679,33.588490,78.282120,,,,,,,
1512180466.589059,0.122304,0.055486,0.004949,0.003479,-0.017445,0.026728,0.121812,-0.055458,-0.991003,-0.027100,-0.064812,0.006887,59.355602,33.587940,78.135315,,,,,,,
1512180466.609048,0.121941,0.055520,0.005448,0.003516,-0.019575,0.024590,0.121451,-0.055491,-0.991045,0.005075,-0.041783,-0.002760,59.206585,33.812717,78.061691,,,,,,,
1512180466.629067,0.121685,0.055550,0.005868,-0.004954,-0.008902,0.021305,0.121197,-0.055521,-0.991074,-0.061246,-0.063863,0.032471,59.355007,33.437931,78.285233,,,,,,,
1512180466.649056,0.121311,0.055654,0.006241,-0.008128,-0.020647,0.020156,0.120826,-0.055625,-0.991114,-0.027427,-0.074059,0.060557,59.730312,33.513493,78.207092,,,,,,,
1512180466.669045,0.120967,0.055726,0.006634,-0.001661,-0.019560,0.015989,0.120485,-0.055697,-0.991151,-0.009416,-0.055647,0.052370,59.429928,33.438053,78.134598,,,,,,,
1512180466.689034,0.120605,0.055768,0.006960,-0.006995,-0.014232,0.015928,0.120126,-0.055740,-0.991193,-0.050576,-0.056870,0.057599,59.804516,33.363605,77.981384,,,,,,,
1512180466.709054,0.120201,0.055743,0.007256,-0.006969,-0.021707,0.013770,0.119726,-0.055714,-0.991242,-0.037054,-0.060268,0.044938,59.805233,33.513615,78.056442,,,,,,,
1512180466.729043,0.119783,0.055663,0.007509,-0.013399,-0.030263,0.015780,0.119312,-0.055634,-0.991297,0.013943,-0.071853,0.068918,59.578960,33.213276,78.208221,,,,,,,
1512180466.749032,0.119489,0.055571,0.007747,-0.007962,-0.005675,0.010615,0.119021,-0.055543,-0.991337,-0.042056,-0.061202,0.051273,59.955715,33.663837,77.680237,,,,,,,
1512180466.769052,0.119363,0.055492,0.007926,0.012237,0.001824,0.014131,0.118896,-0.055464,-0.991356,-0.043671,-0.062044,-0.025703,59.805767,33.663609,77.756516,,,,,,,
1512180466.789041,0.119429,0.055270,0.008099,-0.000501,0.007157,0.011836,0.118963,-0.055242,-0.991361,-0.006536,-0.053767,-0.003650,59.805462,33.588612,77.831482,,,,,,,
1512180466.809030,0.119591,0.055019,0.008285,-0.014345,0.010338,0.010578,0.119125,-0.054991,-0.991355,-0.022278,-0.054750,-0.005364,59.580379,33.588276,77.683395,,,,,,,
1512180466.829049,0.119789,0.054769,0.008387,-0.023810,0.003927,0.001888,0.119324,-0.054741,-0.991345,-0.043839,-0.056144,0.051999,59.730953,33.663502,78.132156,,,,,,,
1512180466.849038,0.120004,0.054424,0.008584,-0.019549,0.007143,0.003030,0.119539,-0.054397,-0.991338,-0.008226,-0.067323,0.005788,59.578762,33.213276,77.833221,,,,,,,
1512180466.869027,0.120201,0.054131,0.008760,-0.031323,0.008181,0.004991,0.119736,-0.054105,-0.991330,-0.040223,-0.068072,0.076154,59.732372,33.963505,78.282288,,,,,,,
1512180466.889047,0.120385,0.053857,0.008977,-0.012127,0.006080,0.005266,0.119920,-0.053831,-0.991323,-0.004594,-0.054689,-0.001948,59.582485,33.963276,78.508575,,,,,,,
1512180466.909036,0.120701,0.053516,0.009191,-0.020625,0.016753,0.004114,0.120236,-0.053490,-0.991303,0.000522,-0.054115,0.024674,59.133907,34.262608,78.662537,,,,,,,
1512180466.929025,0.121008,0.053161,0.009488,-0.014381,0.014605,0.012723,0.120542,-0.053136,-0.991285,0.032885,-0.058268,-0.007464,59.133266,34.112598,78.737457,,,,,,,
1512180466.949014,0.121579,0.052766,0.009791,-0.018684,0.033818,0.015926,0.121111,-0.052741,-0.991237,0.008284,-0.060616,-0.013753,59.133389,34.112598,78.962448,,,,,,,
1512180466.969033,0.122228,0.052309,0.010197,-0.028332,0.039142,0.020071,0.121757,-0.052285,-0.991182,-0.031959,-0.066047,0.009431,59.060070,34.487492,78.963272,,,,,,,
1512180466.989022,0.123037,0.051846,0.010675,-0.027302,0.040207,0.022222,0.122562,-0.051823,-0.991107,0.103726,-0.061763,0.010302,59.134548,34.337605,79.262558,,,,,,,
1512180467.009011,0.123925,0.051357,0.011332,-0.027526,0.046588,0.036099,0.123445,-0.051334,-0.991023,0.045225,-0.059918,0.031474,58.909512,34.337269,79.189468,,,,,,,
1512180467.029031,0.124790,0.050914,0.012041,-0.042545,0.046550,0.041209,0.124305,-0.050892,-0.990938,-0.008171,-0.051967,0.070513,59.059582,34.337482,79.338196,,,,,,,
1512180467.049020,0.125751,0.050370,0.012964,-0.022366,0.045504,0.045762,0.125261,-0.050349,-0.990845,0.102232,-0.039632,-0.053222,59.284771,34.337833,79.711288,,,,,,,
1512180467.069009,0.126783,0.049711,0.014103,-0.050243,0.055056,0.056053,0.126288,-0.049690,-0.990748,0.090372,-0.057289,0.001521,59.058651,34.112492,79.488098,,,,,,,
1512180467.089028,0.127805,0.049012,0.015391,-0.067523,0.055003,0.069662,0.127305,-0.048992,-0.990653,0.028335,-0.061603,0.054282,59.361797,34.787937,79.710861,,,,,,,
1512180467.109017,0.128821,0.048387,0.016769,-0.058997,0.052880,0.069778,0.128315,-0.048368,-0.990553,0.047802,-0.051501,0.069136,59.511913,34.788166,79.934586,,,,,,,
1512180467.129006,0.129746,0.047511,0.018358,-0.042981,0.052905,0.067876,0.129237,-0.047493,-0.990476,0.100210,-0.012321,-0.023562,59.511684,34.713169,80.159546,,,,,,,
1512180467.149026,0.130643,0.046664,0.020157,-0.045394,0.047529,0.084881,0.130130,-0.046647,-0.990399,0.104276,-0.009689,-0.045474,59.588024,35.013279,80.159042,,,,,,,
1512180467.169015,0.131549,0.045795,0.022032,-0.058203,0.054981,0.085785,0.131032,-0.045779,-0.990321,0.029948,-0.005827,-0.010183,59.433941,34.113056,80.084900,,,,,,,
1512180467.189004,0.132373,0.044866,0.024037,-0.057225,0.036820,0.091070,0.131854,-0.044850,-0.990254,0.147947,-0.015223,-0.001796,60.112026,34.789066,80.154480,,,,,,,
1512180467.208993,0.133272,0.044011,0.026163,-0.061731,0.052802,0.105983,0.132749,-0.043997,-0.990173,0.114428,-0.011011,0.011245,60.189053,35.239185,80.154053,,,,,,,
1512180467.229013,0.134070,0.043264,0.028360,-0.053339,0.035709,0.113508,0.133544,-0.043251,-0.990099,0.057893,0.027549,-0.011076,60.263073,35.014301,80.228317,,,,,,,
1512180467.249002,0.134612,0.042564,0.030644,-0.050090,0.015432,0.110290,0.134085,-0.042551,-0.990056,0.095103,0.026880,-0.009792,60.338070,35.014408,80.227676,,,,,,,
1512180467.268991,0.134857,0.041892,0.033026,-0.048069,0.009006,0.115622,0.134331,-0.041880,-0.990051,0.122230,-0.029943,0.003708,60.562099,34.789738,80.300659,,,,,,,
1512180467.289010,0.134734,0.041531,0.035610,-0.036573,-0.009156,0.129588,0.134211,-0.041519,-0.990083,0.133078,0.008315,-0.013335,60.636761,34.714863,80.299988,,,,,,,
1512180467.308999,0.134413,0.041123,0.038257,-0.045068,-0.008098,0.127336,0.133895,-0.041111,-0.990142,0.011536,0.061085,0.046249,60.937069,34.790302,80.222473,,,,,,,
1512180467.328988,0.133970,0.040699,0.040942,-0.017370,-0.016606,0.127705,0.133459,-0.040688,-0.990219,0.083795,-0.022133,-0.087342,61.163067,35.015644,80.220657,,,,,,,
1512180467.349008,0.133583,0.040449,0.043742,-0.036663,-0.015581,0.133825,0.133077,-0.040438,-0.990280,0.124568,-0.002974,0.059769,61.088039,35.015537,80.146301,,,,,,,
1512180467.368997,0.133410,0.040227,0.046673,-0.029397,-0.000638,0.146776,0.132907,-0.040216,-0.990312,0.035428,0.024087,0.048921,61.010571,34.490421,79.921692,,,,,,,
1512180467.388986,0.133579,0.039856,0.049577,-0.028270,0.016459,0.143653,0.133076,-0.039845,-0.990304,0.069454,-0.007152,0.013361,61.085644,34.490528,80.071060,,,,,,,
1512180467.409005,0.133815,0.039415,0.052546,-0.044330,0.020703,0.148768,0.133312,-0.039404,-0.990290,0.075306,0.000907,0.029780,61.159771,34.340641,79.695343,,,,,,,
1512180467.428994,0.134007,0.038941,0.055591,-0.051868,0.014273,0.152900,0.133505,-0.038931,-0.990283,0.041788,-0.002542,0.040683,61.462994,35.016102,80.068115,,,,,,,
1512180467.448954,0.134204,0.038371,0.058636,-0.065676,0.008917,0.149483,0.133703,-0.038362,-0.990279,0.057810,-0.022002,0.080611,61.612698,34.941319,80.141800,,,,,,,
1512180467.468943,0.134359,0.037677,0.061809,-0.057158,0.008933,0.150675,0.133860,-0.037668,-0.990284,0.050023,-0.031454,0.070011,61.609554,34.266315,79.916489,,,,,,,
1512180467.488963,0.134704,0.036810,0.065062,-0.071022,0.028134,0.151605,0.134206,-0.036802,-0.990270,0.061000,-0.018175,0.077993,61.760677,34.491535,80.140320,,,,,,,
1512180467.508952,0.135146,0.035977,0.068361,-0.067963,0.030259,0.160186,0.134648,-0.035969,-0.990240,0.006282,0.020741,0.070822,61.982830,33.891880,79.838135,,,,,,,
1512180467.528941,0.135632,0.034984,0.071674,-0.077533,0.032377,0.157919,0.135134,-0.034977,-0.990210,-0.010530,-0.009746,0.056128,62.285183,34.417332,79.835815,,,,,,,
1512180467.548960,0.136251,0.034064,0.075109,-0.064691,0.030274,0.155970,0.135751,-0.034058,-0.990157,0.106574,-0.009323,0.040893,62.360897,34.567448,79.910248,,,,,,,
1512180467.568949,0.136865,0.032983,0.078684,-0.090510,0.035541,0.169469,0.136364,-0.032977,-0.990110,0.046971,-0.008619,0.088132,62.134853,34.342106,79.837067,,,,,,,
1512180467.588938,0.137480,0.031916,0.082299,-0.074606,0.035557,0.175031,0.136977,-0.031910,-0.990060,0.009263,0.004063,0.043191,62.284771,34.342319,79.685791,,,,,,,
1512180467.608958,0.138193,0.030846,0.085996,-0.073506,0.037698,0.172922,0.137688,-0.030841,-0.989995,0.074531,0.026752,0.031057,62.659100,34.192890,79.682526,,,,,,,
1512180467.628947,0.138878,0.029719,0.089794,-0.071471,0.039828,0.179357,0.138371,-0.029714,-0.989935,0.140026,-0.014765,0.009084,62.509899,34.342670,79.908875,,,,,,,
1512180467.648936,0.139516,0.028658,0.093653,-0.085528,0.033373,0.190856,0.139007,-0.028654,-0.989877,0.112260,-0.022295,0.046105,62.809551,34.268116,79.906296,,,,,,,
1512180467.668955,0.140209,0.027803,0.097574,-0.093003,0.046175,0.191857,0.139696,-0.027799,-0.989804,0.034117,-0.005358,0.120328,63.107861,33.893559,79.903564,,,,,,,
1512180467.688944,0.141137,0.027062,0.101572,-0.060971,0.050503,0.189139,0.140618,-0.027058,-0.989694,0.057594,0.056447,0.004999,63.107296,33.743565,80.128494,,,,,,,
1512180467.708933,0.142224,0.026286,0.105701,-0.069544,0.052623,0.192221,0.141696,-0.026283,-0.989561,0.149472,0.024818,-0.014894,63.408321,33.969013,80.126053,,,,,,,
1512180467.728922,0.143541,0.025778,0.109830,-0.037712,0.078287,0.202366,0.143001,-0.025775,-0.989387,0.057271,0.064914,-0.081719,63.557796,33.894230,79.749741,,,,,,,
1512180467.748942,0.145072,0.025408,0.114001,-0.029371,0.084687,0.214236,0.144517,-0.025406,-0.989176,0.089614,0.069778,-0.112081,64.081970,33.745029,79.445206,,,,,,,
1512180467.768931,0.146644,0.025027,0.118221,-0.044183,0.090018,0.207644,0.146073,-0.025025,-0.988957,0.041870,-0.012085,-0.037639,64.008102,33.969913,79.670959,,,,,,,
1512180467.788920,0.147896,0.024853,0.122415,-0.025091,0.061197,0.212084,0.147312,-0.024851,-0.988778,0.099988,-0.036306,-0.061271,64.082321,33.820026,79.445251,,,,,,,
1512180467.808940,0.148945,0.024752,0.126692,-0.037791,0.054775,0.205478,0.148350,-0.024750,-0.988625,0.148281,-0.048233,-0.003669,64.304611,33.220356,79.443054,,,,,,,
1512180467.828929,0.149699,0.024794,0.131034,-0.010264,0.048392,0.217586,0.149095,-0.024792,-0.988512,0.100340,0.089672,-0.110762,64.604004,33.070805,79.590439,,,,,,,
1512180467.848918,0.150185,0.024814,0.135390,-0.029578,0.029118,0.223632,0.149575,-0.024812,-0.988439,0.056037,0.041123,-0.032450,64.525818,32.395695,79.290756,,,,,,,
1512180467.868937,0.150812,0.024932,0.139860,-0.009075,0.037731,0.210105,0.150194,-0.024930,-0.988342,0.046202,-0.067218,-0.078873,64.752853,32.846027,79.289062,,,,,,,
1512180467.888926,0.151835,0.025310,0.144418,-0.010247,0.053733,0.216537,0.151203,-0.025307,-0.988179,0.206066,0.018532,-0.018398,64.751282,32.471027,79.513885,,,,,,,
1512180467.908915,0.152894,0.025574,0.149098,-0.029817,0.057928,0.239721,0.152250,-0.025571,-0.988011,0.123492,0.069303,0.049870,64.975677,32.396366,78.986938,,,,,,,
1512180467.928935,0.153782,0.025903,0.153856,-0.018168,0.046190,0.244114,0.153126,-0.025900,-0.987867,0.047299,0.005728,0.020185,65.276794,32.621815,79.209488,,,,,,,
1512180467.948924,0.154489,0.026426,0.158695,-0.016170,0.022674,0.250455,0.153822,-0.026423,-0.987745,0.160738,0.003382,0.031858,65.349701,32.171925,79.058655,,,,,,,
1512180467.968913,0.154922,0.026731,0.163708,-0.014278,0.021584,0.265405,0.154248,-0.026728,-0.987670,0.164386,0.014002,0.004333,65.648956,32.022373,78.906021,,,,,,,
1512180467.988902,0.154988,0.027239,0.169189,-0.015492,0.005544,0.273861,0.154311,-0.027235,-0.987647,0.104966,0.001707,0.029425,65.648544,31.947376,78.755997,,,,,,,
1512180468.008921,0.154852,0.027738,0.175074,-0.018102,-0.007339,0.301493,0.154174,-0.027734,-0.987654,0.139985,0.055429,0.024947,65.646515,31.497379,78.755783,,,,,,,
1512180468.028910,0.154674,0.027922,0.179967,-0.015722,-0.010251,0.157602,0.153998,-0.027918,-0.987677,0.055017,0.057337,-0.002207,65.871475,31.497715,78.678879,,,,,,,
1512180468.048899,0.154348,0.027498,0.180934,-0.035225,-0.022750,-0.017556,0.153678,-0.027494,-0.987738,-0.001960,0.006071,0.017340,65.944000,30.972813,78.453003,,,,,,,
1512180468.068919,0.153916,0.026310,0.177960,-0.025292,-0.021249,-0.232754,0.153256,-0.026307,-0.987836,0.004398,0.007630,-0.004382,65.643997,30.972370,78.455551,,,,,,,
1512180468.088908,0.154350,0.024038,0.166897,-0.010961,0.032061,-0.711021,0.153693,-0.024036,-0.987826,0.086465,-0.096173,0.024051,65.949402,32.172825,78.453552,,,,,,,
1512180468.108897,0.155124,0.022813,0.161612,-0.007620,0.035895,0.056605,0.154462,-0.022811,-0.987735,-0.022352,0.019210,0.007312,65.877625,32.922718,78.154541,,,,,,,
1512180468.128916,0.155034,0.022953,0.166848,-0.041325,0.016157,0.289515,0.154373,-0.022951,-0.987746,0.051590,-0.064558,0.011534,66.024292,32.172932,78.227921,,,,,,,
1512180468.148905,0.154933,0.023282,0.172728,-0.024251,-0.001973,0.287568,0.154272,-0.023280,-0.987754,0.159921,-0.081624,-0.019402,66.099319,32.173054,78.302277,,,,,,,
1512180468.168894,0.154520,0.023533,0.178640,-0.038155,-0.016954,0.289445,0.153863,-0.023531,-0.987812,0.159049,-0.095213,-0.046673,65.724106,32.172489,77.855469,,,,,,,
1512180468.188914,0.153710,0.023798,0.184492,-0.039340,-0.044745,0.294659,0.153062,-0.023796,-0.987930,0.101363,-0.076088,-0.000199,66.249176,32.173267,78.001007,,,,,,,
1512180468.208903,0.152792,0.024008,0.190407,-0.032905,-0.043660,0.292625,0.152154,-0.024006,-0.988065,0.185813,-0.125271,-0.025851,66.101242,32.623051,78.077484,,,,,,,
1512180468.228892,0.151771,0.024262,0.196530,-0.043746,-0.046905,0.303116,0.151145,-0.024260,-0.988214,0.148492,-0.131090,0.042367,66.097153,31.723042,78.002075,,,,,,,
1512180468.248881,0.151132,0.024543,0.202655,-0.035380,-0.024482,0.313976,0.150512,-0.024541,-0.988303,0.107392,-0.129146,0.045692,66.246811,31.648273,78.000763,,,,,,,
1512180468.268900,0.150985,0.024955,0.208894,-0.022587,0.004383,0.316398,0.150365,-0.024952,-0.988316,0.103069,-0.104061,0.033741,66.094788,31.198048,78.001831,,,,,,,
1512180468.288890,0.150991,0.025347,0.215176,-0.010855,0.027896,0.316647,0.150370,-0.025345,-0.988305,0.076361,-0.084900,-0.053367,66.095917,31.423038,78.226929,,,,,,,
1512180468.308879,0.151234,0.025748,0.221534,-0.032065,0.022538,0.309926,0.150608,-0.025745,-0.988258,0.136730,-0.069073,0.031105,66.092545,30.748035,77.551620,,,,,,,
1512180468.328898,0.151839,0.026372,0.228045,-0.020591,0.049233,0.327245,0.151204,-0.026369,-0.988151,0.092632,-0.091642,0.023216,65.717682,30.747486,77.854813,,,,,,,
1512180468.348887,0.152387,0.026873,0.234570,-0.024922,0.035331,0.330331,0.151743,-0.026870,-0.988055,0.057043,-0.082001,0.066653,66.018661,30.972935,77.777359,,,,,,,
1512180468.368876,0.153129,0.027517,0.241113,-0.018433,0.043890,0.324054,0.152474,-0.027513,-0.987924,0.092979,-0.049025,0.027216,66.091721,30.523045,77.926514,,,,,,,
1512180468.388896,0.153696,0.028247,0.247703,-0.021738,0.028922,0.330353,0.153030,-0.028243,-0.987818,0.057160,-0.031831,0.068461,65.865738,30.297703,78.003326,,,,,,,
1512180468.408885,0.154240,0.029004,0.254257,-0.015219,0.024676,0.322971,0.153565,-0.029000,-0.987713,0.146972,-0.033134,0.042263,65.791077,30.372593,78.003998,,,,,,,
1512180468.428874,0.154903,0.029930,0.260788,-0.009944,0.039625,0.326294,0.154215,-0.029926,-0.987584,0.154562,-0.071743,0.046590,65.566452,30.447254,78.080948,,,,,,,
1512180468.448896,0.155381,0.030929,0.267198,-0.004666,0.033229,0.330619,0.154683,-0.030924,-0.987480,0.110332,-0.016912,0.068764,66.016190,30.372929,78.227081,,,,,,,
1512180468.468885,0.155821,0.031926,0.273569,0.003903,0.025761,0.326447,0.155112,-0.031920,-0.987381,0.121926,-0.002824,0.015289,65.640167,30.147358,78.230164,,,,,,,
1512180468.488874,0.156267,0.033094,0.279899,0.014688,0.033268,0.319167,0.155547,-0.033088,-0.987274,0.191957,0.007224,-0.002197,65.715515,30.222477,78.229568,,,,,,,
1512180468.508863,0.156591,0.034291,0.286215,0.016809,0.032205,0.320262,0.155860,-0.034284,-0.987184,0.140572,0.019147,-0.010634,65.111053,29.246571,78.084213,,,,,,,
1512180468.528883,0.156911,0.035575,0.292494,0.012462,0.015099,0.324403,0.156169,-0.035568,-0.987090,0.094259,0.009048,0.033110,65.413116,29.697025,78.156876,,,,,,,
1512180468.548872,0.157164,0.037063,0.298720,0.022028,0.008700,0.325585,0.156410,-0.037055,-0.986997,0.160011,-0.008172,0.022092,65.712143,29.472462,78.229218,,,,,,,
1512180468.568861,0.157148,0.038526,0.305036,0.026400,0.010856,0.319260,0.156386,-0.038516,-0.986945,0.155565,-0.023770,0.012686,65.410416,29.097019,78.156601,,,,,,,
1512180468.588880,0.157029,0.040044,0.311413,0.018826,-0.003053,0.325499,0.156259,-0.040033,-0.986904,0.137656,-0.034033,0.028912,65.709061,28.797459,78.153915,,,,,,,
1512180468.608869,0.156899,0.041536,0.317829,0.021994,0.001222,0.327692,0.156121,-0.041524,-0.986865,0.148948,-0.012522,0.031756,64.881851,28.346226,77.785721,,,,,,,
1512180468.628858,0.156619,0.042939,0.324278,0.017617,-0.000937,0.334016,0.155836,-0.042926,-0.986850,0.071795,-0.025769,0.011249,65.332901,28.571903,77.856995,,,,,,,
1512180468.648878,0.156388,0.044380,0.330760,0.026160,0.003348,0.333087,0.155598,-0.044365,-0.986824,0.113690,-0.017631,-0.018792,65.407074,28.347004,78.231247,,,,,,,
1512180468.668867,0.156162,0.045600,0.337313,0.013475,0.021501,0.327637,0.155367,-0.045584,-0.986805,0.147261,-0.011637,-0.062848,65.182083,28.346668,78.233154,,,,,,,
1512180468.688856,0.156171,0.046642,0.343877,-0.002622,0.016123,0.333782,0.155368,-0.046626,-0.986756,0.183988,-0.006673,-0.057922,65.032379,28.421452,78.159470,,,,,,,
1512180468.708875,0.156357,0.047573,0.350458,0.002680,0.037493,0.337133,0.155544,-0.047555,-0.986683,0.061802,0.013467,-0.066234,65.179596,27.821674,78.007919,,,,,,,
1512180468.728864,0.156172,0.048304,0.357099,-0.021881,0.002202,0.337720,0.155356,-0.048285,-0.986678,0.033655,-0.065286,-0.011766,64.955841,28.046329,78.459946,,,,,,,
1512180468.748853,0.156133,0.048951,0.363737,-0.020595,0.012912,0.324984,0.155313,-0.048932,-0.986653,0.125860,-0.054309,-0.013241,65.181396,28.196674,78.233093,,,,,,,
1512180468.768842,0.156304,0.049376,0.370332,-0.028097,0.039595,0.328164,0.155479,-0.049356,-0.986605,0.136010,-0.021322,-0.051801,64.728546,27.595997,77.936646,,,,,,,
1512180468.788862,0.156601,0.049604,0.376966,-0.039919,0.036365,0.334380,0.155770,-0.049584,-0.986548,0.085701,0.006310,-0.001947,64.502304,27.295658,78.163422,,,,,,,
1512180468.808851,0.156930,0.049830,0.383592,-0.033515,0.053464,0.334531,0.156092,-0.049810,-0.986486,0.022130,-0.031199,-0.055919,64.652573,27.370884,78.012177,,,,,,,
1512180468.828840,0.157200,0.049979,0.390176,-0.046150,0.022489,0.323580,0.156358,-0.049959,-0.986436,0.130324,-0.057280,0.024385,64.500992,26.995655,78.238281,,,,,,,
1512180468.848860,0.157744,0.050199,0.396777,-0.044993,0.041730,0.319402,0.156893,-0.050178,-0.986340,0.156278,-0.037774,0.029355,64.499603,26.695652,78.163132,,,,,,,
1512180468.868849,0.158221,0.050297,0.403313,-0.053620,0.022473,0.323470,0.157363,-0.050276,-0.986260,0.090852,-0.020906,0.036065,64.500778,26.920643,78.463242,,,,,,,
1512180468.888838,0.158691,0.050534,0.409783,-0.043890,0.026781,0.316166,0.157824,-0.050513,-0.986174,0.155866,-0.015756,0.041411,64.499344,26.620640,78.313110,,,,,,,
1512180468.908857,0.158819,0.050849,0.416331,-0.035447,0.017169,0.320518,0.157948,-0.050827,-0.986138,0.206508,-0.062744,0.039681,64.275665,26.920307,78.240158,,,,,,,
1512180468.928846,0.158730,0.051319,0.422814,-0.027125,0.001136,0.332309,0.157856,-0.051297,-0.986129,0.107189,-0.053318,0.036162,64.501068,26.995655,78.388275,,,,,,,
1512180468.948835,0.158706,0.051890,0.429253,-0.022726,0.008631,0.323868,0.157828,-0.051867,-0.986103,0.140329,-0.013960,0.052784,64.198669,26.470203,78.315582,,,,,,,
1512180468.968855,0.158688,0.052538,0.435809,-0.006697,0.035364,0.323129,0.157804,-0.052514,-0.986073,0.172457,-0.025214,-0.052211,64.198288,26.395191,78.240540,,,,,,,
1512180468.988844,0.158737,0.053291,0.442332,-0.013122,0.017201,0.325109,0.157846,-0.053266,-0.986026,0.098669,-0.031100,0.035464,64.121826,26.095081,78.016052,,,,,,,
1512180469.008833,0.158807,0.054060,0.448804,-0.018473,0.004368,0.324984,0.157909,-0.054034,-0.985974,0.111546,-0.034543,0.066052,63.821911,26.094639,78.168594,,,,,,,
1512180469.028822,0.158563,0.054948,0.455309,-0.000350,0.000126,0.325233,0.157661,-0.054921,-0.985965,0.196541,-0.049221,-0.023480,63.593899,25.419285,78.245193,,,,,,,
1512180469.048841,0.157936,0.055941,0.461852,-0.013288,-0.033029,0.331322,0.157035,-0.055912,-0.986009,0.187478,-0.032116,0.066789,63.596310,25.944294,78.320450,,,,,,,
1512180469.068830,0.156984,0.057073,0.468253,0.000612,-0.040474,0.329370,0.156086,-0.057042,-0.986095,0.070584,-0.026378,0.042614,63.145473,25.793613,78.024200,,,,,,,
1512180469.088819,0.155712,0.058211,0.474630,0.010333,-0.056465,0.320926,0.154821,-0.058178,-0.986228,0.168376,-0.031391,-0.005181,63.293941,25.418842,78.322754,,,,,,,
1512180469.108839,0.154417,0.059381,0.480975,0.010427,-0.046841,0.315631,0.153533,-0.059346,-0.986360,0.164704,-0.035609,0.001435,62.618679,25.342823,78.478455,,,,,,,
1512180469.128828,0.153042,0.060518,0.487245,0.011479,-0.053254,0.315621,0.152166,-0.060481,-0.986503,0.142832,-0.037389,-0.009255,62.918011,25.193272,78.475830,,,,,,,
1512180469.148817,0.151694,0.061647,0.493442,0.004051,-0.053255,0.314451,0.150826,-0.061608,-0.986639,0.127983,-0.029945,-0.002802,62.618191,25.267826,78.178421,,,,,,,
1512180469.168836,0.150201,0.062724,0.499584,-0.003408,-0.070356,0.313217,0.149343,-0.062683,-0.986796,0.109080,-0.039017,0.039409,62.237255,23.992252,77.806015,,,,,,,
1512180469.188825,0.148773,0.063793,0.505629,0.008407,-0.054310,0.308111,0.147924,-0.063750,-0.986942,0.108027,-0.041444,-0.020901,61.715450,24.666477,78.110794,,,,,,,
1512180469.208814,0.147355,0.064791,0.511637,0.004214,-0.053240,0.303790,0.146515,-0.064745,-0.987087,0.063202,-0.031278,0.005322,61.938763,24.291798,78.108704,,,,,,,
1512180469.228834,0.146071,0.065747,0.517611,0.006444,-0.039340,0.298540,0.145238,-0.065699,-0.987213,0.032634,-0.008810,-0.017197,61.712490,23.991459,78.260468,,,,,,,
1512180469.248823,0.144992,0.066633,0.523554,0.000112,-0.040405,0.295249,0.144164,-0.066583,-0.987311,0.056473,0.001047,0.007636,61.711880,23.841465,78.410400,,,,,,,
1512180469.268812,0.144213,0.067506,0.529453,0.002262,-0.016901,0.295363,0.143386,-0.067455,-0.987365,0.055695,-0.000202,-0.017670,61.336803,23.840900,78.263596,,,,,,,
1512180469.288801,0.143638,0.068261,0.535266,-0.010477,-0.008373,0.292007,0.142812,-0.068208,-0.987397,-0.013325,-0.007186,0.022660,61.110577,23.540562,78.490372,,,,,,,
1512180469.308820,0.143463,0.069059,0.540956,-0.018855,-0.006229,0.283367,0.142630,-0.069005,-0.987368,-0.016761,0.002522,0.066668,60.810528,23.540119,78.417923,,,,,,,
1512180469.328809,0.143660,0.069761,0.546558,-0.011231,0.017302,0.275032,0.142818,-0.069704,-0.987291,0.058002,-0.004621,0.011995,60.582790,22.939777,78.344559,,,,,,,
1512180469.348799,0.144025,0.070400,0.551992,-0.010061,0.037604,0.268719,0.143172,-0.070342,-0.987195,-0.010253,-0.018632,-0.009662,60.284405,23.314320,78.197281,,,,,,,
1512180469.368818,0.144427,0.071028,0.557287,-0.008875,0.035483,0.261266,0.143563,-0.070968,-0.987093,0.048774,0.038375,0.006609,60.510006,23.389668,78.720398,,,,,,,
1512180469.388807,0.144639,0.071464,0.562510,-0.007735,0.037631,0.257026,0.143767,-0.071403,-0.987032,0.083803,0.008522,-0.063581,59.982937,22.938877,78.649658,,,,,,,
1512180469.408796,0.144674,0.071900,0.567566,-0.008678,0.026973,0.250586,0.143798,-0.071838,-0.986996,0.043244,0.018631,-0.044513,60.059322,23.238987,78.724152,,,,,,,
1512180469.428816,0.144773,0.072297,0.572464,-0.013959,0.022691,0.246225,0.143891,-0.072234,-0.986954,0.033553,0.057082,-0.039780,59.756741,22.638538,78.951416,,,,,,,
1512180469.448753,0.145003,0.072675,0.577241,-0.016941,0.030188,0.233415,0.144114,-0.072611,-0.986893,0.049993,0.023676,0.003480,59.531734,22.638203,78.953339,,,,,,,
1512180469.468742,0.145352,0.073258,0.581890,0.004530,0.041990,0.225240,0.144453,-0.073193,-0.986801,0.044604,0.002133,-0.031540,59.454082,22.038074,79.028687,,,,,,,
1512180469.488761,0.145498,0.073722,0.586416,-0.010313,0.015279,0.219604,0.144592,-0.073655,-0.986746,0.131440,0.049149,0.016119,59.305538,22.337864,79.255112,,,,,,,
1512180469.508750,0.145384,0.074196,0.590942,-0.008378,0.008844,0.230266,0.144474,-0.074128,-0.986728,0.049969,0.025162,0.013065,58.927013,21.587299,78.957947,,,,,,,
1512180469.528739,0.144977,0.074681,0.595325,-0.001831,-0.011418,0.220699,0.144067,-0.074612,-0.986751,0.026588,0.000759,0.007320,59.003033,21.812412,78.957413,,,,,,,
1512180469.548728,0.144661,0.075350,0.599553,-0.009138,-0.011413,0.210997,0.143748,-0.075279,-0.986747,0.062338,0.017204,0.049064,59.229824,22.187748,79.180679,,,,,,,
1512180469.568748,0.144104,0.075886,0.603687,-0.009064,-0.030629,0.205601,0.143192,-0.075814,-0.986787,0.093975,0.025017,0.072007,58.553219,21.811726,79.336243,,,,,,,
1512180469.588737,0.143430,0.076558,0.607689,0.010202,-0.026322,0.200563,0.142520,-0.076483,-0.986832,0.063977,0.043738,-0.026550,58.476116,21.361622,79.186661,,,,,,,
1512180469.608726,0.142542,0.077304,0.611527,-0.001403,-0.035930,0.193970,0.141635,-0.077227,-0.986902,0.024350,0.036471,0.040811,58.029781,22.185947,79.115875,,,,,,,
1512180469.628745,0.141628,0.078071,0.615227,0.021107,-0.030547,0.185782,0.140725,-0.077992,-0.986972,0.021995,-0.022701,0.002017,58.253063,21.736271,79.713760,,,,,,,
1512180469.648734,0.140883,0.078863,0.618864,0.010501,-0.022015,0.182458,0.139981,-0.078781,-0.987015,0.103748,0.049148,0.009293,58.177959,21.736164,79.489395,,,,,,,
1512180469.668723,0.140298,0.079406,0.622330,0.006361,-0.000644,0.176077,0.139398,-0.079322,-0.987054,-0.059609,0.014122,-0.059561,57.575481,21.210270,79.269257,,,,,,,
1512180469.688743,0.139974,0.080176,0.625574,0.022501,0.002607,0.167796,0.139069,-0.080091,-0.987039,0.032043,-0.025622,-0.036277,57.651257,21.360371,79.493683,,,,,,,
1512180469.708732,0.139589,0.080901,0.628721,0.015124,0.000469,0.162351,0.138681,-0.080813,-0.987034,0.011710,0.018984,-0.022167,57.574917,21.060261,79.494186,,,,,,,
1512180469.728721,0.139024,0.081449,0.631822,0.014183,-0.014473,0.153755,0.138117,-0.081359,-0.987068,0.037969,0.005447,-0.043434,57.649303,20.910374,79.643478,,,,,,,
1512180469.748740,0.138430,0.082182,0.634772,0.017506,-0.016587,0.146335,0.137523,-0.082090,-0.987091,0.034856,0.002744,-0.040543,57.423229,20.685032,79.495285,,,,,,,
1512180469.768729,0.137729,0.082844,0.637599,0.010090,-0.024071,0.143002,0.136823,-0.082750,-0.987133,0.023929,0.018663,0.001721,57.423901,20.835041,79.495346,,,,,,,
1512180469.788718,0.137153,0.083557,0.640320,0.013327,-0.024059,0.140918,0.136246,-0.083460,-0.987153,0.042877,-0.010901,0.013429,56.899014,20.834248,79.724808,,,,,,,
1512180469.808707,0.136547,0.084365,0.642885,0.015493,-0.027256,0.138807,0.135639,-0.084265,-0.987168,-0.006885,0.009406,0.006104,57.047955,20.609470,79.648438,,,,,,,
1512180469.828727,0.135904,0.085076,0.645311,0.014614,-0.029373,0.127059,0.134996,-0.084974,-0.987196,0.040557,0.007703,0.006620,56.520748,20.083683,79.952652,,,,,,,
1512180469.848716,0.135251,0.085875,0.647733,0.027414,-0.022941,0.127268,0.134342,-0.085769,-0.987216,0.050320,0.008087,-0.014645,56.522427,20.458683,79.952820,,,,,,,
1512180469.868705,0.134492,0.086584,0.650015,0.026525,-0.018650,0.116609,0.133584,-0.086475,-0.987257,-0.026727,0.034672,-0.045030,56.748104,20.609013,79.950974,,,,,,,
1512180469.888725,0.133639,0.087237,0.652227,0.029784,-0.027184,0.112362,0.132735,-0.087126,-0.987315,0.041978,0.006636,-0.064642,56.072140,20.383015,80.031616,,,,,,,
1512180469.908714,0.132834,0.088073,0.654412,0.038427,-0.015407,0.106132,0.131930,-0.087959,-0.987349,0.044523,-0.005257,-0.051210,56.073711,20.758015,79.806793,,,,,,,
1512180469.928703,0.131950,0.088762,0.656547,0.030971,-0.018626,0.104944,0.131049,-0.088645,-0.987405,-0.019309,0.018791,-0.043861,55.620373,20.007328,79.885269,,,,,,,
1512180469.948722,0.131216,0.089456,0.658544,0.032047,-0.011144,0.104987,0.130316,-0.089337,-0.987439,-0.068625,0.010632,-0.038302,56.071758,20.308002,79.956573,,,,,,,
1512180469.968711,0.130540,0.090230,0.660513,0.026821,-0.021819,0.098479,0.129640,-0.090108,-0.987458,-0.004457,-0.014034,0.002153,55.921612,20.307789,79.657852,,,,,,,
1512180469.988700,0.129846,0.090960,0.662478,0.021555,-0.030364,0.094109,0.128946,-0.090835,-0.987483,0.040823,-0.034547,0.020869,55.922436,20.457783,79.957916,,,,,,,
1512180470.008720,0.128815,0.091545,0.664373,0.010878,-0.057085,0.093861,0.127922,-0.091417,-0.987562,-0.032157,0.032045,0.043501,55.620663,20.082340,79.810303,,,,,,,
1512180470.028709,0.127913,0.092025,0.666223,-0.006175,-0.046432,0.093649,0.127025,-0.091895,-0.987633,0.086476,-0.012246,0.029046,55.922253,20.457783,79.582916,,,,,,,
1512180470.048698,0.127481,0.092690,0.667934,0.027988,-0.006850,0.093219,0.126590,-0.092557,-0.987627,-0.072314,-0.071185,0.003054,55.996456,20.232899,80.032181,,,,,,,
1512180470.068687,0.127491,0.093416,0.669335,0.020751,0.005984,0.080366,0.126592,-0.093280,-0.987559,-0.033391,-0.014279,0.085032,55.693645,19.632435,79.809448,,,,,,,
1512180470.088706,0.127302,0.093795,0.670706,0.010202,-0.006838,0.072705,0.126400,-0.093657,-0.987548,0.001759,0.013121,0.029357,55.921383,20.232777,79.882828,,,,,,,
1512180470.108695,0.127256,0.094263,0.671982,0.020019,0.007090,0.060104,0.126350,-0.094124,-0.987510,-0.010047,-0.022850,-0.037896,55.845409,20.007664,79.958359,,,,,,,
1512180470.128684,0.127186,0.094767,0.673181,0.015831,0.009230,0.055788,0.126274,-0.094625,-0.987472,-0.040398,0.003256,-0.041306,55.470074,19.932102,79.961502,,,,,,,
1512180470.148704,0.127014,0.094959,0.674266,0.009403,0.003872,0.056739,0.126102,-0.094817,-0.987475,-0.020130,-0.005098,-0.032712,55.546642,20.307224,79.736038,,,,,,,
1512180470.168693,0.127103,0.095172,0.675330,0.009556,0.018844,0.048265,0.126187,-0.095028,-0.987444,0.030719,-0.030109,0.016497,55.316738,19.256870,79.362473,,,,,,,
1512180470.188682,0.127175,0.095435,0.676398,0.007290,0.020963,0.056769,0.126256,-0.095290,-0.987410,-0.080571,-0.021944,0.036620,55.921200,20.232777,79.507828,,,,,,,
1512180470.208701,0.127303,0.095666,0.677375,0.008472,0.009230,0.049284,0.126379,-0.095520,-0.987372,-0.021521,-0.005768,0.024390,55.769848,19.932560,79.508957,,,,,,,
1512180470.228690,0.127516,0.095854,0.678363,0.006508,0.014583,0.038610,0.126587,-0.095707,-0.987328,0.051346,-0.033230,-0.019096,55.994991,19.932896,79.807037,,,,,,,
1512180470.248679,0.127462,0.096026,0.679345,0.000985,0.000670,0.050211,0.126531,-0.095879,-0.987318,-0.046377,-0.029274,-0.001421,56.143871,19.708118,79.580658,,,,,,,
1512180470.268699,0.127104,0.096095,0.680276,-0.003128,-0.019609,0.040488,0.126177,-0.095947,-0.987357,0.021528,-0.021332,-0.002969,55.994015,19.782887,79.206970,,,,,,,
1512180470.288688,0.126670,0.096156,0.681286,0.005355,-0.003581,0.043864,0.125748,-0.096008,-0.987406,0.071884,-0.023880,-0.016257,55.845638,20.082676,79.733383,,,,,,,
1512180470.308677,0.126089,0.095959,0.682208,-0.008560,-0.022839,0.045725,0.125177,-0.095812,-0.987497,-0.000024,-0.019316,0.005091,55.920635,20.082783,79.732758,,,,,,,
1512180470.328666,0.125773,0.095940,0.683014,-0.021238,-0.027113,0.039133,0.124865,-0.095793,-0.987539,0.004209,-0.008181,0.034688,55.844891,19.932667,79.583313,,,,,,,
1512180470.348685,0.125369,0.095897,0.683774,-0.008419,-0.013205,0.038301,0.124467,-0.095750,-0.987593,-0.014298,-0.013747,-0.003557,55.994854,19.932896,79.507050,,,,,,,
1512180470.368674,0.125031,0.095751,0.684489,-0.011441,-0.006782,0.027618,0.124135,-0.095605,-0.987649,0.033580,-0.018256,-0.004218,55.843578,19.707661,78.983215,,,,,,,
1512180470.388664,0.124814,0.095524,0.685211,-0.023226,-0.014284,0.030618,0.123922,-0.095379,-0.987697,0.019586,-0.019321,0.032131,55.766628,19.257557,79.133652,,,,,,,
1512180470.408683,0.124566,0.095243,0.685810,-0.031679,-0.023897,0.026201,0.123681,-0.095099,-0.987755,-0.063638,0.005896,0.053550,56.070934,20.158009,79.656509,,,,,,,
1512180470.428672,0.124352,0.094889,0.686351,-0.016690,-0.016393,0.022178,0.123474,-0.094747,-0.987814,-0.037247,-0.012553,-0.015405,56.146801,20.383121,79.355972,,,,,,,
1512180470.448654,0.124076,0.094625,0.686882,-0.016620,-0.015317,0.017918,0.123205,-0.094484,-0.987873,-0.008520,-0.005919,-0.027554,56.146084,20.233112,79.280914,,,,,,,
1512180470.468674,0.123425,0.094169,0.687365,-0.019824,-0.023867,0.017842,0.122567,-0.094030,-0.987996,-0.029320,-0.008006,-0.059932,55.995113,20.007893,79.357086,,,,,,,
1512180470.488663,0.122800,0.093842,0.687806,-0.033698,-0.046321,0.017562,0.121953,-0.093704,-0.988103,0.008022,-0.027863,0.041325,56.216763,19.333225,78.754852,,,,,,,
1512180470.508652,0.122193,0.093470,0.688192,-0.022982,-0.029205,0.015647,0.121357,-0.093334,-0.988211,0.002254,-0.015949,0.010657,56.220745,20.158237,79.280243,,,,,,,
1512180470.528671,0.121443,0.093022,0.688533,-0.030458,-0.040970,0.015496,0.120621,-0.092887,-0.988343,-0.021134,-0.029396,0.026231,56.073116,20.683018,79.281754,,,,,,,
1512180470.548660,0.120882,0.092620,0.688804,-0.025016,-0.032403,0.009209,0.120071,-0.092487,-0.988448,0.046204,-0.017284,0.025694,56.445339,20.083576,79.128296,,,,,,,
1512180470.568649,0.120353,0.092172,0.689074,-0.018525,-0.012090,0.004042,0.119553,-0.092041,-0.988552,0.020477,-0.013473,-0.026478,56.220791,20.158237,79.355240,,,,,,,
