timestamp(unix),attitude_roll(radians),attitude_pitch(radians),attitude_yaw(radians),rotation_rate_x(radians/s),rotation_rate_y(radians/s),rotation_rate_z(radians/s),gravity_x(G),gravity_y(G),gravity_z(G),user_acc_x(G),user_acc_y(G),user_acc_z(G),magnetic_field_x(microteslas),magnetic_field_y(microteslas),magnetic_field_z(microteslas),latitude(degree),longitude(degree),altitude(meter),speed(m/s),course(degree),timestamp(unix),User Mark
1512180642.207094,0.105680,-0.044779,0.612358,-0.000259,-0.001478,-0.000764,0.105378,0.044764,-0.993424,0.004852,0.020482,-0.008926,14.510778,-9.978922,7.826500,,,,,,,
1512180642.227083,0.105671,-0.044769,0.612339,-0.000243,0.000659,-0.001822,0.105369,0.044755,-0.993426,-0.016456,0.018463,0.013872,14.359243,-10.354151,8.127602,,,,,,,
1512180642.247103,0.105669,-0.044801,0.612346,-0.000288,-0.000418,0.000304,0.105366,0.044786,-0.993424,0.005107,0.021193,-0.009170,14.359472,-10.279154,7.902641,,,,,,,
1512180642.267092,0.105663,-0.044791,0.612339,-0.001319,0.001720,-0.001835,0.105361,0.044776,-0.993425,-0.016661,0.016732,0.011919,14.360479,-10.054148,7.902748,,,,,,,
1512180642.287081,0.105650,-0.044830,0.612338,-0.001340,0.000648,-0.000773,0.105347,0.044815,-0.993425,-0.002503,0.021392,-0.004652,14.356726,-10.879160,7.827370,,,,,,,
1512180642.307100,0.105657,-0.044840,0.612350,-0.002382,-0.000416,-0.001855,0.105354,0.044825,-0.993424,-0.011482,0.016942,0.008347,14.055716,-11.104609,7.829811,,,,,,,
1512180642.327089,0.105632,-0.044843,0.612340,0.001875,-0.000406,-0.000723,0.105329,0.044828,-0.993426,0.003634,0.019671,-0.006024,14.133490,-10.504496,7.979454,,,,,,,
1512180642.347078,0.105643,-0.044820,0.612338,0.000806,0.001727,-0.000732,0.105341,0.044805,-0.993426,-0.017160,0.018900,0.013614,14.057714,-10.654612,7.755013,,,,,,,
1512180642.367067,0.105635,-0.044864,0.612353,-0.000290,-0.003623,0.000299,0.105332,0.044849,-0.993425,0.007278,0.022092,-0.005232,14.283346,-10.504267,7.678185,,,,,,,
1512180642.387087,0.105642,-0.044841,0.612362,-0.000247,0.002792,-0.001809,0.105340,0.044826,-0.993425,-0.017357,0.017903,0.010698,14.506430,-10.953928,7.901054,,,,,,,
1512180642.407076,0.105634,-0.044843,0.612358,0.001855,-0.000417,-0.000725,0.105331,0.044827,-0.993426,0.005600,0.019671,-0.007215,14.359137,-10.354151,7.902596,,,,,,,
1512180642.427065,0.105634,-0.044837,0.612358,-0.000260,-0.001479,-0.000754,0.105331,0.044822,-0.993427,-0.013992,0.020348,0.013919,13.905600,-11.179834,8.281044,,,,,,,
1512180642.447084,0.105632,-0.044882,0.612352,-0.000261,-0.000411,-0.000750,0.105330,0.044867,-0.993425,0.001436,0.020853,-0.005812,14.137396,-9.679483,8.354836,,,,,,,
1512180642.467073,0.105627,-0.044871,0.612356,0.001856,-0.000409,0.000348,0.105325,0.044856,-0.993426,-0.011224,0.017156,0.009325,14.135550,-10.054499,8.054649,,,,,,,
1512180642.487062,0.105609,-0.044903,0.612365,-0.000297,-0.001484,0.001380,0.105306,0.044888,-0.993426,0.006251,0.017643,-0.000135,14.208151,-10.579386,7.978783,,,,,,,
1512180642.507082,0.105621,-0.044881,0.612369,-0.001335,0.000650,-0.000761,0.105318,0.044866,-0.993426,-0.016009,0.017848,0.019488,14.286383,-9.904261,8.353447,,,,,,,
1512180642.527071,0.105598,-0.044903,0.612388,0.001845,-0.001482,0.000345,0.105295,0.044888,-0.993427,0.009542,0.020603,-0.007381,14.284658,-10.279261,8.278282,,,,,,,
1512180642.547060,0.105604,-0.044898,0.612372,-0.001321,0.000651,-0.001826,0.105301,0.044883,-0.993427,-0.020295,0.016366,0.013813,14.134878,-10.204493,8.054588,,,,,,,
1512180642.567049,0.105574,-0.044917,0.612364,0.000802,-0.003614,-0.000740,0.105272,0.044901,-0.993429,0.010024,0.019109,-0.005915,14.436865,-9.754038,7.977242,,,,,,,
1512180642.587044,0.105569,-0.044942,0.612372,-0.003477,-0.000420,0.000277,0.105267,0.044927,-0.993429,-0.015438,0.015833,0.017782,14.435522,-10.054041,7.977104,,,,,,,
1512180642.607033,0.105552,-0.044981,0.612371,0.000801,-0.001480,-0.000730,0.105250,0.044966,-0.993429,0.001745,0.018556,-0.004588,14.360815,-9.979151,7.902779,,,,,,,
1512180642.627022,0.105579,-0.044974,0.612376,-0.000241,0.000668,-0.000731,0.105276,0.044959,-0.993426,-0.015097,0.017281,0.010974,14.359137,-10.354151,7.902596,,,,,,,
1512180642.647041,0.105566,-0.045003,0.612364,0.000813,-0.002538,-0.000728,0.105263,0.044988,-0.993426,0.006340,0.019023,-0.003308,14.134619,-10.279490,8.204552,,,,,,,
1512180642.667030,0.105582,-0.045003,0.612359,-0.001328,-0.000401,0.000317,0.105280,0.044987,-0.993424,-0.016947,0.015773,0.019456,14.358526,-10.504160,8.052528,,,,,,,
1512180642.687019,0.105554,-0.045028,0.612379,0.000800,-0.001458,0.001415,0.105251,0.045013,-0.993426,0.010822,0.020478,-0.009320,14.810705,-10.053476,8.348915,,,,,,,
1512180642.707039,0.105571,-0.045012,0.612373,0.000824,0.001752,0.000363,0.105268,0.044997,-0.993425,-0.019529,0.018693,0.014315,14.360998,-9.979151,8.277779,,,,,,,
1512180642.727028,0.105564,-0.045034,0.612371,0.000835,-0.001451,-0.000713,0.105261,0.045019,-0.993425,0.013895,0.018015,-0.003432,13.910254,-10.129831,8.131523,,,,,,,
1512180642.747017,0.105579,-0.045040,0.612351,-0.001285,0.001756,-0.000728,0.105276,0.045025,-0.993423,-0.013754,0.016468,0.018051,14.137579,-9.604486,8.054863,,,,,,,
1512180642.767006,0.105584,-0.045062,0.612349,0.001886,-0.001448,0.000374,0.105281,0.045047,-0.993422,0.006825,0.018964,-0.004030,14.435934,-9.979044,8.127144,,,,,,,
1512180642.787025,0.105601,-0.045060,0.612355,-0.001307,0.001752,0.000340,0.105298,0.045045,-0.993420,-0.015164,0.017196,0.014126,14.360891,-9.979151,8.052773,,,,,,,
1512180642.807014,0.105578,-0.045095,0.612333,0.001905,-0.004649,-0.000699,0.105275,0.045080,-0.993421,0.005107,0.015269,-0.002841,14.435675,-10.054041,8.277107,,,,,,,
1512180642.827003,0.105580,-0.045109,0.612335,-0.004494,-0.000390,-0.000777,0.105277,0.045094,-0.993420,-0.013068,0.016643,0.020977,14.434851,-10.204035,7.977043,,,,,,,
1512180642.847023,0.105573,-0.045136,0.612339,0.000845,-0.002512,-0.000702,0.105270,0.045121,-0.993420,0.008622,0.018173,-0.009602,14.360403,-10.129145,8.427711,,,,,,,
1512180642.867012,0.105569,-0.045125,0.612334,-0.001310,-0.000385,0.000340,0.105265,0.045110,-0.993420,-0.018885,0.017345,0.019910,14.435629,-10.054041,8.202110,,,,,,,
1512180642.887001,0.105540,-0.045147,0.612332,-0.000219,-0.000376,-0.000706,0.105237,0.045131,-0.993423,0.011767,0.016453,-0.006150,13.910101,-10.129831,7.831535,,,,,,,
1512180642.907020,0.105552,-0.045140,0.612333,-0.000242,0.000687,0.000364,0.105249,0.045125,-0.993421,-0.013788,0.016109,0.022184,14.135672,-10.054499,8.279655,,,,,,,
1512180642.927009,0.105546,-0.045140,0.612339,0.001891,-0.002511,0.000387,0.105243,0.045124,-0.993422,0.006161,0.017666,-0.005983,14.359655,-10.279154,8.277641,,,,,,,
1512180642.946998,0.105562,-0.045128,0.612335,-0.001309,0.001755,0.000357,0.105259,0.045113,-0.993421,-0.010777,0.018089,0.016385,14.135824,-9.979486,7.904686,,,,,,,
1512180642.966987,0.105534,-0.045144,0.612343,-0.000243,-0.001446,0.000364,0.105231,0.045128,-0.993423,0.009301,0.016685,-0.003266,13.985296,-10.129709,8.205894,,,,,,,
1512180642.987007,0.105541,-0.045154,0.612335,-0.002362,-0.000381,-0.000728,0.105238,0.045138,-0.993422,-0.015959,0.015851,0.021910,14.135214,-10.129496,8.054619,,,,,,,
1512180643.006996,0.105518,-0.045164,0.612348,0.001870,-0.003579,0.001458,0.105215,0.045149,-0.993424,0.015543,0.015475,-0.011932,14.436193,-9.904047,7.977180,,,,,,,
1512180643.026985,0.105551,-0.045137,0.612336,-0.000206,0.001765,-0.001750,0.105248,0.045122,-0.993422,-0.018197,0.019774,0.023588,14.285666,-10.054270,8.278374,,,,,,,
1512180643.047004,0.105550,-0.045149,0.612328,0.000843,-0.000370,-0.000673,0.105246,0.045133,-0.993421,0.014779,0.017199,-0.011706,14.434622,-10.279047,8.202003,,,,,,,
1512180643.066993,0.105577,-0.045180,0.612322,-0.003422,0.000691,-0.000730,0.105273,0.045165,-0.993417,-0.014575,0.017046,0.024606,14.062277,-9.679605,8.130455,,,,,,,
1512180643.086982,0.105603,-0.045186,0.612301,0.000820,0.000692,0.000399,0.105300,0.045170,-0.993414,0.006914,0.016658,-0.010858,14.362356,-9.679148,8.277916,,,,,,,
1512180643.107002,0.105613,-0.045192,0.612280,-0.002345,-0.002515,-0.001788,0.105310,0.045176,-0.993413,-0.000939,0.017537,0.022877,14.211264,-9.904383,8.129082,,,,,,,
1512180643.126991,0.105612,-0.045187,0.612263,0.002975,-0.003574,-0.000643,0.105308,0.045172,-0.993413,0.022179,0.014948,-0.005503,14.358984,-10.429163,8.277565,,,,,,,
1512180643.146980,0.105628,-0.045203,0.612243,-0.002406,-0.001455,0.002487,0.105324,0.045188,-0.993411,-0.019539,0.015542,0.026721,14.435064,-10.129038,7.752068,,,,,,,
1512180643.166969,0.105610,-0.045210,0.612222,0.000842,0.001757,-0.000651,0.105306,0.045195,-0.993412,0.011561,0.017382,-0.012493,14.359579,-10.279154,8.127632,,,,,,,
1512180643.186989,0.105608,-0.045232,0.612199,-0.002331,-0.000380,-0.001765,0.105304,0.045217,-0.993412,-0.015109,0.017726,0.025089,14.059164,-10.354609,7.980156,,,,,,,
1512180643.206978,0.105613,-0.045232,0.612189,0.000815,-0.000383,0.001483,0.105309,0.045216,-0.993411,0.013237,0.015895,-0.010755,13.986120,-9.904718,7.831001,,,,,,,
1512180643.226967,0.105628,-0.045237,0.612169,-0.002362,0.001750,0.000382,0.105324,0.045221,-0.993409,-0.017342,0.022100,0.026032,14.285101,-10.129267,7.828346,,,,,,,
1512180643.246986,0.105606,-0.045248,0.612155,0.000865,-0.001449,-0.001712,0.105302,0.045232,-0.993411,0.013290,0.017832,-0.014417,14.134054,-10.354502,7.754524,,,,,,,
1512180643.266975,0.105611,-0.045226,0.612146,-0.001280,-0.001454,-0.000673,0.105307,0.045211,-0.993412,-0.006750,0.019700,0.020587,14.510443,-10.053934,7.826469,,,,,,,
1512180643.286964,0.105594,-0.045242,0.612128,-0.000250,0.000678,0.001485,0.105290,0.045227,-0.993413,0.003750,0.015626,-0.010661,14.660559,-10.053705,8.050194,,,,,,,
1512180643.306953,0.105605,-0.045252,0.612118,-0.002345,0.001746,-0.000671,0.105301,0.045237,-0.993411,-0.009308,0.015738,0.029315,14.436087,-9.904047,7.752174,,,,,,,
1512180643.326973,0.105594,-0.045256,0.612129,0.001883,-0.001457,0.001515,0.105290,0.045241,-0.993412,0.012889,0.014910,-0.018566,14.507177,-10.728937,7.376167,,,,,,,
1512180643.346962,0.105599,-0.045277,0.612123,-0.004516,-0.000403,0.001427,0.105295,0.045262,-0.993410,-0.016855,0.016933,0.028460,14.886755,-9.753366,7.748421,,,,,,,
1512180643.366951,0.105592,-0.045276,0.612130,0.001875,-0.000396,0.001522,0.105288,0.045261,-0.993411,0.016462,0.012921,-0.012662,14.810003,-10.128473,7.598900,,,,,,,
1512180643.386970,0.105593,-0.045280,0.612133,-0.002389,-0.001471,0.001459,0.105289,0.045265,-0.993411,-0.013416,0.015709,0.027789,14.886084,-9.903360,7.748360,,,,,,,
1512180643.406959,0.105592,-0.045311,0.612134,0.000834,-0.000393,0.000447,0.105288,0.045296,-0.993410,0.009382,0.014351,-0.012526,14.883505,-10.503366,7.973076,,,,,,,
1512180643.426948,0.105591,-0.045311,0.612131,-0.002368,-0.002537,0.000395,0.105287,0.045296,-0.993410,-0.008470,0.018868,0.022508,14.807333,-10.803476,8.348579,,,,,,,
1512180643.446968,0.105564,-0.045316,0.612124,-0.000251,-0.000398,0.001502,0.105260,0.045300,-0.993412,0.005977,0.014087,-0.010875,14.810369,-10.128473,8.348885,,,,,,,
1512180643.466957,0.105522,-0.045340,0.612140,-0.004522,-0.004680,0.001426,0.105218,0.045324,-0.993416,-0.009012,0.016626,0.031029,14.659216,-10.353708,8.050056,,,,,,,
1512180643.486946,0.105521,-0.045361,0.612139,0.000832,0.001741,0.000462,0.105217,0.045345,-0.993415,0.011238,0.015782,-0.017373,14.883947,-10.428370,8.198112,,,,,,,
1512180643.506935,0.105516,-0.045371,0.612138,-0.003421,-0.000403,-0.000673,0.105212,0.045356,-0.993415,-0.016956,0.022943,0.024817,14.434652,-10.279047,8.277000,,,,,,,
1512180643.526954,0.105509,-0.045360,0.612134,0.001889,0.000678,0.001545,0.105205,0.045345,-0.993416,0.012898,0.013814,-0.013694,14.583838,-10.428827,7.975655,,,,,,,
1512180643.546943,0.105489,-0.045375,0.612139,-0.003421,-0.001462,0.000397,0.105185,0.045359,-0.993418,-0.011099,0.020025,0.025888,14.660223,-10.128702,8.050163,,,,,,,
1512180643.566932,0.105482,-0.045369,0.612141,0.000815,-0.001462,0.001523,0.105179,0.045353,-0.993419,0.004654,0.014538,-0.015279,14.583426,-10.503824,7.825630,,,,,,,
1512180643.586922,0.105466,-0.045378,0.612161,-0.003424,-0.002530,0.000395,0.105163,0.045362,-0.993420,-0.007155,0.021731,0.024731,14.733114,-10.578592,7.899315,,,,,,,
1512180643.606911,0.105444,-0.045373,0.612153,0.000833,0.000678,0.000467,0.105140,0.045357,-0.993422,0.002968,0.016472,-0.013352,14.583792,-10.428827,7.900658,,,,,,,
1512180643.626900,0.105443,-0.045356,0.612147,-0.000246,-0.000390,0.001516,0.105140,0.045341,-0.993423,-0.007453,0.018563,0.030090,14.433264,-10.579050,8.201866,,,,,,,
1512180643.646920,0.105447,-0.045329,0.612141,0.001914,-0.000378,0.000485,0.105144,0.045313,-0.993424,0.008687,0.013616,-0.021301,14.659887,-10.203699,8.050117,,,,,,,
1512180643.666909,0.105448,-0.045340,0.612134,-0.002347,-0.001448,0.000421,0.105144,0.045324,-0.993424,-0.012340,0.019068,0.030502,14.358160,-10.579157,7.977501,,,,,,,
1512180643.686898,0.105445,-0.045323,0.612125,0.001904,-0.000377,0.000484,0.105141,0.045307,-0.993425,0.010765,0.010433,-0.012984,14.208944,-10.429377,8.203850,,,,,,,
1512180643.706887,0.105435,-0.045333,0.612125,-0.002363,-0.000383,0.000422,0.105132,0.045317,-0.993425,-0.006667,0.019822,0.026689,14.433264,-10.579050,8.201866,,,,,,,
1512180643.726906,0.105430,-0.045325,0.612133,0.002979,0.000704,0.000507,0.105126,0.045309,-0.993426,0.008201,0.016306,-0.019834,14.509024,-10.428934,8.351295,,,,,,,
1512180643.746895,0.105408,-0.045346,0.612121,-0.003396,-0.001434,-0.000658,0.105105,0.045331,-0.993427,-0.001696,0.019824,0.022389,14.434240,-10.354044,8.126961,,,,,,,
1512180643.766884,0.105381,-0.045339,0.612117,0.002956,-0.000360,0.001567,0.105078,0.045323,-0.993431,0.003610,0.013850,-0.019906,14.584967,-10.203821,8.200768,,,,,,,
1512180643.786904,0.105366,-0.045361,0.612090,-0.002329,-0.004625,-0.000654,0.105063,0.045345,-0.993431,-0.001501,0.019550,0.027748,14.358450,-10.504160,7.902534,,,,,,,
1512180643.806893,0.105360,-0.045370,0.612088,0.000849,0.001787,0.000478,0.105057,0.045355,-0.993431,0.006622,0.017969,-0.024238,14.584692,-10.278818,8.350731,,,,,,,
1512180643.826882,0.105342,-0.045401,0.612105,-0.002342,-0.000344,0.000425,0.105038,0.045385,-0.993432,-0.011212,0.023890,0.026635,14.584173,-10.353815,7.975700,,,,,,,
1512180643.846901,0.105331,-0.045377,0.612111,0.001912,-0.001405,0.000480,0.105028,0.045361,-0.993434,0.004347,0.017703,-0.017217,14.357626,-10.729151,8.277428,,,,,,,
1512180643.866890,0.105317,-0.045403,0.612112,-0.001253,-0.004605,-0.001711,0.105014,0.045387,-0.993434,-0.000888,0.024162,0.022411,14.434546,-10.279047,8.051994,,,,,,,
1512180643.886879,0.105323,-0.045385,0.612119,0.000837,-0.000327,0.001533,0.105020,0.045370,-0.993435,-0.003732,0.020365,-0.013935,14.433233,-10.579050,8.126854,,,,,,,
1512180643.906868,0.105329,-0.045422,0.612131,-0.003425,0.003944,0.001483,0.105026,0.045406,-0.993432,-0.006927,0.024631,0.018655,14.434546,-10.279047,8.051994,,,,,,,
1512180643.926888,0.105341,-0.045442,0.612136,0.000858,0.000754,0.000467,0.105038,0.045426,-0.993430,-0.002544,0.013473,-0.012704,14.357962,-10.654154,8.277458,,,,,,,
1512180643.946877,0.105381,-0.045471,0.612120,-0.003392,0.002887,-0.000657,0.105077,0.045455,-0.993425,-0.000875,0.029221,0.017778,14.358603,-10.504160,8.202538,,,,,,,
1512180643.966866,0.105374,-0.045482,0.612108,0.000881,0.006106,-0.000584,0.105070,0.045466,-0.993425,-0.008757,0.018834,-0.023512,14.658575,-10.503702,8.124977,,,,,,,
1512180643.986885,0.105386,-0.045502,0.612075,-0.002319,-0.000304,-0.000653,0.105082,0.045487,-0.993423,-0.002986,0.028930,0.027496,14.204702,-11.329386,7.828438,,,,,,,
1512180644.006874,0.105390,-0.045511,0.612079,0.000872,-0.000299,-0.000609,0.105086,0.045495,-0.993422,-0.002745,0.017814,-0.019045,14.434286,-10.354044,8.201973,,,,,,,
1512180644.026863,0.105382,-0.045525,0.612057,-0.001272,-0.003502,0.000416,0.105078,0.045509,-0.993422,0.011270,0.025033,0.020155,14.433538,-10.504038,8.051903,,,,,,,
1512180644.046883,0.105406,-0.045504,0.612053,0.000830,0.001842,0.002597,0.105102,0.045488,-0.993421,0.001816,0.018065,-0.015323,14.133612,-10.504496,8.204445,,,,,,,
1512180644.066872,0.105372,-0.045517,0.612035,-0.001252,-0.001350,0.000428,0.105068,0.045501,-0.993424,0.001759,0.020630,0.021469,14.133200,-10.579493,8.054405,,,,,,,
1512180644.086861,0.105339,-0.045496,0.612026,0.003021,-0.001343,-0.000578,0.105036,0.045480,-0.993428,0.000936,0.008307,-0.016796,14.358603,-10.504160,8.202538,,,,,,,
1512180644.106850,0.105329,-0.045512,0.612025,-0.001265,-0.002420,0.000422,0.105025,0.045496,-0.993428,0.006410,0.021612,0.023244,14.132513,-10.729502,8.054344,,,,,,,
1512180644.126869,0.105324,-0.045511,0.612028,0.001913,0.001856,0.001548,0.105020,0.045495,-0.993429,-0.007791,0.011466,-0.019129,14.358648,-10.504160,8.277534,,,,,,,
1512180644.146858,0.105339,-0.045527,0.612022,-0.001274,-0.002412,0.001490,0.105036,0.045511,-0.993427,0.001562,0.015494,0.021213,14.883200,-10.578363,8.048042,,,,,,,
1512180644.166848,0.105356,-0.045512,0.612017,-0.000172,0.001868,-0.000612,0.105052,0.045496,-0.993425,-0.006251,0.009496,-0.010343,14.358419,-10.504160,7.827538,,,,,,,
1512180644.186867,0.105355,-0.045528,0.612000,-0.001257,-0.003474,0.000421,0.105051,0.045512,-0.993425,-0.001154,0.014760,0.022386,14.432516,-10.729044,8.051796,,,,,,,
1512180644.206856,0.105381,-0.045529,0.612002,0.000877,0.002939,0.000474,0.105077,0.045514,-0.993422,-0.006185,0.011691,-0.016420,14.433615,-10.504038,8.201897,,,,,,,
1512180644.226845,0.105402,-0.045550,0.611978,-0.002343,0.001862,0.001489,0.105097,0.045534,-0.993419,-0.006556,0.014006,0.021800,14.510931,-9.978922,8.126503,,,,,,,
1512180644.246834,0.105394,-0.045521,0.611950,0.003039,0.002946,-0.001627,0.105090,0.045505,-0.993421,-0.009433,0.010953,-0.012820,14.360220,-10.129145,8.052711,,,,,,,
1512180644.266854,0.105409,-0.045528,0.611943,-0.000199,-0.001336,0.000444,0.105105,0.045513,-0.993419,0.009138,0.014546,0.015483,14.583227,-10.578821,8.125587,,,,,,,
1512180644.286843,0.105396,-0.045504,0.611930,0.001923,0.000806,0.001551,0.105092,0.045488,-0.993422,-0.010014,0.013670,-0.022570,13.908300,-10.579828,8.281319,,,,,,,
1512180644.306832,0.105405,-0.045529,0.611925,-0.001261,-0.000266,0.000435,0.105101,0.045513,-0.993419,0.000444,0.020161,0.009746,14.132513,-10.729502,8.054344,,,,,,,
1512180644.326851,0.105413,-0.045498,0.611920,-0.000177,0.004018,0.000471,0.105109,0.045482,-0.993420,-0.000663,0.012196,-0.012928,14.055487,-11.179605,8.054771,,,,,,,
1512180644.346840,0.105404,-0.045522,0.611926,-0.002316,-0.003463,0.000415,0.105100,0.045506,-0.993420,-0.007017,0.021113,0.019375,14.360174,-10.129145,7.977715,,,,,,,
1512180644.366829,0.105399,-0.045522,0.611951,-0.000197,-0.004534,0.000440,0.105095,0.045506,-0.993420,0.013680,0.011211,-0.009784,14.359549,-10.279154,8.052635,,,,,,,
1512180644.386849,0.105404,-0.045557,0.611962,-0.001273,0.000805,0.001510,0.105100,0.045541,-0.993418,-0.000089,0.022070,0.012904,14.356512,-10.954157,8.052330,,,,,,,
1512180644.406838,0.105378,-0.045542,0.611975,0.001910,-0.001326,0.002616,0.105074,0.045526,-0.993422,-0.005908,0.016562,-0.019090,14.056875,-10.879602,8.129906,,,,,,,
1512180644.426827,0.105356,-0.045589,0.611972,-0.003355,-0.003464,-0.001733,0.105052,0.045573,-0.993422,0.005452,0.023000,0.020552,14.208456,-10.504374,7.903801,,,,,,,
1512180644.446816,0.105342,-0.045584,0.611991,-0.000205,-0.000259,0.001523,0.105038,0.045569,-0.993424,-0.001263,0.016763,-0.017074,14.208792,-10.429377,7.903847,,,,,,,
1512180644.466835,0.105331,-0.045616,0.611992,-0.001246,-0.001322,0.000441,0.105027,0.045600,-0.993423,-0.005265,0.025171,0.021118,14.134878,-10.204493,8.054588,,,,,,,
1512180644.486824,0.105321,-0.045608,0.611990,-0.000182,0.001883,0.000467,0.105017,0.045592,-0.993425,-0.006415,0.012574,-0.013991,14.508154,-10.578928,7.976234,,,,,,,
1512180644.506813,0.105310,-0.045644,0.611996,-0.003371,-0.001321,0.000412,0.105006,0.045628,-0.993424,0.006185,0.021236,0.023240,14.508200,-10.578928,8.051231,,,,,,,
1512180644.526833,0.105300,-0.045642,0.611999,-0.000216,-0.002391,0.002586,0.104996,0.045626,-0.993425,-0.007187,0.019605,-0.009611,14.657858,-10.653711,8.049919,,,,,,,
1512180644.546822,0.105308,-0.045648,0.611987,-0.001230,0.000818,-0.000616,0.105004,0.045633,-0.993424,-0.005624,0.021491,0.014527,14.134176,-10.354502,7.979515,,,,,,,
1512180644.566811,0.105298,-0.045635,0.611979,0.001970,0.000826,-0.000569,0.104994,0.045619,-0.993426,-0.015181,0.018635,-0.012906,14.359137,-10.354151,7.902596,,,,,,,
1512180644.586795,0.105308,-0.045658,0.611959,-0.001217,0.000828,-0.000612,0.105004,0.045643,-0.993424,0.010444,0.024655,0.015763,14.133535,-10.504496,8.054451,,,,,,,
1512180644.606784,0.105367,-0.045644,0.611961,0.004065,0.009377,0.002692,0.105063,0.045628,-0.993418,-0.012167,0.020122,-0.023824,14.282858,-10.654276,8.053108,,,,,,,
1512180644.626773,0.105404,-0.045649,0.611956,-0.003352,0.007232,-0.000624,0.105099,0.045633,-0.993414,-0.010738,0.030981,0.022986,14.432409,-10.729044,7.826790,,,,,,,
1512180644.646762,0.105364,-0.045615,0.611957,0.003039,-0.005572,-0.000575,0.105060,0.045599,-0.993420,-0.000141,0.016718,-0.012424,14.657629,-10.728708,8.274879,,,,,,,
1512180644.666782,0.105354,-0.045646,0.611959,-0.001259,-0.003446,0.001501,0.105050,0.045630,-0.993419,0.009345,0.028802,0.020870,14.359625,-10.279154,8.202644,,,,,,,
1512180644.686771,0.105385,-0.045650,0.611941,0.003061,0.008321,-0.000526,0.105081,0.045634,-0.993416,-0.014810,0.024770,-0.027015,14.733496,-10.503595,7.974358,,,,,,,
1512180644.706760,0.105346,-0.045674,0.611919,0.000924,-0.004498,-0.000602,0.105041,0.045658,-0.993419,0.013138,0.033199,0.011913,14.583273,-10.578821,8.200584,,,,,,,
1512180644.726780,0.105346,-0.045660,0.611919,0.000920,-0.000229,-0.000590,0.105042,0.045644,-0.993420,-0.000397,0.028391,-0.011204,13.983160,-10.579721,7.980690,,,,,,,
1512180644.746769,0.105332,-0.045698,0.611906,-0.000162,0.000836,0.000463,0.105027,0.045682,-0.993420,-0.006059,0.037325,0.008449,14.358084,-10.579157,7.827507,,,,,,,
1512180644.766758,0.105314,-0.045688,0.611894,0.005164,-0.003428,0.000525,0.105010,0.045672,-0.993422,0.007951,0.036466,-0.028597,14.283422,-10.504267,7.828178,,,,,,,
1512180644.786777,0.105343,-0.045686,0.611868,0.002014,-0.004489,-0.001653,0.105038,0.045670,-0.993419,0.005252,0.042480,0.001582,14.284094,-10.354273,7.828239,,,,,,,
1512180644.806766,0.105337,-0.045688,0.611843,0.000922,0.002986,0.000491,0.105032,0.045672,-0.993419,-0.009497,0.036389,-0.005726,14.132177,-10.804499,8.054314,,,,,,,
1512180644.826755,0.105308,-0.045716,0.611804,0.000932,-0.001285,-0.000591,0.105004,0.045700,-0.993421,-0.002190,0.041687,0.012663,13.908194,-10.579828,8.056328,,,,,,,
1512180644.846744,0.105320,-0.045698,0.611778,0.000945,-0.001283,-0.001657,0.105016,0.045682,-0.993421,-0.010518,0.031970,-0.001361,14.435110,-10.129038,7.827065,,,,,,,
1512180644.866764,0.105311,-0.045727,0.611737,-0.001160,-0.003412,-0.002756,0.105006,0.045711,-0.993420,-0.001490,0.042165,0.014142,14.509130,-10.353937,7.901329,,,,,,,
1512180644.886753,0.105321,-0.045708,0.611717,0.000962,-0.000201,-0.001646,0.105016,0.045692,-0.993420,-0.008748,0.034416,-0.005969,14.359426,-10.279154,7.827644,,,,,,,
1512180644.906742,0.105304,-0.045748,0.611680,-0.001150,-0.002334,-0.002747,0.104999,0.045732,-0.993420,-0.001224,0.040923,0.013165,14.359472,-10.279154,7.902641,,,,,,,
1512180644.926761,0.105301,-0.045720,0.611631,0.000980,0.001942,-0.002700,0.104997,0.045704,-0.993422,-0.007448,0.033931,-0.009600,14.359426,-10.279154,7.827644,,,,,,,
1512180644.946750,0.105305,-0.045750,0.611572,-0.000080,-0.001257,-0.002721,0.105001,0.045734,-0.993420,-0.000875,0.040936,0.006100,14.134130,-10.354502,7.904518,,,,,,,
1512180644.966739,0.105298,-0.045739,0.611521,-0.000093,-0.000194,-0.002716,0.104994,0.045723,-0.993421,-0.009306,0.030708,0.000349,14.357931,-10.579157,7.527504,,,,,,,
1512180644.986728,0.105292,-0.045790,0.611477,-0.000059,-0.001248,-0.003775,0.104988,0.045774,-0.993420,-0.002357,0.043094,0.007793,14.357779,-10.654154,7.902458,,,,,,,
1512180645.006748,0.105308,-0.045764,0.611423,0.002066,0.003025,-0.003725,0.105003,0.045748,-0.993419,-0.010231,0.032896,-0.003804,14.134466,-10.279490,7.904549,,,,,,,
1512180645.026737,0.105284,-0.045810,0.611365,-0.002195,-0.002317,-0.003795,0.104979,0.045794,-0.993419,-0.001555,0.038190,0.004391,14.133078,-10.579493,7.829414,,,,,,,
1512180645.046726,0.105288,-0.045795,0.611307,-0.000045,0.001962,-0.004806,0.104983,0.045779,-0.993420,-0.009967,0.025296,-0.003071,13.907888,-10.654825,8.131294,,,,,,,
1512180645.066745,0.105292,-0.045811,0.611247,0.002072,-0.002305,-0.003712,0.104987,0.045795,-0.993419,-0.001792,0.024533,0.003627,14.357779,-10.654154,7.902458,,,,,,,
1512180645.086734,0.105291,-0.045753,0.611198,0.003113,0.001964,-0.002606,0.104987,0.045737,-0.993421,-0.006064,0.019479,-0.003512,14.282064,-10.804270,7.828041,,,,,,,
1512180645.106723,0.105291,-0.045718,0.611153,0.004181,-0.000166,-0.002584,0.104987,0.045702,-0.993423,-0.001990,0.027312,0.000961,14.358084,-10.579157,7.827507,,,,,,,
1512180645.126743,0.105285,-0.045674,0.611109,0.000979,-0.000169,-0.002617,0.104981,0.045658,-0.993426,-0.011796,0.015866,0.005175,14.133078,-10.579493,7.829414,,,,,,,
1512180645.146732,0.105262,-0.045664,0.611038,0.002092,-0.002295,-0.005792,0.104958,0.045648,-0.993428,0.002692,0.020789,0.000295,13.983084,-10.579721,7.830696,,,,,,,
1512180645.166721,0.105268,-0.045628,0.611004,0.000955,0.000902,-0.001518,0.104965,0.045612,-0.993429,-0.002792,0.006924,-0.007852,14.133688,-10.429499,7.679497,,,,,,,
1512180645.186710,0.105245,-0.045600,0.610948,0.002040,-0.001231,-0.003628,0.104942,0.045585,-0.993433,-0.006370,0.014245,0.003794,14.281958,-10.804270,7.603050,,,,,,,
1512180645.206730,0.105249,-0.045562,0.610876,0.002027,0.000905,-0.003606,0.104945,0.045546,-0.993434,-0.004054,0.003084,-0.003727,14.132711,-10.654490,7.754387,,,,,,,
1512180645.226719,0.105260,-0.045543,0.610828,0.003068,0.000915,-0.001437,0.104956,0.045527,-0.993434,0.005426,0.002858,-0.003087,14.357748,-10.654154,7.827461,,,,,,,
1512180645.246708,0.105264,-0.045526,0.610780,-0.000147,0.001977,-0.001464,0.104961,0.045510,-0.993434,-0.005108,-0.001046,0.000148,14.432409,-10.729044,7.826790,,,,,,,
1512180645.266727,0.105253,-0.045536,0.610757,0.000901,-0.002295,-0.001446,0.104950,0.045520,-0.993435,0.000549,0.005795,-0.001942,14.357779,-10.654154,7.902458,,,,,,,
1512180645.286716,0.105265,-0.045475,0.610711,0.001991,0.004126,-0.002451,0.104962,0.045459,-0.993437,0.003970,-0.006595,-0.003130,14.282782,-10.654276,7.903099,,,,,,,
1512180645.306705,0.105196,-0.045500,0.610669,-0.004428,-0.001227,-0.002545,0.104893,0.045484,-0.993443,-0.014088,-0.005460,0.018513,13.980185,-11.179728,7.455421,,,,,,,
1512180645.326725,0.105164,-0.045465,0.610626,-0.000179,-0.000151,-0.002461,0.104862,0.045449,-0.993448,-0.001102,-0.009530,0.000696,14.430304,-11.179056,7.676598,,,,,,,
1512180645.346714,0.105117,-0.045499,0.610601,0.001918,-0.003346,-0.000286,0.104815,0.045484,-0.993451,0.003141,0.010470,-0.003589,14.057257,-10.729609,7.529991,,,,,,,
1512180645.366703,0.105085,-0.045458,0.610575,0.000858,-0.000138,-0.001336,0.104784,0.045442,-0.993456,-0.007570,-0.002687,-0.001585,14.058310,-10.504602,7.605095,,,,,,,
1512180645.386692,0.105047,-0.045460,0.610554,0.002955,-0.000136,-0.000221,0.104745,0.045444,-0.993460,-0.005838,0.013913,-0.002008,13.981283,-10.954721,7.605522,,,,,,,
1512180645.406711,0.105033,-0.045429,0.610540,0.001885,-0.000130,-0.000215,0.104731,0.045413,-0.993463,0.002111,0.002499,-0.009695,14.360067,-10.129145,7.752708,,,,,,,
1512180645.426700,0.105036,-0.045425,0.610546,-0.000291,-0.000132,0.001906,0.104734,0.045410,-0.993463,-0.010755,0.010026,0.002038,13.908453,-10.504831,7.906364,,,,,,,
1512180645.446689,0.105025,-0.045378,0.610532,0.001860,-0.002258,-0.000184,0.104724,0.045362,-0.993466,-0.000186,-0.005033,-0.002673,14.133413,-10.504496,7.829445,,,,,,,
1512180645.466709,0.105016,-0.045392,0.610529,-0.002419,-0.001195,-0.000225,0.104715,0.045376,-0.993467,-0.006402,0.008106,0.005765,13.832998,-10.579950,7.681969,,,,,,,
1512180645.486698,0.104991,-0.045361,0.610527,-0.000298,0.000957,0.000902,0.104691,0.045345,-0.993470,-0.004029,-0.002087,-0.004683,13.682516,-10.730173,8.058174,,,,,,,
1512180645.506687,0.104986,-0.045353,0.610518,-0.001345,-0.000106,-0.001232,0.104686,0.045337,-0.993471,-0.000743,0.008877,0.003908,13.608007,-10.580286,7.683876,,,,,,,
1512180645.526706,0.105000,-0.045284,0.610514,0.002885,0.002036,-0.000081,0.104700,0.045269,-0.993473,0.000997,-0.003734,0.000996,13.608984,-10.355280,7.608986,,,,,,,
1512180645.546695,0.105007,-0.045292,0.610512,-0.002468,0.002033,0.000925,0.104706,0.045276,-0.993472,-0.007691,0.006237,0.010867,13.682745,-10.655176,7.833199,,,,,,,
1512180645.566684,0.105009,-0.045283,0.610503,0.002876,-0.000090,-0.001123,0.104709,0.045268,-0.993472,0.003491,0.002386,-0.003583,13.909018,-10.354837,7.681435,,,,,,,
1512180645.586660,0.105011,-0.045287,0.610496,-0.000348,-0.001160,-0.000091,0.104711,0.045271,-0.993472,-0.005727,0.006730,0.009188,13.457251,-10.730509,7.535088,,,,,,,
1512180645.606680,0.105003,-0.045242,0.610480,0.002855,-0.001148,-0.001097,0.104703,0.045226,-0.993475,0.000750,0.000214,0.001257,13.681921,-10.805170,7.533134,,,,,,,
1512180645.626669,0.104984,-0.045266,0.610486,-0.001439,-0.001153,-0.000080,0.104684,0.045250,-0.993476,-0.000344,0.001396,0.009513,13.231543,-10.880854,7.461937,,,,,,,
1512180645.646658,0.104999,-0.045237,0.610487,0.001766,0.002062,-0.001076,0.104699,0.045222,-0.993475,-0.000573,0.000738,-0.007776,13.080145,-11.181086,7.388069,,,,,,,
1512180645.666677,0.104976,-0.045202,0.610499,0.000653,-0.000074,0.001044,0.104676,0.045187,-0.993479,-0.004410,0.000482,0.005076,13.007971,-10.581186,7.613991,,,,,,,
1512180645.686666,0.104959,-0.045185,0.610497,-0.000427,-0.000072,0.001037,0.104659,0.045170,-0.993482,-0.004012,0.000530,-0.002963,13.306585,-10.880732,7.536293,,,,,,,
1512180645.706655,0.104942,-0.045219,0.610511,-0.001499,-0.000066,0.001032,0.104642,0.045203,-0.993482,-0.004621,0.000710,0.005063,13.457556,-10.655512,7.460121,,,,,,,
1512180645.726675,0.104919,-0.045173,0.610522,0.003843,0.001021,0.000056,0.104620,0.045157,-0.993487,0.004893,-0.015540,-0.008436,13.080236,-11.106073,6.863106,,,,,,,
1512180645.746664,0.104893,-0.045125,0.610550,0.004887,0.009570,0.001172,0.104594,0.045110,-0.993491,-0.018946,-0.000920,0.005576,13.232031,-10.730844,7.086998,,,,,,,
1512180645.766653,0.104892,-0.045069,0.610561,0.003842,-0.004305,-0.001016,0.104593,0.045054,-0.993494,0.009451,-0.008586,-0.018087,13.381063,-10.955622,7.160622,,,,,,,
1512180645.786642,0.104886,-0.045074,0.610604,-0.001531,0.003163,0.001066,0.104588,0.045059,-0.993494,-0.005726,-0.008895,0.001887,13.458075,-10.505503,7.160194,,,,,,,
1512180645.806662,0.104888,-0.045036,0.610623,-0.001526,0.001034,-0.000006,0.104589,0.045021,-0.993496,-0.000357,-0.014717,0.001965,13.007025,-10.731180,7.088921,,,,,,,
1512180645.826651,0.104916,-0.045031,0.610660,-0.001531,0.003177,0.000002,0.104617,0.045016,-0.993493,-0.012652,-0.013750,0.007119,13.004553,-11.256189,6.863670,,,,,,,
1512180645.846640,0.104869,-0.044976,0.610688,0.001651,-0.002154,0.000028,0.104571,0.044961,-0.993501,0.002897,-0.023171,-0.002380,13.081839,-10.731073,6.713280,,,,,,,
1512180645.866659,0.104876,-0.044940,0.610733,0.000581,-0.000011,0.000018,0.104578,0.044925,-0.993501,-0.000665,-0.021701,0.007067,13.080084,-11.106073,6.563103,,,,,,,
1512180645.886648,0.104856,-0.044884,0.610771,0.003726,-0.000008,0.002190,0.104559,0.044869,-0.993506,-0.007086,-0.020653,-0.002283,13.380163,-11.105631,6.710548,,,,,,,
1512180645.906637,0.104822,-0.044851,0.610774,-0.000494,-0.002131,-0.000010,0.104525,0.044836,-0.993511,-0.007647,-0.025519,0.005260,13.603277,-11.480295,6.333473,,,,,,,
1512180645.926626,0.104803,-0.044789,0.610807,0.004827,0.000020,0.000069,0.104506,0.044774,-0.993516,0.007417,-0.020528,-0.006683,13.303473,-11.405741,6.036049,,,,,,,
1512180645.946646,0.104787,-0.044731,0.610829,0.002662,0.001086,0.001100,0.104491,0.044716,-0.993520,-0.013960,-0.036141,0.005880,13.903509,-11.404840,6.105949,,,,,,,
1512180645.966635,0.104776,-0.044682,0.610845,0.006908,0.000026,0.001149,0.104480,0.044667,-0.993523,-0.003009,-0.020680,-0.008292,13.602835,-11.480295,5.433479,,,,,,,
1512180645.986624,0.104755,-0.044639,0.610879,0.000509,-0.003178,0.001039,0.104460,0.044624,-0.993527,0.005175,-0.033089,0.000348,13.677267,-11.630182,5.657768,,,,,,,
1512180646.006643,0.104761,-0.044614,0.610920,0.003623,0.002162,0.005357,0.104466,0.044599,-0.993528,-0.010304,-0.026716,-0.008410,13.679480,-11.180185,6.032967,,,,,,,
1512180646.026632,0.104751,-0.044533,0.610950,0.001528,0.000039,0.003182,0.104455,0.044518,-0.993533,-0.006036,-0.041787,0.000399,13.676825,-11.705179,5.432732,,,,,,,
1512180646.046621,0.104742,-0.044490,0.611005,0.003628,0.000044,0.004267,0.104448,0.044475,-0.993535,-0.002122,-0.033443,-0.000010,14.275885,-11.929285,5.577538,,,,,,,
1512180646.066641,0.104760,-0.044393,0.611044,0.002577,-0.002088,0.002100,0.104466,0.044378,-0.993538,0.007488,-0.048956,0.008400,14.201101,-11.854395,5.353203,,,,,,,
1512180646.086630,0.104765,-0.044344,0.611087,0.001460,0.000044,0.004210,0.104470,0.044329,-0.993540,-0.012964,-0.040393,0.006143,14.425619,-11.929056,5.051262,,,,,,,
1512180646.106619,0.104782,-0.044208,0.611107,0.004666,0.002193,0.003186,0.104488,0.044194,-0.993544,-0.006145,-0.043187,0.005766,14.801931,-11.628489,4.973213,,,,,,,
1512180646.126608,0.104777,-0.044164,0.611139,-0.000656,-0.002085,0.000946,0.104483,0.044149,-0.993546,-0.006201,-0.039495,0.009919,15.251516,-11.702814,4.819344,,,,,,,
1512180646.146627,0.104782,-0.044070,0.611156,0.003584,-0.004213,0.000985,0.104489,0.044056,-0.993550,-0.001538,-0.045963,0.007298,15.100775,-11.853037,4.670555,,,,,,,
1512180646.166616,0.104790,-0.044052,0.611175,-0.000660,-0.003144,-0.001220,0.104497,0.044037,-0.993550,-0.005422,-0.046433,0.005543,15.400244,-11.927591,4.292961,,,,,,,
1512180646.186605,0.104806,-0.043956,0.611184,0.005701,0.002207,-0.000058,0.104513,0.043942,-0.993552,-0.008246,-0.038525,-0.002038,15.926596,-11.626810,4.288643,,,,,,,
1512180646.206625,0.104773,-0.043957,0.611181,-0.002810,-0.003130,-0.001275,0.104481,0.043943,-0.993556,-0.007114,-0.048291,0.006251,16.074987,-12.001581,4.437202,,,,,,,
1512180646.226614,0.104713,-0.043934,0.611157,0.003561,-0.002051,-0.001195,0.104421,0.043920,-0.993563,-0.004125,-0.044560,-0.009764,16.450247,-11.926020,4.284050,,,,,,,
1512180646.246603,0.104654,-0.043963,0.611125,-0.002850,-0.000987,-0.001297,0.104362,0.043949,-0.993568,-0.010856,-0.053867,-0.011590,16.525061,-11.925913,3.908409,,,,,,,
1512180646.266623,0.104598,-0.043922,0.611089,0.006734,0.000099,-0.002235,0.104307,0.043907,-0.993575,-0.008817,-0.057473,-0.014237,16.900183,-11.925348,4.130226,,,,,,,
1512180646.286612,0.104521,-0.043889,0.611042,0.001410,-0.000964,-0.003392,0.104230,0.043875,-0.993585,-0.016523,-0.060904,0.000741,17.124090,-12.150003,3.978203,,,,,,,
1512180646.306601,0.104491,-0.043830,0.610963,0.006710,0.001189,-0.002249,0.104200,0.043816,-0.993591,-0.012144,-0.041542,-0.013764,16.895605,-12.900354,3.754768,,,,,,,
1512180646.326590,0.104445,-0.043792,0.610903,-0.000751,0.000121,-0.003434,0.104155,0.043778,-0.993597,-0.002654,-0.040040,-0.009226,17.499273,-12.074442,3.675056,,,,,,,
1512180646.346609,0.104376,-0.043782,0.610823,0.001370,-0.003085,-0.003417,0.104086,0.043768,-0.993605,-0.009726,-0.024908,-0.005648,17.799353,-12.073999,3.822517,,,,,,,
1512180646.366598,0.104342,-0.043832,0.610717,-0.007142,-0.002029,-0.004604,0.104053,0.043818,-0.993606,-0.016559,-0.018916,0.012756,17.725363,-11.849100,3.823250,,,,,,,
1512180646.386587,0.104319,-0.043947,0.610601,-0.007103,0.002248,-0.006720,0.104029,0.043933,-0.993603,-0.016886,-0.007007,-0.012317,18.022177,-12.523661,3.520393,,,,,,,
1512180646.406607,0.104288,-0.044089,0.610417,-0.009182,0.000116,-0.009956,0.103998,0.044074,-0.993600,-0.009348,-0.011588,0.006540,18.397177,-12.523096,3.517204,,,,,,,
1512180646.426596,0.104269,-0.044254,0.610257,-0.004953,0.001186,-0.007758,0.103978,0.044240,-0.993595,-0.008916,-0.007329,-0.003918,18.476751,-11.547983,3.892006,,,,,,,
1512180646.446585,0.104245,-0.044428,0.610033,-0.010236,0.002249,-0.011031,0.103954,0.044414,-0.993590,-0.021816,-0.017803,0.012663,18.551306,-11.622873,3.666344,,,,,,,
1512180646.466604,0.104217,-0.044580,0.609795,-0.004868,0.001195,-0.013088,0.103925,0.044566,-0.993586,-0.017423,-0.022562,-0.001897,18.474020,-12.147989,3.816734,,,,,,,
1512180646.486593,0.104196,-0.044663,0.609552,-0.002749,0.000124,-0.013064,0.103904,0.044648,-0.993585,-0.025504,-0.035584,0.002832,18.776495,-11.622522,4.039436,,,,,,,
1512180646.506582,0.104165,-0.044690,0.609282,0.001562,-0.000926,-0.015134,0.103873,0.044675,-0.993587,-0.010504,-0.035825,-0.004002,18.775854,-11.772532,4.114357,,,,,,,
1512180646.526571,0.104155,-0.044662,0.609002,0.000515,0.001210,-0.016208,0.103863,0.044647,-0.993589,-0.018200,-0.044128,0.006345,18.851599,-11.622416,4.263786,,,,,,,
1512180646.546591,0.104140,-0.044585,0.608701,0.006909,0.001219,-0.016116,0.103849,0.044571,-0.993594,-0.024824,-0.040863,-0.005933,19.001348,-11.697199,4.412483,,,,,,,
1512180646.566580,0.104144,-0.044502,0.608363,0.003746,0.000150,-0.018297,0.103853,0.044487,-0.993597,-0.017198,-0.042504,0.005148,19.002737,-11.397196,4.487617,,,,,,,
1512180646.586548,0.104178,-0.044434,0.608036,0.006936,0.004430,-0.017168,0.103887,0.044419,-0.993597,-0.006902,-0.027970,-0.017558,19.150488,-11.921976,4.711098,,,,,,,
1512180646.606567,0.104196,-0.044408,0.607672,0.000551,0.002282,-0.018336,0.103905,0.044393,-0.993596,-0.018364,-0.029699,-0.002879,19.077536,-11.472086,4.786949,,,,,,,
1512180646.626556,0.104202,-0.044447,0.607252,-0.000487,0.001221,-0.019418,0.103911,0.044432,-0.993594,-0.013457,-0.018263,-0.005476,19.077963,-11.397074,4.936974,,,,,,,
1512180646.646545,0.104220,-0.044508,0.606820,-0.003669,0.001210,-0.021601,0.103928,0.044494,-0.993589,-0.020631,-0.024688,0.000486,18.849615,-12.147425,5.013542,,,,,,,
1512180646.666533,0.104170,-0.044616,0.606350,-0.003612,-0.000917,-0.024805,0.103878,0.044601,-0.993589,-0.013180,-0.012084,-0.005709,18.778173,-11.397532,5.389519,,,,,,,
1512180646.686553,0.104113,-0.044730,0.605846,-0.005712,-0.001986,-0.026972,0.103821,0.044715,-0.993590,-0.011414,-0.019065,0.009902,18.479376,-11.172983,5.767174,,,,,,,
1512180646.706542,0.104040,-0.044873,0.605314,-0.003562,-0.004115,-0.028013,0.103748,0.044858,-0.993591,-0.010974,-0.017239,0.001877,18.103857,-11.323542,6.070290,,,,,,,
1512180646.726532,0.103957,-0.045005,0.604706,-0.004569,-0.000904,-0.031214,0.103665,0.044989,-0.993594,-0.027371,-0.028632,0.012561,18.105352,-11.023539,6.370430,,,,,,,
1512180646.746551,0.103844,-0.045103,0.604083,-0.001355,-0.006237,-0.032251,0.103552,0.045088,-0.993602,-0.011724,-0.023329,0.000880,17.132071,-10.650003,6.453896,,,,,,,
1512180646.766540,0.103786,-0.045151,0.603403,0.000812,0.001245,-0.034327,0.103494,0.045136,-0.993605,-0.027444,-0.033906,0.012557,17.056890,-10.725107,6.754494,,,,,,,
1512180646.786529,0.103655,-0.045185,0.602662,0.005093,-0.000882,-0.035338,0.103364,0.045170,-0.993617,-0.041153,-0.027805,-0.006642,16.758245,-10.425562,6.757179,,,,,,,
1512180646.806549,0.103554,-0.045186,0.601891,0.001977,-0.008354,-0.040740,0.103264,0.045170,-0.993628,-0.025703,-0.036625,0.009924,16.082754,-10.576578,7.137840,,,,,,,
1512180646.826538,0.103506,-0.045153,0.601086,0.008412,-0.000862,-0.042753,0.103216,0.045138,-0.993634,-0.018056,-0.025057,-0.009173,16.232412,-10.651346,7.136528,,,,,,,
1512180646.846527,0.103440,-0.045127,0.600223,0.002001,0.001262,-0.041772,0.103150,0.045112,-0.993642,-0.047440,-0.042915,0.003972,15.482702,-10.577478,7.067955,,,,,,,
1512180646.866516,0.103392,-0.045113,0.599303,0.006351,0.007692,-0.045948,0.103103,0.045098,-0.993648,-0.028137,-0.021111,-0.012975,15.333197,-10.502695,7.369255,,,,,,,
1512180646.886536,0.103346,-0.045143,0.598342,0.003186,0.009826,-0.048120,0.103057,0.045127,-0.993651,-0.027084,-0.028221,-0.013932,15.108236,-10.503031,7.446175,,,,,,,
1512180646.906525,0.103296,-0.045186,0.597324,0.003234,0.008762,-0.051322,0.103007,0.045170,-0.993654,-0.034846,-0.014607,-0.014524,14.883505,-10.428370,7.298119,,,,,,,
1512180646.926514,0.103291,-0.045241,0.596233,0.003309,0.001291,-0.056679,0.103002,0.045226,-0.993652,-0.028433,-0.022246,-0.002747,14.657934,-10.578714,7.524956,,,,,,,
1512180646.946532,0.103284,-0.045343,0.595107,0.001196,0.004494,-0.057765,0.102995,0.045328,-0.993649,-0.027082,-0.013788,-0.011478,14.509329,-10.278925,7.601372,,,,,,,
1512180646.966522,0.103223,-0.045449,0.593902,0.001269,-0.001903,-0.062048,0.102933,0.045434,-0.993650,-0.024945,-0.031731,-0.002703,13.902670,-11.629847,6.480858,,,,,,,
1512180646.986511,0.103192,-0.045538,0.592631,0.002381,0.006651,-0.064133,0.102902,0.045523,-0.993649,-0.033017,-0.019873,0.000836,14.282217,-10.654276,6.778114,,,,,,,
1512180647.006531,0.103085,-0.045595,0.591270,0.002408,0.003448,-0.066278,0.102795,0.045580,-0.993658,-0.072842,-0.034593,-0.001521,14.059210,-10.279612,7.380196,,,,,,,
1512180647.026520,0.102979,-0.045657,0.589879,0.004707,-0.006142,-0.076939,0.102690,0.045641,-0.993666,-0.007567,-0.030733,0.008055,13.757513,-10.655054,7.382576,,,,,,,
1512180647.046509,0.102911,-0.045683,0.588426,0.005792,0.002405,-0.077961,0.102622,0.045667,-0.993672,-0.030463,-0.037335,-0.003765,13.684210,-10.280176,7.383385,,,,,,,
1512180647.066498,0.102840,-0.045713,0.586899,0.007893,0.004542,-0.075790,0.102551,0.045697,-0.993677,-0.042386,-0.031278,-0.000524,13.456244,-10.955515,7.534981,,,,,,,
1512180647.086517,0.102806,-0.045716,0.585330,0.004776,0.005618,-0.080093,0.102518,0.045700,-0.993681,-0.039331,-0.037887,0.009260,13.834234,-10.279947,7.457115,,,,,,,
1512180647.106506,0.102814,-0.045753,0.583739,0.009071,0.005628,-0.082164,0.102525,0.045737,-0.993678,-0.022218,-0.030051,-0.010930,13.910849,-9.904825,7.306648,,,,,,,
1512180647.126495,0.102882,-0.045810,0.582146,0.002636,0.006679,-0.080123,0.102593,0.045794,-0.993669,-0.023980,-0.036745,0.004869,13.684057,-10.280176,7.083382,,,,,,,
1512180647.146515,0.102936,-0.045873,0.580507,0.005822,0.008820,-0.079002,0.102646,0.045856,-0.993660,-0.035447,-0.026508,-0.014305,13.910070,-10.054834,7.081581,,,,,,,
1512180647.166504,0.102995,-0.045963,0.578841,0.000559,0.007751,-0.083347,0.102704,0.045946,-0.993650,-0.043088,-0.031786,0.003095,13.909430,-10.204828,7.156502,,,,,,,
1512180647.186493,0.103054,-0.046097,0.577195,0.001639,0.004549,-0.084409,0.102762,0.046080,-0.993638,-0.008036,-0.027983,0.002671,13.532171,-10.730402,7.384453,,,,,,,
1512180647.206511,0.103154,-0.046232,0.575510,0.001653,0.010963,-0.084384,0.102861,0.046215,-0.993621,-0.024721,-0.026913,0.002624,13.684546,-10.205164,7.383415,,,,,,,
1512180647.226501,0.103214,-0.046367,0.573784,0.002766,0.010969,-0.087567,0.102920,0.046351,-0.993609,-0.030182,-0.018473,-0.010602,13.685110,-10.055170,7.158485,,,,,,,
1512180647.246490,0.103283,-0.046484,0.572019,0.002802,0.005634,-0.089716,0.102988,0.046467,-0.993597,-0.013877,-0.030568,0.003011,13.834097,-10.279947,7.157112,,,,,,,
1512180647.266479,0.103306,-0.046563,0.570218,0.006009,0.005637,-0.090738,0.103011,0.046547,-0.993591,-0.015288,-0.021370,-0.002106,13.609503,-10.205286,7.309059,,,,,,,
1512180647.286499,0.103312,-0.046668,0.568363,0.003927,0.004571,-0.093971,0.103016,0.046651,-0.993585,-0.026600,-0.023198,0.004526,13.684210,-10.280176,7.383385,,,,,,,
1512180647.306488,0.103320,-0.046718,0.566489,0.008219,0.002449,-0.094979,0.103023,0.046701,-0.993582,-0.014080,-0.021753,-0.002100,13.605978,-10.955286,7.008705,,,,,,,
1512180647.326477,0.103339,-0.046762,0.564579,0.007166,0.005651,-0.096051,0.103042,0.046745,-0.993578,-0.033187,-0.015236,0.002718,13.533087,-10.505396,7.159554,,,,,,,
1512180647.346497,0.103349,-0.046832,0.562651,0.007180,0.003516,-0.097124,0.103052,0.046815,-0.993574,-0.010477,-0.017000,-0.000582,13.459097,-10.280512,7.160301,,,,,,,
1512180647.366486,0.103354,-0.046873,0.560691,0.006135,0.005653,-0.098198,0.103056,0.046856,-0.993571,-0.037108,-0.020977,0.002879,13.532660,-10.580393,7.009514,,,,,,,
1512180647.386475,0.103331,-0.046918,0.558684,0.008320,0.001392,-0.101378,0.103034,0.046901,-0.993572,-0.019446,-0.013179,-0.003407,13.609426,-10.205286,7.159050,,,,,,,
1512180647.406494,0.103348,-0.046973,0.556695,0.005098,0.004585,-0.100350,0.103050,0.046955,-0.993567,-0.022606,-0.021321,0.011878,13.534201,-10.205393,6.709694,,,,,,,
1512180647.426483,0.103339,-0.047066,0.554654,0.008319,0.005663,-0.101364,0.103041,0.047048,-0.993564,-0.029158,-0.018453,-0.005521,13.910299,-9.979837,6.856606,,,,,,,
1512180647.446472,0.103292,-0.047154,0.552581,0.005144,0.001392,-0.102489,0.102994,0.047136,-0.993564,-0.031903,-0.022218,0.001499,13.910666,-9.904825,6.931648,,,,,,,
1512180647.466460,0.103216,-0.047246,0.550480,0.007344,0.000334,-0.106726,0.102918,0.047229,-0.993568,-0.015332,-0.018359,-0.009438,13.833609,-10.354944,6.857079,,,,,,,
1512180647.486480,0.103112,-0.047331,0.548323,0.005191,0.001395,-0.105688,0.102815,0.047313,-0.993575,-0.039506,-0.025570,0.000655,13.683905,-10.280176,6.783379,,,,,,,
1512180647.506469,0.102957,-0.047441,0.546132,0.008449,-0.001800,-0.109918,0.102659,0.047423,-0.993585,-0.019270,-0.010756,-0.005819,13.756887,-10.730066,6.782539,,,,,,,
1512180647.526459,0.102850,-0.047541,0.543910,0.006362,0.001409,-0.112068,0.102553,0.047523,-0.993592,-0.017897,-0.028663,-0.008255,13.910559,-9.904825,6.706642,,,,,,,
1512180647.546478,0.102757,-0.047642,0.541624,0.010643,0.004621,-0.113061,0.102460,0.047624,-0.993596,-0.035336,-0.008272,-0.010935,13.835516,-9.904947,6.632286,,,,,,,
1512180647.566467,0.102642,-0.047736,0.539283,0.004311,0.001413,-0.117430,0.102346,0.047718,-0.993604,-0.027227,-0.026722,0.009381,13.760824,-9.830057,6.557961,,,,,,,
1512180647.586426,0.102537,-0.047900,0.536964,0.006436,0.000345,-0.117404,0.102240,0.047881,-0.993607,-0.012030,-0.012923,-0.005691,14.060888,-9.829599,6.705406,,,,,,,
1512180647.606415,0.102460,-0.048027,0.534594,0.004302,0.007822,-0.116340,0.102163,0.048009,-0.993608,-0.034811,-0.027699,-0.008512,13.985785,-9.829721,6.481041,,,,,,,
1512180647.626435,0.102388,-0.048188,0.532175,0.006487,0.005696,-0.119513,0.102091,0.048169,-0.993608,-0.036356,-0.014707,0.000734,13.760748,-9.830057,6.407951,,,,,,,
1512180647.646423,0.102375,-0.048351,0.529760,0.003317,0.006759,-0.121690,0.102077,0.048332,-0.993602,-0.033458,-0.030006,0.004405,14.135824,-9.829493,6.554771,,,,,,,
1512180647.666412,0.102371,-0.048546,0.527310,0.005489,0.006769,-0.123789,0.102072,0.048527,-0.993593,-0.030631,-0.014317,-0.005767,14.286413,-9.679270,6.403557,,,,,,,
1512180647.686431,0.102403,-0.048723,0.524844,0.001211,0.007830,-0.122781,0.102103,0.048704,-0.993581,-0.039344,-0.021116,0.003819,14.135336,-9.904490,6.254723,,,,,,,
1512180647.706420,0.102445,-0.048933,0.522337,0.003412,0.011045,-0.127003,0.102143,0.048914,-0.993566,-0.036790,-0.014948,-0.006617,13.911047,-9.754831,6.331718,,,,,,,
1512180647.726409,0.102461,-0.049095,0.519804,0.003432,0.005710,-0.128086,0.102159,0.049075,-0.993557,-0.015703,-0.028537,0.001476,14.059912,-9.979609,6.105339,,,,,,,
1512180647.746429,0.102465,-0.049321,0.517235,0.003417,0.006769,-0.128086,0.102162,0.049301,-0.993545,-0.038273,-0.022216,0.010132,13.909323,-10.129831,6.256538,,,,,,,
1512180647.766418,0.102494,-0.049469,0.514621,0.004536,0.009988,-0.130187,0.102189,0.049449,-0.993535,-0.038148,-0.022579,0.000142,13.911413,-9.679834,6.406746,,,,,,,
1512180647.786407,0.102567,-0.049669,0.511979,0.002468,0.012125,-0.134476,0.102261,0.049649,-0.993518,-0.027463,-0.017880,-0.002378,14.361425,-9.679148,6.402916,,,,,,,
1512180647.806396,0.102660,-0.049777,0.509330,0.005619,0.008916,-0.132312,0.102352,0.049757,-0.993503,-0.022961,-0.033124,0.001315,14.437094,-9.529047,6.402351,,,,,,,
1512180647.826416,0.102750,-0.049966,0.506618,0.001423,0.011060,-0.135560,0.102441,0.049945,-0.993484,-0.040796,-0.018970,0.013458,14.137548,-9.454493,6.629936,,,,,,,
1512180647.846405,0.102810,-0.050088,0.503879,0.007848,0.008935,-0.137607,0.102500,0.050067,-0.993472,-0.022910,-0.022174,-0.012830,14.212805,-9.379374,6.479347,,,,,,,
1512180647.866395,0.102806,-0.050259,0.501148,0.008940,0.005733,-0.139736,0.102495,0.050237,-0.993464,-0.007983,-0.009878,-0.015996,14.588476,-9.228815,6.476219,,,,,,,
1512180647.886414,0.102783,-0.050341,0.498369,0.009954,0.006797,-0.136520,0.102472,0.050319,-0.993462,-0.029307,-0.029522,-0.006370,14.362616,-9.454157,6.778023,,,,,,,
1512180647.906402,0.102702,-0.050495,0.495562,0.006791,0.004660,-0.138705,0.102391,0.050474,-0.993463,-0.038686,-0.017271,0.005914,14.515356,-8.853922,6.852028,,,,,,,
1512180647.926391,0.102691,-0.050571,0.492749,0.010024,0.007873,-0.140779,0.102380,0.050550,-0.993460,-0.014718,-0.022657,-0.014169,14.438177,-9.304041,6.552452,,,,,,,
1512180647.946411,0.102651,-0.050680,0.489939,0.005785,0.002533,-0.141923,0.102340,0.050658,-0.993459,-0.018050,-0.015517,0.014287,14.664602,-9.003702,6.700691,,,,,,,
1512180647.966400,0.102653,-0.050722,0.487127,0.011105,0.004679,-0.140770,0.102341,0.050701,-0.993456,-0.024948,-0.024074,0.003436,14.440664,-8.779032,6.777702,,,,,,,
1512180647.986389,0.102676,-0.050776,0.484307,0.008967,0.008944,-0.140789,0.102364,0.050755,-0.993451,-0.037834,-0.017094,0.015912,14.441595,-8.554041,6.627800,,,,,,,
1512180648.006378,0.102700,-0.050808,0.481457,0.013249,0.008953,-0.141793,0.102387,0.050786,-0.993447,-0.028107,-0.020742,0.000222,14.889944,-8.928370,6.698814,,,,,,,
1512180648.026397,0.102771,-0.050871,0.478622,0.010043,0.011079,-0.141834,0.102458,0.050850,-0.993437,-0.037349,-0.014488,0.009077,14.589651,-9.003809,6.776314,,,,,,,
1512180648.046386,0.102771,-0.050872,0.475770,0.015387,0.007892,-0.141763,0.102458,0.050850,-0.993437,-0.022349,-0.013191,-0.014788,14.663595,-9.228708,6.700584,,,,,,,
1512180648.066375,0.102639,-0.050890,0.472881,0.015420,-0.000654,-0.144994,0.102326,0.050868,-0.993449,-0.021576,-0.018108,-0.008443,14.510489,-9.903925,6.551552,,,,,,,
1512180648.086396,0.102484,-0.050834,0.469943,0.018635,0.000420,-0.146010,0.102173,0.050812,-0.993468,-0.029434,-0.029328,0.005568,14.816153,-8.703470,7.074547,,,,,,,
1512180648.106385,0.102383,-0.050808,0.466954,0.013366,0.003626,-0.149272,0.102072,0.050786,-0.993480,-0.039771,-0.015142,0.002269,14.742834,-8.328577,7.075356,,,,,,,
1512180648.126374,0.102356,-0.050743,0.463946,0.020886,0.008986,-0.152342,0.102046,0.050721,-0.993486,-0.012950,-0.008912,-0.012892,14.816412,-8.628473,6.924583,,,,,,,
1512180648.146392,0.102338,-0.050711,0.460936,0.014419,0.006831,-0.148179,0.102028,0.050689,-0.993489,-0.037652,-0.003830,0.009389,14.741064,-8.703592,6.925194,,,,,,,
1512180648.166381,0.102315,-0.050651,0.457945,0.019715,0.008971,-0.145963,0.102006,0.050629,-0.993495,-0.028566,-0.005677,-0.009710,14.590658,-8.778818,6.776421,,,,,,,
1512180648.186370,0.102388,-0.050625,0.454941,0.016557,0.016448,-0.148115,0.102079,0.050603,-0.993488,-0.048154,-0.009771,-0.023678,14.815695,-8.778467,6.849510,,,,,,,
1512180648.206359,0.102605,-0.050602,0.452006,0.016546,0.020720,-0.147033,0.102294,0.050581,-0.993467,-0.019210,-0.009244,-0.017870,14.968206,-8.253244,7.148476,,,,,,,
1512180648.226379,0.102854,-0.050626,0.449093,0.013278,0.020706,-0.142817,0.102541,0.050605,-0.993441,-0.040224,-0.005683,0.000780,14.818548,-8.178476,7.149788,,,,,,,
1512180648.246368,0.103198,-0.050674,0.446187,0.013317,0.028187,-0.144923,0.102882,0.050653,-0.993403,-0.045418,-0.008172,-0.000555,14.968924,-8.103251,7.223549,,,,,,,
1512180648.266357,0.103653,-0.050689,0.443320,0.013315,0.031397,-0.143842,0.103335,0.050667,-0.993355,-0.044054,-0.013329,0.007699,14.894186,-8.028360,7.074226,,,,,,,
1512180648.286376,0.104141,-0.050696,0.440449,0.016517,0.030329,-0.144869,0.103819,0.050674,-0.993304,-0.013503,-0.005936,-0.013043,14.892538,-8.403360,7.149055,,,,,,,
1512180648.306365,0.104601,-0.050749,0.437565,0.009038,0.031383,-0.143907,0.104276,0.050727,-0.993254,-0.043332,-0.001197,0.010557,15.042425,-8.403131,6.922768,,,,,,,
1512180648.326355,0.104980,-0.050805,0.434600,0.013351,0.027123,-0.147058,0.104652,0.050783,-0.993211,-0.026146,0.002714,-0.007216,15.344107,-8.027674,6.920403,,,,,,,
1512180648.346375,0.105357,-0.050871,0.431578,0.009171,0.026057,-0.152454,0.105026,0.050849,-0.993169,-0.020371,-0.005194,0.005727,15.119223,-8.028009,7.147316,,,,,,,
1512180648.366364,0.105734,-0.050983,0.428489,0.012443,0.027141,-0.156666,0.105399,0.050961,-0.993123,-0.003394,0.002567,-0.013270,15.494665,-7.952448,7.369148,,,,,,,
1512180648.386353,0.106097,-0.051138,0.425367,0.004949,0.027126,-0.154642,0.105760,0.051115,-0.993077,-0.015260,-0.000822,0.005986,15.568167,-8.252344,7.068382,,,,,,,
1512180648.406342,0.106423,-0.051317,0.422204,0.009259,0.022864,-0.157793,0.106083,0.051295,-0.993033,-0.007526,-0.004115,-0.010507,14.889791,-9.003366,7.073769,,,,,,,
1512180648.426362,0.106687,-0.051526,0.419055,0.004975,0.020719,-0.156797,0.106343,0.051503,-0.992995,-0.005177,-0.010930,-0.006120,15.569372,-8.027338,7.443489,,,,,,,
1512180648.446351,0.106898,-0.051771,0.415945,0.005971,0.021780,-0.152515,0.106551,0.051747,-0.992960,-0.002136,-0.002370,-0.011206,15.420416,-7.802561,7.519859,,,,,,,
1512180648.466339,0.107094,-0.052003,0.412862,0.004913,0.022850,-0.152524,0.106745,0.051979,-0.992927,-0.014170,-0.013375,-0.001946,15.419744,-7.952570,7.519798,,,,,,,
1512180648.486358,0.107300,-0.052251,0.409829,0.008071,0.018577,-0.150362,0.106948,0.052227,-0.992892,-0.021499,0.006382,0.000613,15.572531,-7.352335,7.668800,,,,,,,
1512180648.506347,0.107489,-0.052443,0.406913,0.006925,0.013223,-0.146134,0.107135,0.052419,-0.992862,0.006299,-0.005224,-0.010922,15.571585,-7.577341,7.818687,,,,,,,
1512180648.526336,0.107638,-0.052667,0.404048,0.005777,0.018553,-0.140802,0.107281,0.052642,-0.992834,-0.027508,0.008912,-0.010737,15.871923,-7.501886,7.816170,,,,,,,
1512180648.546325,0.107732,-0.052774,0.401183,0.007883,0.011075,-0.139732,0.107374,0.052750,-0.992818,-0.029875,-0.004914,0.010625,15.723242,-7.202112,7.742592,,,,,,,
1512180648.566345,0.107851,-0.052932,0.398398,0.010027,0.008942,-0.140775,0.107491,0.052907,-0.992797,0.009376,0.003276,0.002960,15.871542,-7.576883,7.741142,,,,,,,
1512180648.586341,0.107934,-0.053003,0.395615,0.008939,0.013214,-0.138641,0.107573,0.052979,-0.992785,-0.013488,0.008820,-0.005934,15.797110,-7.426996,7.516853,,,,,,,
1512180648.606330,0.107923,-0.053101,0.392807,0.011049,0.008942,-0.137560,0.107562,0.053076,-0.992781,-0.029360,0.008707,-0.003511,16.020834,-7.726664,7.664803,,,,,,,
1512180648.626349,0.107933,-0.053091,0.389974,0.013241,0.005745,-0.141805,0.107572,0.053066,-0.992780,0.000857,0.007770,-0.003756,16.248205,-7.201319,7.663124,,,,,,,
1512180648.646338,0.107944,-0.053109,0.387143,0.014281,0.008951,-0.139645,0.107582,0.053084,-0.992778,-0.025688,0.011842,0.010188,16.173834,-7.051447,7.588844,,,,,,,
1512180648.666327,0.107939,-0.053075,0.384210,0.020775,0.005767,-0.145959,0.107578,0.053050,-0.992780,-0.014972,0.012654,-0.005465,16.324133,-6.976221,7.512596,,,,,,,
1512180648.686347,0.107953,-0.053008,0.381290,0.016543,0.007905,-0.147076,0.107592,0.052983,-0.992782,-0.011858,0.008815,-0.002014,16.024618,-6.901651,7.815178,,,,,,,
1512180648.706336,0.107965,-0.052889,0.378360,0.025028,0.012181,-0.144809,0.107605,0.052864,-0.992787,-0.029053,0.003319,-0.009837,16.248846,-7.051325,7.588203,,,,,,,
1512180648.726325,0.107920,-0.052804,0.375455,0.020728,0.003628,-0.142767,0.107561,0.052780,-0.992797,-0.024385,0.001664,0.006560,16.098166,-7.201548,7.589409,,,,,,,
1512180648.746314,0.107913,-0.052650,0.372564,0.022824,0.010033,-0.140584,0.107554,0.052626,-0.992805,-0.034983,-0.006224,-0.001152,16.474661,-6.900980,7.886345,,,,,,,
1512180648.766333,0.107853,-0.052552,0.369728,0.020669,0.005754,-0.139565,0.107495,0.052528,-0.992817,-0.034543,-0.006599,-0.010158,16.550482,-6.675867,7.510826,,,,,,,
1512180648.786322,0.107891,-0.052422,0.366973,0.021682,0.008952,-0.136342,0.107534,0.052398,-0.992820,-0.003103,-0.001098,0.002784,16.699102,-6.975657,7.434410,,,,,,,
1512180648.806311,0.107940,-0.052372,0.364232,0.017386,0.013214,-0.134257,0.107583,0.052348,-0.992817,-0.040414,-0.017726,0.017750,16.702658,-6.225641,7.809746,,,,,,,
1512180648.826331,0.107978,-0.052301,0.361501,0.016292,0.014279,-0.132135,0.107621,0.052277,-0.992817,-0.051133,-0.005448,0.014194,16.774405,-6.900537,7.358803,,,,,,,
1512180648.846320,0.108163,-0.052249,0.358771,0.017455,0.015357,-0.138514,0.107804,0.052226,-0.992799,-0.020738,-0.009501,0.007341,16.627325,-6.300760,7.810356,,,,,,,
1512180648.866309,0.108380,-0.052253,0.356056,0.017453,0.020702,-0.137426,0.108021,0.052229,-0.992776,-0.023655,-0.007506,-0.007819,16.852209,-6.300425,7.583443,,,,,,,
1512180648.886328,0.108557,-0.052256,0.353295,0.013165,0.016419,-0.136438,0.108196,0.052232,-0.992756,-0.040081,-0.010774,0.019169,16.704199,-5.850641,7.509926,,,,,,,
1512180648.906318,0.108636,-0.052276,0.350517,0.017457,0.008952,-0.138534,0.108274,0.052252,-0.992747,-0.029005,0.003198,-0.009130,16.553228,-6.075861,7.586098,,,,,,,
1512180648.926307,0.108626,-0.052291,0.347643,0.011174,0.003612,-0.146108,0.108264,0.052268,-0.992747,-0.015949,-0.005896,0.014201,16.701574,-6.450647,7.659645,,,,,,,
1512180648.946296,0.108553,-0.052299,0.344751,0.019689,0.006829,-0.144906,0.108191,0.052276,-0.992755,-0.030570,-0.002669,-0.012571,16.553488,-6.000864,7.436134,,,,,,,
1512180648.966315,0.108481,-0.052294,0.341768,0.014418,0.005763,-0.148183,0.108120,0.052270,-0.992763,-0.044247,0.004340,0.008907,16.479162,-5.850977,7.436836,,,,,,,
1512180648.986304,0.108350,-0.052326,0.338744,0.018744,0.000435,-0.152404,0.107990,0.052302,-0.992775,-0.008259,0.019567,-0.024834,16.252508,-6.226313,7.513573,,,,,,,
1512180649.006293,0.108232,-0.052349,0.335704,0.016577,0.004698,-0.150289,0.107872,0.052325,-0.992787,-0.031090,0.010236,-0.022030,16.253119,-6.076319,7.363640,,,,,,,
1512180649.026313,0.108067,-0.052400,0.332591,0.015545,0.003633,-0.152440,0.107709,0.052376,-0.992802,-0.047895,0.021125,-0.013012,15.954718,-5.701761,7.216377,,,,,,,
1512180649.046302,0.107895,-0.052481,0.329447,0.010285,-0.001707,-0.156799,0.107538,0.052457,-0.992816,-0.035822,0.006656,-0.009427,15.952063,-6.301767,7.291100,,,,,,,
1512180649.066291,0.107749,-0.052546,0.326282,0.015705,0.000449,-0.162042,0.107392,0.052521,-0.992828,-0.018266,0.015167,-0.016434,16.255178,-5.626307,7.438866,,,,,,,
1512180649.086310,0.107583,-0.052609,0.323085,0.012445,-0.000628,-0.157827,0.107227,0.052585,-0.992843,-0.042179,0.004559,-0.003663,16.405478,-5.551096,7.362617,,,,,,,
1512180649.106299,0.107310,-0.052663,0.319843,0.015654,-0.001691,-0.158852,0.106955,0.052639,-0.992869,-0.060035,0.000080,0.001674,16.106070,-5.401545,7.215233,,,,,,,
1512180649.126288,0.106981,-0.052712,0.316552,0.011470,-0.008099,-0.164266,0.106629,0.052688,-0.992902,-0.046616,0.005112,0.022382,16.254950,-5.626307,6.988853,,,,,,,
1512180649.146277,0.106683,-0.052853,0.313270,0.014705,-0.003817,-0.166336,0.106332,0.052829,-0.992926,-0.020349,0.002164,-0.017618,16.027655,-6.151651,7.140526,,,,,,,
1512180649.166297,0.106415,-0.052896,0.309899,0.014676,0.001521,-0.164186,0.106065,0.052872,-0.992953,-0.087328,0.006378,0.012041,16.029531,-5.701654,6.840736,,,,,,,
1512180649.186286,0.106152,-0.052987,0.306468,0.017981,-0.002739,-0.171618,0.105804,0.052962,-0.992976,-0.046051,0.017320,0.007120,16.480474,-5.475977,6.687019,,,,,,,
1512180649.206275,0.105975,-0.053071,0.303042,0.016995,0.002612,-0.175877,0.105628,0.053046,-0.992990,-0.030463,0.007776,-0.011634,16.330816,-5.401209,6.688332,,,,,,,
1512180649.226294,0.105849,-0.053097,0.299541,0.020161,0.010089,-0.173673,0.105502,0.053072,-0.993002,-0.062564,0.029203,-0.009165,16.629461,-5.700754,6.685631,,,,,,,
1512180649.246283,0.105746,-0.053170,0.295996,0.018080,0.006888,-0.176912,0.105400,0.053145,-0.993009,-0.055259,0.015932,-0.001757,16.477057,-6.225977,6.611671,,,,,,,
1512180649.266272,0.105754,-0.053163,0.292418,0.019171,0.013295,-0.179010,0.105408,0.053138,-0.993008,-0.066894,0.017648,-0.006580,16.705999,-5.325632,6.385170,,,,,,,
1512180649.286292,0.105729,-0.053114,0.288733,0.021384,0.011177,-0.183247,0.105383,0.053089,-0.993014,-0.076010,0.024502,0.000841,16.554693,-5.625864,6.461311,,,,,,,
1512180649.306281,0.105728,-0.053142,0.285024,0.024649,0.009060,-0.186401,0.105382,0.053117,-0.993012,-0.053044,0.025771,-0.017791,16.855627,-5.400415,6.308861,,,,,,,
1512180649.326270,0.105773,-0.053105,0.281239,0.018310,0.013323,-0.190746,0.105427,0.053080,-0.993009,-0.064656,0.014989,0.004911,17.079016,-5.775080,6.456779,,,,,,,
1512180649.346259,0.105757,-0.053103,0.277387,0.021516,0.012264,-0.190701,0.105412,0.053078,-0.993011,-0.077488,0.023826,-0.015503,17.156485,-5.174967,6.006416,,,,,,,
1512180649.366278,0.105749,-0.053088,0.273437,0.020553,0.009071,-0.197123,0.105403,0.053063,-0.993013,-0.054653,0.005256,0.006273,17.306417,-5.174738,5.855141,,,,,,,
1512180649.386267,0.105832,-0.053105,0.269486,0.020613,0.019758,-0.200283,0.105485,0.053080,-0.993003,-0.034379,0.005758,-0.001214,17.077291,-6.075083,5.706642,,,,,,,
1512180649.406256,0.105880,-0.053128,0.265465,0.016304,0.017607,-0.198223,0.105533,0.053103,-0.992997,-0.070789,0.004682,0.016724,17.231482,-5.174845,6.005775,,,,,,,
1512180649.426276,0.106002,-0.053135,0.261399,0.023803,0.015488,-0.200253,0.105654,0.053110,-0.992984,-0.043475,0.013067,-0.008176,17.307470,-4.949732,5.930260,,,,,,,
1512180649.446265,0.106198,-0.053141,0.257308,0.020693,0.020833,-0.205611,0.105849,0.053116,-0.992963,-0.034789,-0.007950,0.001904,17.232092,-5.024851,5.855858,,,,,,,
1512180649.466254,0.106320,-0.053155,0.253202,0.025988,0.020837,-0.203402,0.105970,0.053130,-0.992949,-0.033292,0.002565,-0.008546,17.231558,-5.174845,6.155785,,,,,,,
1512180649.486243,0.106425,-0.053187,0.249086,0.017456,0.016558,-0.202470,0.106074,0.053161,-0.992936,-0.053874,-0.004364,0.007905,17.083029,-4.800074,5.707237,,,,,,,
1512180649.506263,0.106538,-0.053153,0.244979,0.028137,0.016572,-0.204450,0.106187,0.053128,-0.992926,-0.023896,0.003314,-0.015238,17.082312,-5.025064,6.307121,,,,,,,
1512180649.526252,0.106581,-0.053147,0.240876,0.022802,0.010153,-0.204550,0.106229,0.053122,-0.992922,-0.021223,-0.007239,0.014253,17.307577,-4.949732,6.155251,,,,,,,
1512180649.546241,0.106681,-0.053159,0.236782,0.023837,0.017628,-0.202378,0.106328,0.053134,-0.992910,-0.038701,-0.000888,0.003256,17.233511,-4.724848,6.005989,,,,,,,
1512180649.566260,0.106690,-0.053158,0.232690,0.022756,0.014422,-0.201337,0.106337,0.053133,-0.992910,-0.049391,-0.006227,-0.015422,17.459570,-4.499506,6.079185,,,,,,,
1512180649.586220,0.106635,-0.053127,0.228601,0.023923,0.004824,-0.207749,0.106282,0.053102,-0.992917,-0.008809,0.000853,0.011777,17.082876,-4.875071,6.082191,,,,,,,
1512180649.606209,0.106555,-0.053089,0.224552,0.022765,0.006945,-0.202430,0.106203,0.053064,-0.992927,-0.032519,-0.012293,0.006279,17.308325,-4.799738,6.305321,,,,,,,
1512180649.626229,0.106377,-0.053082,0.220463,0.024902,0.005884,-0.202401,0.106027,0.053057,-0.992947,-0.038843,0.009443,-0.000111,16.936132,-4.200281,6.533775,,,,,,,
1512180649.646218,0.106221,-0.053051,0.216379,0.022789,0.001612,-0.203511,0.105872,0.053026,-0.992965,-0.016990,-0.007113,0.000472,16.935690,-4.275293,6.308739,,,,,,,
1512180649.666207,0.106010,-0.053016,0.212300,0.027028,0.005884,-0.202371,0.105663,0.052991,-0.992989,-0.035335,-0.002652,-0.013664,16.785162,-4.425516,6.609947,,,,,,,
1512180649.686196,0.105776,-0.053022,0.208192,0.018516,0.000532,-0.203580,0.105431,0.052997,-0.993013,-0.034386,-0.000751,0.002443,16.784979,-4.500513,6.909920,,,,,,,
1512180649.706215,0.105605,-0.053040,0.204101,0.022767,0.001600,-0.203517,0.105261,0.053015,-0.993030,-0.015158,0.009790,-0.015972,17.009787,-4.500177,6.532997,,,,,,,
1512180649.726204,0.105474,-0.053059,0.200038,0.019558,0.006942,-0.201408,0.105131,0.053034,-0.993043,-0.022535,-0.007074,-0.018782,16.635534,-4.350733,6.686256,,,,,,,
1512180649.746193,0.105414,-0.053097,0.195993,0.020569,0.010140,-0.198185,0.105071,0.053072,-0.993048,-0.036727,0.010634,0.003668,17.164328,-3.524942,6.832176,,,,,,,
1512180649.766213,0.105359,-0.053154,0.191965,0.020556,0.011208,-0.197115,0.105016,0.053129,-0.993050,-0.036275,-0.012571,-0.005607,16.939367,-3.525278,6.909096,,,,,,,
1512180649.786202,0.105335,-0.053168,0.187982,0.021640,0.004798,-0.199257,0.104992,0.053143,-0.993052,0.001682,-0.002088,-0.000127,16.712332,-3.975626,6.910789,,,,,,,
1512180649.806191,0.105267,-0.053148,0.184049,0.022627,0.011200,-0.193889,0.104925,0.053122,-0.993060,-0.025259,-0.005500,-0.002744,16.864248,-3.600397,7.359688,,,,,,,
1512180649.826210,0.105101,-0.053130,0.180105,0.023667,0.002661,-0.191767,0.104760,0.053105,-0.993079,-0.032143,-0.004536,0.011542,16.785315,-4.425516,6.909950,,,,,,,
1512180649.846199,0.104825,-0.053026,0.176191,0.025797,-0.008022,-0.192842,0.104486,0.053001,-0.993113,-0.010782,-0.010551,0.019938,16.639593,-3.525736,7.361641,,,,,,,
1512180649.866188,0.104515,-0.052903,0.172303,0.030059,-0.004813,-0.192771,0.104178,0.052878,-0.993152,-0.002845,-0.004020,-0.001080,16.867331,-2.925394,7.435005,,,,,,,
1512180649.886177,0.104173,-0.052743,0.168448,0.027855,-0.006961,-0.188546,0.103840,0.052719,-0.993196,-0.016819,-0.015121,0.011140,16.791693,-3.075510,7.510567,,,,,,,
1512180649.906197,0.103758,-0.052559,0.164558,0.032144,-0.008016,-0.189551,0.103429,0.052535,-0.993248,-0.017354,-0.003906,-0.007316,16.865606,-3.300394,7.359825,,,,,,,
1512180649.926186,0.103441,-0.052401,0.160705,0.027869,-0.003758,-0.189602,0.103115,0.052377,-0.993289,-0.012996,-0.009622,-0.000393,16.791723,-3.075510,7.585579,,,,,,,
1512180649.946175,0.103083,-0.052276,0.156908,0.023612,-0.009100,-0.189680,0.102760,0.052252,-0.993333,-0.016487,-0.019018,-0.003844,16.940939,-3.225275,7.359230,,,,,,,
1512180649.966195,0.102722,-0.052181,0.153086,0.023598,-0.005896,-0.188602,0.102402,0.052157,-0.993375,-0.025741,-0.013323,0.002881,17.245108,-2.324823,7.582100,,,,,,,
1512180649.986184,0.102371,-0.052152,0.149303,0.021422,-0.008045,-0.186511,0.102054,0.052128,-0.993412,-0.026797,-0.012318,-0.000759,17.017370,-2.925165,7.508736,,,,,,,
1512180650.006173,0.101985,-0.052101,0.145562,0.023543,-0.006972,-0.185409,0.101670,0.052077,-0.993454,-0.037904,-0.009261,-0.029877,16.944052,-2.550272,7.509544,,,,,,,
1512180650.026192,0.101623,-0.052101,0.141819,0.015014,-0.009122,-0.185540,0.101310,0.052077,-0.993491,-0.035209,-0.021361,0.024253,16.944159,-2.550272,7.734535,,,,,,,
1512180650.046181,0.101264,-0.052131,0.138079,0.017134,-0.005914,-0.184431,0.100954,0.052107,-0.993526,-0.056520,-0.014982,-0.009175,17.018835,-2.625162,7.733864,,,,,,,
1512180650.066170,0.100994,-0.052162,0.134386,0.017167,-0.003775,-0.186557,0.100685,0.052138,-0.993551,-0.011650,-0.016448,-0.008204,17.094198,-2.550058,7.808266,,,,,,,
1512180650.086159,0.100765,-0.052206,0.130696,0.014935,0.000482,-0.180177,0.100458,0.052183,-0.993572,-0.051340,-0.020704,0.003597,17.097204,-1.875055,7.733574,,,,,,,
1512180650.106179,0.100530,-0.052242,0.126973,0.016031,-0.000582,-0.182298,0.100224,0.052218,-0.993594,-0.056630,-0.028094,0.013995,17.095922,-2.175043,7.883430,,,,,,,
1512180650.126168,0.100404,-0.052281,0.123256,0.018254,0.001569,-0.187589,0.100098,0.052257,-0.993604,-0.025788,-0.016796,-0.018374,17.322912,-1.724710,7.806725,,,,,,,
1512180650.146157,0.100328,-0.052367,0.119560,0.012882,0.005824,-0.185522,0.100023,0.052343,-0.993607,-0.034029,-0.032308,0.000474,16.947500,-1.800272,7.659889,,,,,,,
1512180650.166176,0.100325,-0.052346,0.115854,0.018171,0.007968,-0.182237,0.100020,0.052322,-0.993609,-0.061522,-0.021851,0.012240,17.095251,-2.325052,7.883354,,,,,,,
1512180650.186165,0.100245,-0.052471,0.112177,0.009664,0.003687,-0.183440,0.099939,0.052446,-0.993610,-0.044153,-0.031969,0.013721,17.173361,-1.649927,8.033043,,,,,,,
1512180650.206154,0.100223,-0.052530,0.108522,0.017105,0.013305,-0.182235,0.099917,0.052506,-0.993609,-0.042635,-0.032227,-0.003797,17.698675,-1.574152,7.953606,,,,,,,
1512180650.226174,0.100233,-0.052673,0.104857,0.009633,0.013295,-0.181276,0.099926,0.052649,-0.993601,-0.045223,-0.016043,0.004450,17.624716,-1.349253,8.029350,,,,,,,
1512180650.246163,0.100389,-0.052831,0.101242,0.009668,0.017570,-0.183393,0.100081,0.052806,-0.993577,-0.018172,-0.039135,0.011888,17.624487,-1.424250,8.254311,,,,,,,
1512180650.266152,0.100597,-0.053012,0.097646,0.012804,0.025046,-0.179057,0.100287,0.052987,-0.993547,-0.032309,-0.032906,-0.017577,18.000799,-1.123697,8.176262,,,,,,,
1512180650.286141,0.100826,-0.053196,0.094013,0.003162,0.020755,-0.176012,0.100513,0.053171,-0.993514,-0.051120,-0.030023,0.017424,18.073446,-1.648584,8.175392,,,,,,,
1512180650.306160,0.101074,-0.053363,0.090426,0.012799,0.023975,-0.179062,0.100759,0.053338,-0.993480,-0.052465,-0.027200,-0.006261,18.227713,-0.673349,7.949562,,,,,,,
1512180650.326149,0.101345,-0.053535,0.086899,0.005419,0.018632,-0.184518,0.101027,0.053510,-0.993444,0.004061,-0.037381,0.010183,18.075323,-1.198587,7.875587,,,,,,,
1512180650.346138,0.101608,-0.053700,0.083425,0.009452,0.025016,-0.170580,0.101287,0.053674,-0.993408,-0.032455,-0.029214,-0.010147,18.450171,-1.273020,8.247368,,,,,,,
1512180650.366158,0.101798,-0.053900,0.079916,0.009408,0.021811,-0.167391,0.101475,0.053873,-0.993378,-0.075062,-0.017008,-0.010345,18.452978,-0.598017,7.797691,,,,,,,
1512180650.386147,0.102029,-0.054063,0.076463,0.004230,0.019683,-0.177070,0.101704,0.054037,-0.993346,-0.019657,-0.030828,0.002669,18.450949,-1.048014,7.797478,,,,,,,
1512180650.406136,0.102354,-0.054250,0.073136,0.010566,0.027164,-0.172686,0.102025,0.054224,-0.993303,-0.000875,-0.039926,-0.034590,19.128439,-0.521997,8.016975,,,,,,,
1512180650.426155,0.102750,-0.054437,0.069814,0.001879,0.022860,-0.163232,0.102417,0.054410,-0.993252,-0.048889,-0.028577,0.017712,18.903204,-0.597345,8.243858,,,,,,,
1512180650.446144,0.103265,-0.054595,0.066468,0.009352,0.036759,-0.163075,0.102928,0.054568,-0.993191,-0.079720,-0.027270,0.008160,19.277533,-0.746775,8.240608,,,,,,,
1512180650.466133,0.103768,-0.054746,0.063175,0.009434,0.034631,-0.168413,0.103427,0.054719,-0.993131,-0.033129,-0.035630,-0.010898,19.278402,-0.521784,7.940712,,,,,,,
1512180650.486122,0.104348,-0.054893,0.059962,0.009401,0.036763,-0.166273,0.104002,0.054866,-0.993063,0.015184,-0.030589,-0.019434,19.052114,-0.822123,8.092476,,,,,,,
1512180650.506142,0.104873,-0.055078,0.056769,0.009186,0.037810,-0.152411,0.104522,0.055051,-0.992998,-0.026626,-0.027402,-0.013335,19.353399,-0.521662,7.940071,,,,,,,
1512180650.526131,0.105374,-0.055203,0.053537,0.007043,0.042072,-0.152431,0.105019,0.055175,-0.992938,-0.071465,-0.030043,0.001010,19.580908,0.003683,8.238396,,,,,,,
1512180650.546120,0.105950,-0.055333,0.050328,0.011459,0.034621,-0.161987,0.105590,0.055304,-0.992871,-0.022323,-0.021064,-0.014820,19.730124,-0.146097,8.012062,,,,,,,
1512180650.566140,0.106701,-0.055437,0.047208,0.010414,0.044233,-0.163036,0.106335,0.055409,-0.992785,0.009769,-0.020420,-0.010007,19.655340,-0.071207,7.787727,,,,,,,
1512180650.586099,0.107576,-0.055492,0.044137,0.013409,0.055962,-0.150159,0.107203,0.055464,-0.992689,-0.051188,-0.016920,0.013059,19.880163,-0.145868,8.085777,,,,,,,
1512180650.606088,0.108527,-0.055486,0.041028,0.017671,0.064517,-0.148999,0.108148,0.055458,-0.992587,-0.066140,-0.016822,-0.026227,19.955496,-0.070765,8.085182,,,,,,,
1512180650.626077,0.109592,-0.055409,0.037965,0.017756,0.061323,-0.154339,0.109205,0.055380,-0.992475,-0.016736,-0.018210,-0.011416,20.481436,0.155035,7.930824,,,,,,,
1512180650.646096,0.110690,-0.055336,0.035021,0.020829,0.060244,-0.146836,0.110295,0.055308,-0.992359,0.005550,-0.000513,-0.025997,20.558279,0.530142,8.230354,,,,,,,
1512180650.666085,0.111635,-0.055346,0.032057,0.014354,0.054882,-0.142686,0.111233,0.055317,-0.992254,-0.051647,-0.016026,0.003194,20.780462,-0.069529,8.003166,,,,,,,
1512180650.686074,0.112518,-0.055287,0.029081,0.018688,0.052762,-0.146894,0.112109,0.055259,-0.992158,-0.054080,-0.013984,-0.006911,20.782415,0.380484,7.853371,,,,,,,
1512180650.706095,0.113333,-0.055273,0.026173,0.018753,0.043158,-0.151191,0.112918,0.055245,-0.992067,0.015179,-0.006081,-0.014402,20.782751,0.455481,7.853401,,,,,,,
1512180650.726084,0.114114,-0.055241,0.023348,0.017529,0.044204,-0.141610,0.113693,0.055213,-0.991981,0.030900,-0.012442,0.006705,21.083502,0.605932,8.000923,,,,,,,
1512180650.746073,0.114764,-0.055261,0.020491,0.018469,0.045257,-0.134132,0.114337,0.055233,-0.991905,-0.055224,-0.011501,-0.014946,21.456335,0.156485,7.697533,,,,,,,
1512180650.766091,0.115354,-0.055267,0.017616,0.011144,0.033515,-0.142806,0.114922,0.055239,-0.991837,-0.005990,-0.019625,0.027421,21.757162,0.306936,7.995049,,,,,,,
1512180650.786080,0.115918,-0.055244,0.014834,0.017575,0.029259,-0.144859,0.115482,0.055216,-0.991774,0.046688,-0.009013,0.004347,21.608953,0.756720,7.546547,,,,,,,
1512180650.806069,0.116374,-0.055267,0.012158,0.010969,0.028155,-0.132166,0.115934,0.055238,-0.991720,0.011660,-0.016420,0.017614,21.453558,-0.443506,7.547264,,,,,,,
1512180650.826058,0.116866,-0.055312,0.009469,0.009829,0.031347,-0.127908,0.116422,0.055284,-0.991660,-0.022260,-0.007463,0.019965,21.603857,-0.368296,7.471016,,,,,,,
1512180650.846078,0.117267,-0.055327,0.006825,0.014096,0.023873,-0.128941,0.116820,0.055299,-0.991612,-0.005415,-0.005479,0.008504,22.134405,0.832510,7.767113,,,,,,,
1512180650.866067,0.117548,-0.055385,0.004281,0.011935,0.018530,-0.126856,0.117098,0.055356,-0.991576,-0.002794,0.001788,0.009490,22.208319,0.607611,7.616371,,,,,,,
1512180650.886056,0.117806,-0.055495,0.001779,0.004415,0.015306,-0.123779,0.117353,0.055467,-0.991540,0.005587,-0.008882,0.034661,22.507833,0.533072,7.313789,,,,,,,
1512180650.906075,0.118022,-0.055611,-0.000694,0.009696,0.019581,-0.120489,0.117566,0.055582,-0.991508,-0.019132,0.005484,-0.004463,22.583136,0.608175,7.238182,,,,,,,
1512180650.926064,0.118286,-0.055738,-0.003118,0.010773,0.021724,-0.120463,0.117827,0.055709,-0.991470,-0.029570,0.008042,-0.008545,22.809484,0.908514,7.236412,,,,,,,
1512180650.946054,0.118498,-0.055903,-0.005497,0.007555,0.016369,-0.120533,0.118037,0.055874,-0.991436,0.003225,0.010166,-0.030704,22.881826,0.308630,7.310493,,,,,,,
1512180650.966074,0.118672,-0.056096,-0.007861,0.003269,0.015298,-0.118463,0.118207,0.056067,-0.991405,-0.016584,0.014765,-0.007176,22.807760,0.533514,7.161247,,,,,,,
1512180650.986063,0.118844,-0.056310,-0.010245,0.003226,0.014221,-0.116338,0.118377,0.056280,-0.991373,-0.026198,0.017725,-0.010764,23.109076,0.833975,7.083824,,,,,,,
1512180651.006052,0.119026,-0.056563,-0.012641,-0.002030,0.011020,-0.120688,0.118556,0.056533,-0.991337,-0.006922,0.012559,0.008503,23.183996,0.834082,6.933189,,,,,,,
1512180651.026041,0.119203,-0.056853,-0.015041,0.000108,0.020637,-0.120623,0.118729,0.056822,-0.991299,-0.010544,0.016008,-0.021548,23.107275,0.458960,6.858650,,,,,,,
1512180651.046061,0.119254,-0.057177,-0.017416,0.001155,0.009958,-0.119578,0.118777,0.057146,-0.991275,-0.004733,0.023985,-0.022687,23.183661,0.759085,6.933159,,,,,,,
1512180651.066050,0.119360,-0.057527,-0.019776,-0.005273,0.012073,-0.118602,0.118880,0.057495,-0.991243,0.008287,0.012131,-0.003524,23.331594,0.309301,6.856667,,,,,,,
1512180651.086038,0.119498,-0.057882,-0.022089,-0.005402,0.017401,-0.110055,0.119014,0.057849,-0.991206,-0.035442,0.009793,-0.005956,23.558920,0.834646,6.780006,,,,,,,
1512180651.106057,0.119634,-0.058264,-0.024352,-0.005354,0.013134,-0.113267,0.119146,0.058231,-0.991168,-0.010214,0.015500,0.009020,23.557501,0.534643,6.629860,,,,,,,
1512180651.126046,0.119825,-0.058589,-0.026522,-0.000076,0.014204,-0.109989,0.119334,0.058556,-0.991126,0.013540,0.007682,-0.010369,23.634069,0.909765,6.404411,,,,,,,
1512180651.146035,0.120031,-0.058904,-0.028628,-0.004426,0.017391,-0.104711,0.119535,0.058869,-0.991083,-0.028058,0.006759,0.018885,23.783316,0.759985,6.253059,,,,,,,
1512180651.166055,0.120183,-0.059200,-0.030670,-0.004497,0.014179,-0.100458,0.119684,0.059165,-0.991048,-0.031153,0.007440,0.019780,23.784109,0.909979,6.478127,,,,,,,
1512180651.186044,0.120293,-0.059481,-0.032625,0.000799,0.008845,-0.098266,0.119790,0.059446,-0.991018,0.002463,0.015047,-0.001139,23.558920,0.909643,6.105034,,,,,,,
1512180651.206033,0.120328,-0.059732,-0.034491,-0.000316,0.004561,-0.096168,0.119824,0.059697,-0.990999,0.007282,0.008937,0.000368,23.559591,1.059652,6.105110,,,,,,,
1512180651.226022,0.120277,-0.059950,-0.036346,0.001729,0.001351,-0.090818,0.119771,0.059914,-0.990992,-0.010198,0.003792,0.015177,23.410223,1.209417,6.031456,,,,,,,
1512180651.246042,0.120118,-0.060130,-0.038218,-0.000367,-0.001851,-0.092991,0.119613,0.060094,-0.991000,-0.009841,0.001857,0.034183,23.634115,0.984762,5.804436,,,,,,,
1512180651.266031,0.119886,-0.060361,-0.040052,0.000712,-0.008257,-0.094064,0.119381,0.060324,-0.991014,0.003498,0.007272,0.021745,23.483877,0.909536,6.030678,,,,,,,
1512180651.286020,0.119643,-0.060544,-0.041849,0.000742,-0.011459,-0.096207,0.119139,0.060507,-0.991032,0.052630,0.010583,0.012562,23.635122,1.209753,5.804543,,,,,,,
1512180651.306040,0.119297,-0.060760,-0.043666,-0.002588,-0.011483,-0.088796,0.118795,0.060723,-0.991060,-0.002782,0.005653,0.024370,23.483541,0.909536,5.355690,,,,,,,
1512180651.326028,0.118794,-0.060923,-0.045484,0.001652,-0.021085,-0.086631,0.118295,0.060886,-0.991110,-0.000451,0.008191,0.015677,23.411322,1.509420,5.506599,,,,,,,
1512180651.346017,0.118155,-0.061101,-0.047248,-0.000452,-0.029630,-0.088823,0.117660,0.061063,-0.991175,0.025025,0.018771,0.017130,23.334555,1.134314,5.357063,,,,,,,
1512180651.366036,0.117473,-0.061207,-0.048984,0.006910,-0.024296,-0.083372,0.116984,0.061169,-0.991248,0.000143,0.008488,-0.015862,23.635489,1.359762,5.204613,,,,,,,
1512180651.386025,0.116744,-0.061372,-0.050622,0.002575,-0.033922,-0.079202,0.116260,0.061333,-0.991323,-0.005603,0.026603,-0.008555,23.259604,1.134192,5.432701,,,,,,,
1512180651.406014,0.116005,-0.061459,-0.052251,0.002591,-0.032853,-0.080265,0.115526,0.061420,-0.991404,-0.015718,0.024044,-0.000128,23.335913,1.434317,5.357201,,,,,,,
1512180651.426003,0.115276,-0.061549,-0.053783,0.006831,-0.028573,-0.078054,0.114803,0.061510,-0.991482,-0.001552,0.026945,-0.018818,23.183737,0.984076,5.058266,,,,,,,
1512180651.446023,0.114603,-0.061629,-0.055259,0.002486,-0.028594,-0.073856,0.114135,0.061590,-0.991554,-0.020843,0.016504,0.011848,22.809561,1.133520,5.361519,,,,,,,
1512180651.466012,0.113988,-0.061668,-0.056683,0.004575,-0.024321,-0.070611,0.113525,0.061629,-0.991622,-0.026031,0.013841,-0.007173,22.656301,0.458288,4.912483,,,,,,,
1512180651.486001,0.113386,-0.061710,-0.058113,0.005596,-0.024329,-0.068467,0.112928,0.061671,-0.991687,-0.029218,0.014257,0.000873,22.581778,0.533178,5.213158,,,,,,,
1512180651.506021,0.112895,-0.061789,-0.059461,0.003488,-0.021123,-0.069551,0.112440,0.061749,-0.991738,-0.022505,0.017383,-0.007255,23.334661,1.209311,4.907097,,,,,,,
1512180651.526010,0.112464,-0.061828,-0.060799,0.007715,-0.018986,-0.067351,0.112013,0.061788,-0.991784,-0.014799,0.027094,-0.005866,22.583654,0.983175,4.913368,,,,,,,
1512180651.545999,0.112049,-0.061923,-0.062121,0.004505,-0.014720,-0.066316,0.111600,0.061884,-0.991824,-0.021528,0.019659,-0.000348,22.510687,1.433065,4.914223,,,,,,,
1512180651.566018,0.111688,-0.061940,-0.063463,0.008721,-0.012581,-0.063048,0.111242,0.061900,-0.991864,-0.049276,0.032109,-0.011936,22.734625,1.208410,4.837196,,,,,,,
1512180651.585993,0.111406,-0.061978,-0.064806,0.001365,-0.012580,-0.069551,0.110962,0.061939,-0.991893,-0.018067,0.015897,0.022166,22.282522,0.757727,4.690804,,,,,,,
1512180651.605982,0.111157,-0.062012,-0.066112,0.008755,-0.002960,-0.064078,0.110715,0.061972,-0.991918,-0.000470,0.013819,-0.028437,22.585089,1.283178,5.063499,,,,,,,
1512180651.625971,0.110955,-0.061981,-0.067408,0.007639,-0.008313,-0.061983,0.110515,0.061941,-0.991942,-0.013423,0.008860,0.003036,22.584707,1.208181,4.988472,,,,,,,
1512180651.645991,0.110720,-0.061920,-0.068720,0.008720,-0.009378,-0.063038,0.110282,0.061881,-0.991972,-0.024741,0.012323,0.009215,22.358770,0.982840,5.140282,,,,,,,
1512180651.665980,0.110504,-0.061918,-0.070055,0.007688,-0.007234,-0.064108,0.110068,0.061879,-0.991996,0.011773,0.001125,0.011024,22.360052,1.282843,4.990425,,,,,,,
1512180651.685969,0.110395,-0.061816,-0.071291,0.008649,-0.001913,-0.058751,0.109960,0.061777,-0.992014,-0.007742,-0.015375,0.003641,22.285269,1.357733,4.766090,,,,,,,
1512180651.705988,0.110243,-0.061776,-0.072530,0.010795,0.001294,-0.059776,0.109810,0.061736,-0.992033,-0.017281,-0.020416,-0.015504,22.286428,1.582739,5.066185,,,,,,,
1512180651.725977,0.109999,-0.061726,-0.073709,0.007583,-0.011524,-0.058797,0.109568,0.061686,-0.992063,0.001210,-0.062892,0.019834,22.061056,1.507391,4.993065,,,,,,,
1512180651.745966,0.109818,-0.061555,-0.074833,0.013931,-0.002976,-0.055478,0.109389,0.061516,-0.992094,-0.015151,-0.061227,0.001813,22.136099,1.507513,5.067436,,,,,,,
1512180651.765986,0.109596,-0.061368,-0.075942,0.016007,-0.008319,-0.052268,0.109171,0.061330,-0.992129,-0.005747,-0.060078,0.006625,22.062597,1.882391,4.693245,,,,,,,
1512180651.785975,0.109265,-0.061096,-0.077031,0.020248,-0.017927,-0.051173,0.108844,0.061058,-0.992182,0.002408,-0.070320,0.021403,21.912024,1.732168,4.919456,,,,,,,
1512180651.805964,0.108945,-0.060768,-0.078037,0.020250,-0.012587,-0.051155,0.108529,0.060730,-0.992236,0.003837,-0.076020,-0.003384,21.233206,0.906164,4.699806,,,,,,,
1512180651.825953,0.108638,-0.060426,-0.079076,0.026596,-0.010446,-0.047857,0.108226,0.060389,-0.992290,0.008656,-0.057368,-0.012486,21.083349,0.905935,5.001076,,,,,,,
1512180651.845972,0.108266,-0.060073,-0.080085,0.022254,-0.016872,-0.043679,0.107860,0.060037,-0.992352,0.004262,-0.049967,-0.004200,21.311834,1.656271,5.224510,,,,,,,
1512180651.865961,0.107808,-0.059702,-0.081066,0.022251,-0.017942,-0.043683,0.107408,0.059666,-0.992423,-0.008546,-0.053517,0.002479,21.235449,1.356161,5.150017,,,,,,,
1512180651.885950,0.107423,-0.059438,-0.082011,0.022307,-0.012595,-0.046862,0.107028,0.059403,-0.992480,0.010450,-0.054901,-0.018857,20.637548,1.805258,5.305321,,,,,,,
1512180651.905970,0.107193,-0.059176,-0.082823,0.011540,-0.006212,-0.039531,0.106801,0.059142,-0.992520,-0.003362,-0.049590,0.005810,20.338217,1.954809,5.307945,,,,,,,
1512180651.925959,0.107089,-0.058955,-0.083522,0.010382,-0.003023,-0.034208,0.106699,0.058921,-0.992544,-0.006372,-0.040610,0.017736,20.113607,2.029470,5.384895,,,,,,,
1512180651.945948,0.107077,-0.058826,-0.084169,0.010303,-0.003029,-0.028877,0.106688,0.058792,-0.992553,0.031557,-0.026031,0.008132,19.813681,2.029028,5.537437,,,,,,,
1512180651.965967,0.107160,-0.058737,-0.084694,0.001606,0.010821,-0.018295,0.106771,0.058703,-0.992549,-0.027959,-0.050677,0.022014,19.589682,2.253683,5.539452,,,,,,,
1512180651.985956,0.107317,-0.058647,-0.085171,0.003730,0.008684,-0.018273,0.106927,0.058613,-0.992538,-0.025811,-0.021077,0.029144,19.139837,2.253012,5.843269,,,,,,,
1512180652.005945,0.107563,-0.058683,-0.085462,-0.002644,0.004407,-0.019445,0.107171,0.058649,-0.992509,0.033713,-0.032969,0.011293,18.914541,2.177679,5.920158,,,,,,,
1512180652.025934,0.107854,-0.058677,-0.085615,-0.002789,0.012930,-0.010892,0.107460,0.058643,-0.992478,0.026420,-0.042484,0.006989,18.912130,1.577673,6.519875,,,,,,,
1512180652.045954,0.108020,-0.058755,-0.085734,-0.005085,0.012912,-0.000262,0.107624,0.058722,-0.992456,0.006496,-0.002798,0.006723,18.465200,2.252005,6.599007,,,,,,,
1512180652.065943,0.108189,-0.058821,-0.085758,-0.004058,0.006500,0.001863,0.107791,0.058787,-0.992434,0.017468,-0.017756,0.011965,18.087957,1.726431,6.826958,,,,,,,
1512180652.085932,0.108506,-0.058821,-0.085669,-0.000874,0.019319,0.003019,0.108106,0.058787,-0.992400,0.059650,-0.025019,0.007231,18.166296,2.476553,6.751656,,,,,,,
1512180652.105952,0.108735,-0.058889,-0.085521,-0.001049,0.020365,0.013680,0.108333,0.058855,-0.992371,-0.002544,-0.005876,0.009415,18.240240,2.251669,6.675926,,,,,,,
1512180652.125941,0.109006,-0.058884,-0.085332,-0.000987,0.013963,0.009394,0.108601,0.058850,-0.992342,0.016215,-0.003155,0.007982,17.938192,1.726217,7.278221,,,,,,,
1512180652.145930,0.109376,-0.058889,-0.085039,0.001180,0.016106,0.007300,0.108969,0.058855,-0.992301,0.075693,0.000166,-0.031777,17.637915,1.725760,6.755775,,,,,,,
1512180652.165919,0.109637,-0.058950,-0.084661,-0.009745,0.006446,0.023100,0.109227,0.058916,-0.992269,0.016887,-0.005495,0.035208,17.567495,2.700659,7.131859,,,,,,,
1512180652.185938,0.109852,-0.059008,-0.084282,-0.004450,0.007519,0.025313,0.109440,0.058974,-0.992242,-0.019184,-0.016203,-0.009970,17.640585,2.250769,7.356010,,,,,,,
1512180652.205927,0.110074,-0.059093,-0.083795,-0.007571,0.005383,0.019927,0.109660,0.059059,-0.992213,0.046971,-0.009636,-0.015264,17.565573,2.250662,7.356651,,,,,,,
1512180652.225916,0.110294,-0.059183,-0.083222,-0.010916,0.008568,0.029487,0.109877,0.059149,-0.992184,0.020082,-0.011312,0.022762,17.340612,2.250311,7.433571,,,,,,,
1512180652.245936,0.110438,-0.059336,-0.082620,-0.005652,0.008570,0.033829,0.110019,0.059301,-0.992159,0.009106,-0.002080,-0.018339,17.640402,2.175772,7.655983,,,,,,,
1512180652.265925,0.110555,-0.059581,-0.081962,-0.016310,0.000005,0.032575,0.110134,0.059546,-0.992131,0.031788,0.002298,-0.010691,17.567160,2.550665,7.806786,,,,,,,
1512180652.285914,0.110680,-0.059738,-0.081275,-0.014225,0.004276,0.035819,0.110257,0.059703,-0.992108,0.010883,-0.019404,0.010114,17.642599,2.625769,8.031181,,,,,,,
1512180652.305933,0.110769,-0.059990,-0.080552,-0.014202,-0.001058,0.034737,0.110344,0.059954,-0.992084,0.011345,-0.012270,-0.009625,17.566290,2.325659,8.106682,,,,,,,
1512180652.325922,0.111026,-0.060228,-0.079803,-0.020623,0.010678,0.036817,0.110597,0.060191,-0.992041,0.017592,-0.013331,0.026724,17.490835,2.250540,7.882286,,,,,,,
1512180652.345911,0.111266,-0.060436,-0.079036,-0.012142,0.014959,0.040154,0.110834,0.060400,-0.992002,-0.016184,-0.006155,-0.011340,17.643957,2.925772,8.031319,,,,,,,
1512180652.365900,0.111614,-0.060662,-0.078282,-0.012119,0.010686,0.038005,0.111178,0.060625,-0.991950,0.015531,0.008025,-0.004297,17.566961,2.475653,8.106743,,,,,,,
1512180652.385920,0.112058,-0.060887,-0.077501,-0.019614,0.018146,0.040054,0.111616,0.060849,-0.991887,-0.005018,-0.010785,0.003590,17.643057,2.700766,8.256218,,,,,,,
1512180652.405909,0.112550,-0.061062,-0.076708,-0.010015,0.028841,0.040230,0.112103,0.061025,-0.991821,-0.011319,-0.026250,-0.028992,17.416403,2.325430,8.332970,,,,,,,
1512180652.425898,0.113061,-0.061214,-0.075881,-0.013184,0.022431,0.038029,0.112608,0.061176,-0.991754,0.018419,-0.005222,0.000437,17.418463,2.775442,8.408165,,,,,,,
1512180652.445917,0.113688,-0.061324,-0.075045,-0.011146,0.033105,0.044493,0.113230,0.061285,-0.991677,-0.023127,-0.009054,0.014077,17.716070,2.250875,8.330376,,,,,,,
1512180652.465906,0.114367,-0.061351,-0.074133,-0.004764,0.032047,0.045649,0.113903,0.061313,-0.991598,-0.001950,-0.027789,-0.010523,17.340200,2.025320,8.633461,,,,,,,
1512180652.485895,0.115103,-0.061330,-0.073177,-0.003776,0.032036,0.049926,0.114633,0.061291,-0.991515,0.012839,-0.011425,-0.006196,17.716406,2.325888,8.330406,,,,,,,
1512180652.505915,0.115869,-0.061250,-0.072155,-0.001667,0.046991,0.052141,0.115394,0.061212,-0.991432,-0.035132,-0.029428,-0.010948,17.942114,2.476217,8.403572,,,,,,,
1512180652.525904,0.116722,-0.061072,-0.071135,0.002619,0.042731,0.051124,0.116240,0.061034,-0.991344,0.015550,-0.022154,-0.001454,17.942190,2.476217,8.553566,,,,,,,
1512180652.545893,0.117824,-0.060902,-0.069983,0.003597,0.054468,0.056507,0.117334,0.060864,-0.991226,0.033026,-0.032452,-0.003968,18.167196,2.476553,8.551659,,,,,,,
1512180652.565882,0.119097,-0.060616,-0.068752,0.007701,0.070478,0.067284,0.118598,0.060578,-0.991093,-0.040534,-0.033921,-0.010845,18.467199,2.477011,8.549110,,,,,,,
1512180652.585870,0.120451,-0.060335,-0.067492,0.010983,0.061950,0.061973,0.119942,0.060298,-0.990948,0.022392,-0.029704,-0.005832,18.465994,2.252005,8.174004,,,,,,,
1512180652.605859,0.121998,-0.060100,-0.066169,0.004530,0.084361,0.066220,0.121476,0.060063,-0.990775,-0.002549,-0.058034,-0.003731,18.843649,2.777578,8.771049,,,,,,,
1512180652.625849,0.123486,-0.059771,-0.064861,0.008713,0.074744,0.070511,0.122952,0.059736,-0.990613,0.005191,-0.040922,0.014295,19.067389,2.477911,8.918999,,,,,,,
1512180652.645868,0.124910,-0.059478,-0.063489,0.009821,0.063008,0.068358,0.124365,0.059443,-0.990454,0.013682,-0.059336,-0.011300,19.139868,1.953009,8.618126,,,,,,,
1512180652.665857,0.126301,-0.059208,-0.062047,0.005551,0.062998,0.068294,0.125744,0.059173,-0.990296,0.040348,-0.078063,-0.011291,19.140738,2.103018,8.993187,,,,,,,
1512180652.685846,0.127660,-0.058941,-0.060567,0.003217,0.067237,0.079999,0.127092,0.058906,-0.990140,0.012098,-0.065925,0.009824,18.990515,2.027792,9.219429,,,,,,,
1512180652.705866,0.128996,-0.058668,-0.059085,0.002186,0.054426,0.077809,0.128417,0.058635,-0.989985,0.036027,-0.081019,0.015895,19.590399,2.028692,8.989326,,,,,,,
1512180652.725855,0.130378,-0.058386,-0.057515,-0.002050,0.054420,0.075614,0.129787,0.058353,-0.989823,0.069065,-0.108814,0.030595,19.665396,2.028799,8.988701,,,,,,,
1512180652.745844,0.131668,-0.058058,-0.055940,0.002108,0.059753,0.082088,0.131066,0.058026,-0.989674,0.051291,-0.111660,0.024830,19.890280,2.029135,8.761787,,,,,,,
1512180652.765833,0.132764,-0.057846,-0.054398,0.000013,0.046942,0.079884,0.132153,0.057814,-0.989542,0.037601,-0.100706,0.020121,19.891516,2.254141,9.211891,,,,,,,
1512180652.785852,0.133619,-0.057684,-0.053032,-0.002799,0.029891,0.055263,0.133000,0.057652,-0.989438,0.065318,-0.069279,0.015652,19.889578,1.879141,8.686714,,,,,,,
1512180652.805841,0.134093,-0.057755,-0.052936,-0.004165,0.018357,-0.056735,0.133469,0.057723,-0.989371,0.056259,-0.081283,0.003744,19.963263,1.579245,8.760933,,,,,,,
1512180652.825830,0.134285,-0.058121,-0.054803,-0.008052,0.007847,-0.144242,0.133656,0.058088,-0.989324,0.035900,-0.074171,0.031881,20.416082,2.179937,8.982384,,,,,,,
1512180652.845850,0.134150,-0.058884,-0.059176,-0.011771,0.003760,-0.242389,0.133516,0.058850,-0.989298,0.018995,-0.072613,-0.017126,20.267385,2.479712,8.908806,,,,,,,
1512180652.865839,0.133698,-0.060021,-0.066074,-0.011282,-0.001264,-0.401241,0.133060,0.059985,-0.989291,0.050153,-0.075396,-0.031995,20.417089,2.404928,8.982491,,,,,,,
1512180652.885828,0.133044,-0.061506,-0.074734,-0.013170,-0.005384,-0.481238,0.132401,0.061467,-0.989288,0.045592,-0.078984,0.021744,20.342306,2.479818,8.758171,,,,,,,
1512180652.905847,0.132920,-0.061599,-0.071119,-0.022732,-0.036449,0.097387,0.132277,0.061561,-0.989299,-0.082823,-0.048804,-0.021641,20.490255,2.030035,8.681694,,,,,,,
1512180652.925836,0.132933,-0.061996,-0.069918,-0.034184,-0.011746,0.016282,0.132288,0.061957,-0.989273,0.059256,-0.087042,0.028992,20.717993,2.630377,8.755043,,,,,,,
1512180652.945825,0.132830,-0.062280,-0.067412,-0.038021,-0.013017,0.120700,0.132183,0.062239,-0.989269,0.029713,-0.116652,0.039440,20.568289,2.705160,8.681358,,,,,,,
1512180652.965814,0.132692,-0.062657,-0.065024,-0.033740,-0.016219,0.118615,0.132043,0.062616,-0.989264,0.021536,-0.100808,-0.006219,20.568319,2.705160,8.756355,,,,,,,
1512180652.985834,0.132578,-0.063015,-0.062603,-0.027238,-0.011917,0.113398,0.131928,0.062973,-0.989257,0.066406,-0.088135,-0.032288,20.868261,2.705603,8.603813,,,,,,,
1512180653.005823,0.132266,-0.063394,-0.060135,-0.032696,-0.016214,0.120766,0.131616,0.063352,-0.989274,0.026587,-0.096097,-0.037795,20.493444,2.705053,8.982002,,,,,,,
1512180653.025812,0.131767,-0.063743,-0.057762,-0.035932,-0.039723,0.121702,0.131119,0.063700,-0.989318,0.001205,-0.095331,-0.003816,20.641973,2.405264,8.755577,,,,,,,
1512180653.045831,0.131189,-0.064121,-0.055438,-0.035776,-0.043977,0.112095,0.130545,0.064077,-0.989370,0.046091,-0.090551,-0.000621,20.567648,2.555151,8.756294,,,,,,,
1512180653.065820,0.130685,-0.064437,-0.053049,-0.035732,-0.026883,0.110023,0.130043,0.064393,-0.989415,0.035714,-0.098923,-0.005626,20.492422,2.480047,8.981895,,,,,,,
1512180653.085809,0.130327,-0.064735,-0.050652,-0.033753,-0.030107,0.118566,0.129686,0.064690,-0.989443,0.033461,-0.097344,0.021639,20.192572,2.554602,8.609474,,,,,,,
1512180653.105829,0.130182,-0.064955,-0.048215,-0.033789,-0.011945,0.122898,0.129541,0.064909,-0.989447,-0.011941,-0.118132,0.035758,20.565512,2.105154,8.531090,,,,,,,
1512180653.125818,0.130168,-0.065114,-0.045753,-0.023135,-0.000185,0.123090,0.129525,0.065068,-0.989439,-0.009378,-0.107243,0.011686,20.416784,2.404928,8.382500,,,,,,,
1512180653.145807,0.130437,-0.065215,-0.043211,-0.017837,0.009430,0.125332,0.129791,0.065169,-0.989397,0.040024,-0.099425,-0.015806,20.113150,1.579473,8.534660,,,,,,,
1512180653.165796,0.130763,-0.065318,-0.040630,-0.016848,0.022240,0.130721,0.130113,0.065272,-0.989348,-0.017594,-0.095133,-0.030885,20.118399,2.704489,8.910179,,,,,,,
1512180653.185816,0.131154,-0.065412,-0.038046,-0.022154,0.011560,0.129545,0.130498,0.065365,-0.989291,-0.000753,-0.089657,-0.010449,20.342947,2.629812,8.683235,,,,,,,
1512180653.205805,0.131553,-0.065478,-0.035415,-0.022144,0.007287,0.128463,0.130893,0.065431,-0.989235,0.024777,-0.085344,-0.000099,20.565329,2.030157,8.831047,,,,,,,
1512180653.225794,0.131814,-0.065492,-0.032844,-0.018966,-0.003397,0.128469,0.131151,0.065445,-0.989200,0.010024,-0.090592,0.038364,20.338293,1.579809,8.832756,,,,,,,
1512180653.245813,0.132124,-0.065587,-0.030223,-0.024250,0.014757,0.126322,0.131456,0.065540,-0.989153,-0.011736,-0.104785,0.007753,20.335409,0.979803,8.457466,,,,,,,
1512180653.265802,0.132466,-0.065631,-0.027563,-0.027427,-0.000193,0.125162,0.131795,0.065584,-0.989105,0.044841,-0.086336,0.046387,20.638708,1.655264,8.980232,,,,,,,
1512180653.285791,0.132880,-0.065748,-0.024904,-0.026391,0.012621,0.127352,0.132203,0.065701,-0.989043,0.003982,-0.078137,0.029860,20.714911,1.955374,8.679741,,,,,,,
1512180653.305811,0.133346,-0.065828,-0.022245,-0.022110,0.009426,0.126338,0.132663,0.065781,-0.988976,0.023755,-0.092072,0.013771,20.565405,2.030157,8.981041,,,,,,,
1512180653.325800,0.133885,-0.066012,-0.019518,-0.027452,0.019028,0.127359,0.133195,0.065964,-0.988892,0.056334,-0.070435,-0.015716,20.789053,1.730490,8.978996,,,,,,,
1512180653.345789,0.134356,-0.066252,-0.016784,-0.029670,0.021151,0.132665,0.133658,0.066203,-0.988814,0.044000,-0.065807,-0.020845,21.014166,1.805822,8.527122,,,,,,,
1512180653.365778,0.134777,-0.066582,-0.014024,-0.030822,0.010462,0.137944,0.134072,0.066533,-0.988736,0.051643,-0.050740,-0.022235,21.464239,1.806509,8.673302,,,,,,,
1512180653.385797,0.135121,-0.066937,-0.011207,-0.038311,0.004036,0.138877,0.134409,0.066887,-0.988666,0.073111,-0.054329,0.001911,21.313940,1.731283,8.749535,,,,,,,
1512180653.405786,0.135336,-0.067309,-0.008306,-0.039390,0.000831,0.139919,0.134618,0.067258,-0.988612,0.066218,-0.042066,0.023692,21.013006,1.505819,8.901985,,,,,,,
1512180653.425775,0.135431,-0.067715,-0.005338,-0.041605,-0.017340,0.144087,0.134707,0.067664,-0.988572,0.097074,-0.033621,0.008317,21.236242,1.131155,8.749901,,,,,,,
1512180653.445795,0.135578,-0.068108,-0.002264,-0.044861,-0.005601,0.148346,0.134850,0.068055,-0.988526,0.080680,-0.040437,0.035279,21.389318,1.806387,8.823936,,,,,,,
1512180653.465784,0.135770,-0.068503,0.000877,-0.043877,0.002935,0.153720,0.135035,0.068449,-0.988474,0.060659,-0.033796,0.041010,21.387213,1.356390,8.673729,,,,,,,
1512180653.485773,0.136024,-0.068965,0.004186,-0.048278,-0.002433,0.161097,0.135282,0.068910,-0.988408,0.052050,-0.042329,0.045674,22.062246,1.357397,8.742989,,,,,,,
1512180653.505792,0.136444,-0.069432,0.007599,-0.048316,0.006111,0.164327,0.135693,0.069376,-0.988319,0.074588,-0.041986,0.027198,22.062246,1.357397,8.742989,,,,,,,
1512180653.525781,0.136942,-0.069868,0.011095,-0.046277,0.013575,0.169710,0.136182,0.069811,-0.988221,0.096713,-0.018496,0.030412,22.287863,1.507742,8.591148,,,,,,,
1512180653.545770,0.137250,-0.070331,0.014680,-0.042181,0.001812,0.179323,0.136482,0.070273,-0.988147,0.047570,-0.010596,-0.011823,21.988867,1.732290,8.593803,,,,,,,
1512180653.565759,0.137312,-0.070726,0.018315,-0.049688,-0.019572,0.180203,0.136538,0.070667,-0.988111,0.083295,0.007992,0.022596,22.213125,1.582617,8.441811,,,,,,,
1512180653.585756,0.137123,-0.071085,0.021998,-0.047599,-0.030247,0.183399,0.136349,0.071025,-0.988112,0.105823,-0.001597,0.011976,22.438162,1.582968,8.514900,,,,,,,
1512180653.605745,0.136605,-0.071414,0.025702,-0.046606,-0.045212,0.186557,0.135833,0.071354,-0.988159,0.080003,0.013256,-0.019074,22.512518,1.433081,8.589195,,,,,,,
1512180653.625734,0.135695,-0.071758,0.029418,-0.039203,-0.065504,0.188724,0.134931,0.071696,-0.988258,0.034945,0.038534,-0.026971,22.661810,1.283300,8.512856,,,,,,,
1512180653.645753,0.134498,-0.072163,0.033134,-0.045352,-0.080433,0.173661,0.133744,0.072101,-0.988390,0.193038,0.027051,-0.038252,22.436438,1.207952,8.439720,,,,,,,
1512180653.665743,0.133246,-0.072445,0.036983,-0.036000,-0.067632,0.188764,0.132503,0.072382,-0.988536,0.154499,-0.030130,-0.031743,22.511053,1.133078,8.364052,,,,,,,
1512180653.685732,0.131949,-0.072691,0.040842,-0.032026,-0.069799,0.205870,0.131219,0.072627,-0.988690,0.039893,0.000555,-0.042393,22.585760,1.058187,8.438377,,,,,,,
1512180653.705751,0.131087,-0.072938,0.044833,-0.042521,-0.053770,0.197248,0.130364,0.072874,-0.988784,0.098014,0.028887,0.052902,22.888052,1.583639,8.286079,,,,,,,
1512180653.725740,0.130777,-0.073207,0.049015,-0.039413,-0.012119,0.204901,0.130056,0.073142,-0.988805,0.078761,-0.004142,-0.020991,22.959936,0.908743,8.135124,,,,,,,
1512180653.745729,0.131167,-0.073434,0.053253,-0.043866,0.006012,0.217694,0.130439,0.073368,-0.988738,-0.015982,-0.022190,0.044646,22.734335,0.758398,8.286980,,,,,,,
1512180653.765718,0.132227,-0.073583,0.057582,-0.041700,0.033788,0.216755,0.131485,0.073516,-0.988588,-0.025956,-0.016311,0.069933,23.034628,0.833853,8.209450,,,,,,,
1512180653.785738,0.133574,-0.073854,0.062133,-0.043814,0.054075,0.215725,0.132815,0.073787,-0.988391,0.030149,-0.006374,0.011477,23.258886,0.684195,8.057472,,,,,,,
1512180653.805727,0.135115,-0.074182,0.066811,-0.051529,0.056172,0.231613,0.134334,0.074114,-0.988161,-0.034526,-0.010500,0.044588,23.106863,0.233969,8.058540,,,,,,,
1512180653.825716,0.136768,-0.074578,0.071438,-0.050504,0.072190,0.234882,0.135963,0.074509,-0.987908,-0.054465,-0.025024,0.030877,23.406820,0.234411,7.980995,,,,,,,
1512180653.845735,0.138558,-0.074963,0.076120,-0.050427,0.080744,0.230649,0.137727,0.074892,-0.987635,0.025222,-0.009676,0.012186,23.257193,0.309195,8.057304,,,,,,,
1512180653.865724,0.140504,-0.075436,0.080816,-0.052555,0.089285,0.230647,0.139644,0.075364,-0.987330,0.021794,-0.010896,0.015497,23.781225,0.084982,8.127739,,,,,,,
1512180653.885713,0.142535,-0.075936,0.085528,-0.057922,0.081797,0.232676,0.141644,0.075863,-0.987006,0.047947,-0.017086,0.055076,23.854162,-0.364908,8.051888,,,,,,,
1512180653.905733,0.144881,-0.076382,0.090242,-0.056773,0.108509,0.228520,0.143954,0.076308,-0.986638,0.056837,-0.012648,0.054646,23.477987,-0.590479,7.754982,,,,,,,
1512180653.925722,0.147254,-0.076861,0.094901,-0.058895,0.110646,0.228498,0.146290,0.076786,-0.986257,0.025326,-0.000446,0.049200,24.231070,0.085653,7.823906,,,,,,,
1512180653.945711,0.149646,-0.077347,0.099543,-0.058790,0.093567,0.220977,0.148642,0.077270,-0.985868,0.137872,0.019440,0.041638,24.527990,-0.588907,7.746056,,,,,,,
1512180653.965700,0.151971,-0.077887,0.104269,-0.064168,0.094622,0.224101,0.150928,0.077809,-0.985478,0.178830,0.004345,0.020237,24.451605,-0.889017,7.671562,,,,,,,
1512180653.985719,0.154053,-0.078467,0.108953,-0.066492,0.078573,0.234671,0.152972,0.078386,-0.985117,0.072965,-0.007341,0.034296,24.302618,-0.664240,7.672935,,,,,,,
1512180654.005708,0.155869,-0.079133,0.113603,-0.072758,0.064692,0.226003,0.154753,0.079050,-0.984786,0.123369,0.010351,0.032622,24.528296,-0.513895,7.671089,,,,,,,
1512180654.025697,0.157311,-0.079835,0.118355,-0.072768,0.045468,0.225937,0.156164,0.079751,-0.984506,0.206660,0.006858,0.008844,24.226904,-0.814356,7.598503,,,,,,,
1512180654.045717,0.158268,-0.080543,0.123174,-0.076166,0.010192,0.236427,0.157097,0.080456,-0.984300,0.152641,0.007496,0.036531,24.750967,-1.038568,7.743935,,,,,,,
1512180654.065706,0.158852,-0.081252,0.128013,-0.078410,-0.001574,0.242750,0.157663,0.081162,-0.984152,0.113425,0.021377,0.044806,24.751944,-0.813562,7.669044,,,,,,,
1512180654.085695,0.159216,-0.081965,0.132970,-0.076173,-0.005828,0.236372,0.158012,0.081873,-0.984037,0.162911,0.006323,0.037916,24.976126,-0.963236,7.367058,,,,,,,
1512180654.105714,0.159290,-0.082661,0.138038,-0.069907,-0.022921,0.243867,0.158076,0.082567,-0.983969,0.114110,0.011289,0.004934,25.052542,-0.663111,7.516563,,,,,,,
1512180654.125703,0.159171,-0.083278,0.143141,-0.072071,-0.043222,0.244832,0.157951,0.083181,-0.983937,0.142067,0.013788,0.033833,25.049780,-1.263117,7.366280,,,,,,,
1512180654.145692,0.158931,-0.083823,0.148362,-0.070027,-0.033620,0.250223,0.157707,0.083725,-0.983930,0.149239,0.000336,0.027830,24.975744,-1.038233,7.292030,,,,,,,
1512180654.165681,0.158436,-0.084382,0.153599,-0.065922,-0.045385,0.258768,0.157213,0.084282,-0.983962,0.103773,0.013435,0.020339,24.825476,-1.113459,7.443260,,,,,,,
1512180654.185701,0.157962,-0.084827,0.158891,-0.063860,-0.044322,0.263066,0.156741,0.084725,-0.983999,0.077695,0.007164,0.002645,24.899389,-1.338343,7.292519,,,,,,,
1512180654.205690,0.157421,-0.085240,0.164228,-0.064900,-0.053927,0.261955,0.156202,0.085137,-0.984049,0.119295,0.009147,0.027231,25.048498,-1.563120,7.516151,,,,,,,
1512180654.225679,0.156994,-0.085469,0.169576,-0.049007,-0.041097,0.268627,0.155779,0.085365,-0.984096,0.045133,0.047554,-0.021839,24.823828,-1.488459,7.518089,,,,,,,
1512180654.245699,0.156564,-0.085741,0.174897,-0.054292,-0.051788,0.264244,0.155352,0.085636,-0.984140,0.050061,0.041363,0.002634,24.522299,-1.788904,7.145500,,,,,,,
1512180654.265688,0.156287,-0.085759,0.180216,-0.041364,-0.032525,0.257036,0.155080,0.085654,-0.984182,0.032085,0.058999,-0.031932,24.974478,-1.338236,7.441887,,,,,,,
1512180654.285677,0.155969,-0.085822,0.185471,-0.036069,-0.036792,0.259231,0.154766,0.085717,-0.984226,0.015492,0.051872,-0.041913,24.597906,-1.713800,7.669899,,,,,,,
1512180654.305696,0.156061,-0.085635,0.190626,-0.023107,-0.015391,0.249899,0.154859,0.085531,-0.984227,0.028155,0.009852,-0.044932,24.522970,-1.713907,7.820534,,,,,,,
1512180654.325685,0.156043,-0.085498,0.195582,-0.031543,-0.015392,0.244447,0.154842,0.085394,-0.984242,-0.015408,-0.023840,0.000858,24.447638,-1.789026,7.821129,,,,,,,
1512180654.345674,0.155991,-0.085234,0.200421,-0.026116,-0.026053,0.238092,0.154796,0.085131,-0.984272,0.049932,-0.044238,-0.012478,24.371252,-2.089136,7.746635,,,,,,,
1512180654.365663,0.155981,-0.084872,0.205165,-0.024021,-0.018580,0.240279,0.154790,0.084770,-0.984304,-0.088445,0.051705,-0.021311,24.371664,-2.014139,7.896675,,,,,,,
1512180654.385683,0.155978,-0.084718,0.209816,-0.033422,-0.028182,0.228384,0.154789,0.084617,-0.984317,0.133877,0.047601,-0.006100,24.220266,-2.314356,7.822807,,,,,,,
1512180654.405672,0.156298,-0.084408,0.214554,-0.011093,0.026316,0.234226,0.155108,0.084308,-0.984293,-0.026492,-0.021106,-0.072576,23.994528,-2.464701,7.674644,,,,,,,
1512180654.425661,0.157022,-0.083985,0.219076,-0.011074,0.027386,0.233164,0.155827,0.083886,-0.984216,-0.006092,0.036552,-0.022055,23.769293,-2.540033,7.901527,,,,,,,
1512180654.445680,0.158174,-0.083613,0.223726,-0.020622,0.032720,0.230913,0.156965,0.083515,-0.984067,0.108477,0.028530,0.046597,24.295126,-2.389246,8.197136,,,,,,,
1512180654.465669,0.159252,-0.083121,0.228390,-0.010171,0.039119,0.243879,0.158032,0.083025,-0.983937,-0.019437,-0.019579,0.023198,24.294973,-2.389246,7.897133,,,,,,,
1512180654.485658,0.160420,-0.082585,0.233068,-0.014316,0.029515,0.236324,0.159189,0.082492,-0.983796,0.038993,0.007093,0.030121,24.518438,-2.763910,8.195045,,,,,,,
1512180654.505678,0.161522,-0.082077,0.237910,-0.012220,0.036988,0.238511,0.160279,0.081985,-0.983661,0.057006,-0.032348,0.010013,23.842611,-2.914927,7.900719,,,,,,,
1512180654.525667,0.162433,-0.081468,0.242728,-0.002629,0.017782,0.238587,0.161183,0.081378,-0.983564,0.081080,-0.041995,0.019071,24.068731,-2.689585,8.123909,,,,,,,
1512180654.545656,0.163243,-0.080912,0.247548,-0.017578,0.012406,0.238345,0.161988,0.080824,-0.983477,0.107849,-0.026091,0.032351,24.443624,-2.689035,7.895729,,,,,,,
1512180654.565645,0.163839,-0.080396,0.252309,-0.014315,0.010288,0.235191,0.162580,0.080309,-0.983422,0.111925,-0.041827,-0.000770,24.142416,-2.989481,8.198128,,,,,,,
1512180654.585664,0.164134,-0.079905,0.256945,-0.017464,-0.015346,0.230791,0.162876,0.079820,-0.983412,0.155910,-0.044786,0.020369,24.217077,-3.064371,8.197456,,,,,,,
1512180654.605653,0.164025,-0.079616,0.261531,-0.025970,-0.033514,0.228472,0.162773,0.079532,-0.983453,0.127083,-0.028140,0.014611,24.366446,-3.214151,8.271111,,,,,,,
1512180654.625642,0.163479,-0.079435,0.266032,-0.026995,-0.054871,0.225186,0.162239,0.079352,-0.983556,0.121025,-0.067709,0.001653,24.439077,-3.739038,8.270241,,,,,,,
1512180654.645662,0.162480,-0.079260,0.270595,-0.036620,-0.085861,0.226007,0.161258,0.079177,-0.983731,0.139111,-0.095946,0.046872,24.064413,-3.664591,8.273460,,,,,,,
1512180654.665651,0.161274,-0.079104,0.275185,-0.037744,-0.088015,0.228109,0.160073,0.079021,-0.983937,0.073646,-0.044857,0.052418,23.761114,-4.340052,7.750694,,,,,,,
1512180654.685640,0.159924,-0.079101,0.279897,-0.032532,-0.079469,0.236747,0.158746,0.079019,-0.984152,0.123237,-0.023095,-0.043497,23.836309,-4.339945,8.125053,,,,,,,
1512180654.705629,0.158681,-0.079116,0.284724,-0.036902,-0.073082,0.243101,0.157522,0.079034,-0.984348,0.109782,-0.048592,-0.007290,23.839041,-3.739939,8.200325,,,,,,,
1512180654.725649,0.157863,-0.079146,0.289675,-0.038050,-0.042119,0.249589,0.156716,0.079063,-0.984474,0.002754,-0.051415,-0.000832,23.612921,-3.965281,7.977135,,,,,,,
1512180654.745638,0.157568,-0.079128,0.294766,-0.042267,-0.033573,0.247426,0.156425,0.079045,-0.984522,0.078148,-0.071920,0.030084,23.386572,-4.265619,7.978920,,,,,,,
1512180654.765627,0.157617,-0.079075,0.299998,-0.043557,-0.015448,0.261327,0.156475,0.078993,-0.984518,0.044468,-0.047484,0.028372,23.687124,-4.115168,7.751442,,,,,,,
1512180654.785646,0.157800,-0.079039,0.305183,-0.042517,-0.004768,0.263512,0.156656,0.078957,-0.984492,-0.063974,-0.040749,0.045634,23.686865,-4.190165,7.901405,,,,,,,
1512180654.805635,0.158134,-0.078926,0.310322,-0.041268,-0.016494,0.251762,0.156986,0.078844,-0.984449,0.033887,-0.047686,0.065412,23.536978,-4.190393,8.127678,,,,,,,
1512180654.825624,0.158480,-0.078823,0.315489,-0.035869,-0.003657,0.248689,0.157328,0.078742,-0.984402,0.046896,-0.048178,0.020993,23.911993,-4.189829,8.124489,,,,,,,
1512180654.845644,0.158816,-0.078711,0.320585,-0.033790,-0.007939,0.250832,0.157660,0.078630,-0.984358,0.016138,-0.022065,0.049010,23.461004,-4.415506,8.203209,,,,,,,
1512180654.865633,0.159182,-0.078535,0.325534,-0.031559,0.000623,0.245566,0.158022,0.078454,-0.984314,-0.016253,-0.005776,0.038498,23.459921,-4.640512,8.053108,,,,,,,
1512180654.885622,0.159507,-0.078350,0.330407,-0.027025,0.000666,0.229642,0.158344,0.078270,-0.984277,0.083706,-0.008629,0.016900,23.458532,-4.940500,7.977974,,,,,,,
1512180654.905611,0.159847,-0.078125,0.335180,-0.026040,0.005999,0.235006,0.158682,0.078046,-0.984240,0.039545,-0.008664,0.012515,23.158575,-4.940958,8.055519,,,,,,,
1512180654.925630,0.160257,-0.077835,0.339775,-0.026008,0.003866,0.232867,0.159088,0.077757,-0.984198,0.012848,0.007876,0.041799,23.385321,-4.565622,8.203773,,,,,,,
1512180654.945619,0.160714,-0.077527,0.344344,-0.017265,-0.000371,0.219118,0.159543,0.077450,-0.984148,0.096027,-0.001674,0.008715,23.009542,-4.716181,7.981895,,,,,,,
1512180654.965608,0.161140,-0.077131,0.348879,-0.014088,0.004977,0.221317,0.159967,0.077055,-0.984110,0.055884,0.014116,-0.008489,22.934088,-4.866297,8.432457,,,,,,,
1512180654.985628,0.161347,-0.076784,0.353322,-0.020542,-0.016406,0.223279,0.160175,0.076708,-0.984104,0.068219,0.029783,0.014621,22.483725,-4.941965,8.361259,,,,,,,
1512180655.005617,0.161424,-0.076269,0.357744,-0.014145,-0.021741,0.222284,0.160257,0.076195,-0.984130,0.064886,0.001716,0.021621,22.408758,-4.942087,8.436882,,,,,,,
1512180655.025606,0.161146,-0.075717,0.362100,-0.003462,-0.030261,0.221347,0.159990,0.075644,-0.984216,0.073699,-0.006903,-0.010321,22.634909,-4.716745,8.735085,,,,,,,
1512180655.045625,0.160628,-0.075035,0.366440,-0.001337,-0.048420,0.220246,0.159488,0.074965,-0.984349,0.084286,0.014894,0.029943,22.258902,-4.942301,8.738167,,,,,,,
1512180655.065614,0.160011,-0.074247,0.370717,0.006106,-0.046268,0.222498,0.158890,0.074179,-0.984506,0.045181,0.009851,0.012902,22.333151,-5.092188,8.587456,,,,,,,
1512180655.085603,0.159311,-0.073408,0.374920,0.011558,-0.054795,0.214016,0.158211,0.073342,-0.984678,0.051491,0.003852,0.011442,22.181051,-5.542429,8.438530,,,,,,,
1512180655.105592,0.158742,-0.072542,0.379111,0.011679,-0.047307,0.206579,0.157660,0.072479,-0.984830,0.083368,0.001847,0.003568,21.654745,-5.843210,8.517845,,,,,,,
1512180655.125612,0.158263,-0.071598,0.383248,0.012700,-0.032351,0.210914,0.157199,0.071537,-0.984972,0.063061,-0.013554,-0.007368,21.730749,-5.618097,8.517311,,,,,,,
1512180655.145601,0.157762,-0.070610,0.387252,0.018002,-0.044096,0.212015,0.156717,0.070551,-0.985120,0.007345,-0.009546,0.032575,21.730932,-5.543100,8.217354,,,,,,,
1512180655.165590,0.157329,-0.069673,0.391233,0.019246,-0.036597,0.201398,0.156301,0.069616,-0.985253,0.026881,0.012735,-0.007148,21.358633,-4.943659,8.220818,,,,,,,
1512180655.185609,0.156914,-0.068690,0.395239,0.023649,-0.035507,0.192937,0.155903,0.068636,-0.985385,0.091656,0.010679,-0.040097,21.430304,-5.693552,8.294838,,,,,,,
1512180655.205598,0.156393,-0.067707,0.399212,0.013894,-0.045153,0.202357,0.155400,0.067656,-0.985532,0.014644,-0.010496,0.008954,20.980047,-5.769220,8.448616,,,,,,,
1512180655.225587,0.155840,-0.066776,0.403063,0.018152,-0.044081,0.202421,0.154864,0.066726,-0.985680,-0.016985,-0.004211,0.007881,20.525915,-6.669901,8.302040,,,,,,,
1512180655.245607,0.155247,-0.065873,0.406967,0.015120,-0.041928,0.192791,0.154288,0.065826,-0.985831,0.076486,-0.011886,-0.040689,20.754293,-5.919565,8.300468,,,,,,,
1512180655.265596,0.154600,-0.065016,0.410833,0.011941,-0.037659,0.191694,0.153659,0.064970,-0.985986,0.058056,-0.006910,-0.037665,20.754065,-5.994562,8.525429,,,,,,,
1512180655.285585,0.153961,-0.064256,0.414691,0.010732,-0.035543,0.200211,0.153037,0.064212,-0.986132,0.024286,0.005566,-0.051923,20.527639,-6.294901,8.377205,,,,,,,
1512180655.305574,0.153490,-0.063561,0.418500,0.004424,-0.030204,0.194807,0.152579,0.063518,-0.986248,0.036157,0.001103,-0.033131,20.676992,-6.444681,8.450859,,,,,,,
1512180655.325594,0.153167,-0.062977,0.422266,0.003494,-0.020574,0.187366,0.152266,0.062935,-0.986334,0.029268,-0.030281,-0.038797,20.451956,-6.445017,8.377769,,,,,,,
1512180655.345583,0.152904,-0.062398,0.425973,-0.005071,-0.022728,0.189366,0.152013,0.062357,-0.986409,0.012446,-0.041590,0.025289,20.376287,-6.595133,8.378334,,,,,,,
1512180655.365572,0.152776,-0.061920,0.429554,-0.006985,-0.019499,0.176557,0.151890,0.061881,-0.986458,0.008037,-0.028418,0.018700,20.451925,-6.445017,8.302773,,,,,,,
1512180655.385591,0.152624,-0.061552,0.433024,-0.012237,-0.013089,0.172240,0.151744,0.061513,-0.986504,-0.013225,-0.018696,-0.015678,20.076208,-6.595575,8.230888,,,,,,,
1512180655.405580,0.152383,-0.061320,0.436408,-0.009931,-0.021607,0.161585,0.151509,0.061282,-0.986554,-0.011922,0.001081,-0.023135,19.773916,-7.121027,8.383202,,,,,,,
1512180655.425569,0.152073,-0.061201,0.439754,-0.015231,-0.021614,0.159374,0.151204,0.061163,-0.986609,0.015834,-0.027716,-0.062876,19.625692,-6.746256,8.534645,,,,,,,
1512180655.445589,0.151826,-0.061152,0.443060,-0.022757,-0.019495,0.163537,0.150961,0.061113,-0.986649,-0.014700,-0.028719,-0.043350,19.548880,-7.121363,8.310112,,,,,,,
1512180655.465578,0.151777,-0.061171,0.446263,-0.028045,-0.010954,0.161358,0.150912,0.061133,-0.986655,-0.045413,-0.027350,-0.024347,19.474188,-7.046488,8.235786,,,,,,,
1512180655.485567,0.151745,-0.061279,0.449473,-0.032253,-0.019502,0.157001,0.150880,0.061241,-0.986653,0.002166,-0.029212,0.006612,19.398443,-7.196589,8.086342,,,,,,,
1512180655.505556,0.151829,-0.061377,0.452694,-0.034379,-0.000275,0.158105,0.150962,0.061338,-0.986635,-0.030539,-0.036161,0.004854,19.399755,-6.896585,8.011482,,,,,,,
1512180655.525575,0.152094,-0.061385,0.455820,-0.025700,0.004025,0.148649,0.151223,0.061347,-0.986594,0.013053,-0.035452,0.021338,19.324377,-6.971704,7.937096,,,,,,,
1512180655.545564,0.152665,-0.061248,0.458988,-0.016141,0.018992,0.152040,0.151787,0.061209,-0.986516,0.064430,-0.034049,0.020619,19.099676,-6.897043,7.864037,,,,,,,
1512180655.565553,0.153372,-0.061016,0.461916,-0.008725,0.035025,0.156471,0.152487,0.060978,-0.986423,-0.000464,-0.031895,0.009524,19.024710,-6.897150,7.939674,,,,,,,
1512180655.585573,0.154234,-0.060690,0.464773,-0.001137,0.041453,0.148070,0.153340,0.060653,-0.986310,0.030254,-0.012878,-0.030734,19.174780,-6.896936,8.088402,,,,,,,
1512180655.605512,0.155176,-0.060351,0.467623,-0.001046,0.051075,0.142774,0.154272,0.060314,-0.986186,0.031610,-0.010327,-0.037145,18.647802,-7.347727,8.167656,,,,,,,
1512180655.625501,0.155953,-0.059985,0.470447,-0.001060,0.023306,0.142679,0.155042,0.059949,-0.986087,0.042376,-0.033948,-0.009823,18.873434,-7.197382,8.090813,,,,,,,
1512180655.645520,0.156527,-0.059538,0.473258,-0.003135,0.011558,0.138342,0.155612,0.059503,-0.986024,0.059323,-0.029382,0.007692,18.496405,-7.647943,8.093788,,,,,,,
1512180655.665509,0.156571,-0.059042,0.475981,0.002178,-0.013001,0.138334,0.155660,0.059008,-0.986047,0.079218,-0.041414,0.042596,18.420950,-7.723063,7.869392,,,,,,,
1512180655.685498,0.156232,-0.058433,0.478648,0.009658,-0.032214,0.136244,0.155332,0.058400,-0.986135,0.105761,-0.038075,0.034093,18.796698,-7.572504,8.016273,,,,,,,
1512180655.705487,0.155635,-0.057803,0.481269,0.012820,-0.036484,0.138407,0.154749,0.057771,-0.986263,0.092749,-0.021302,0.014782,18.347647,-7.348169,7.870201,,,,,,,
1512180655.725507,0.154697,-0.057132,0.483737,0.019274,-0.050353,0.134188,0.153829,0.057101,-0.986446,0.068613,-0.023074,0.011165,18.346258,-7.648172,7.795067,,,,,,,
1512180655.745497,0.153576,-0.056457,0.486194,0.014103,-0.068501,0.123389,0.152729,0.056427,-0.986656,0.114086,-0.014312,0.010627,18.195501,-7.798410,7.646278,,,,,,,
1512180655.765486,0.152352,-0.055726,0.488607,0.014073,-0.068503,0.125521,0.151528,0.055697,-0.986883,0.065879,-0.005893,0.037359,18.194571,-8.023401,7.796165,,,,,,,
1512180655.785506,0.151015,-0.055075,0.490930,0.015258,-0.081301,0.118033,0.150214,0.055048,-0.987120,0.067590,-0.005899,0.012022,17.972082,-7.423746,7.423363,,,,,,,
1512180655.805495,0.149803,-0.054399,0.493301,0.008845,-0.077043,0.119020,0.149023,0.054373,-0.987338,0.093836,-0.018438,0.031863,17.820211,-7.873957,7.724434,,,,,,,
1512180655.825484,0.148632,-0.053705,0.495671,0.017224,-0.062094,0.128788,0.147872,0.053679,-0.987549,-0.006728,-0.010711,0.019760,17.893026,-8.323862,7.423592,,,,,,,
1512180655.845502,0.147376,-0.053055,0.498022,0.019476,-0.067424,0.120270,0.146636,0.053030,-0.987768,0.025498,-0.011907,-0.013392,17.741385,-8.699091,7.499687,,,,,,,
1512180655.865491,0.146196,-0.052421,0.500555,0.019434,-0.061018,0.123491,0.145476,0.052397,-0.987973,0.044923,-0.003111,-0.044299,17.967657,-8.398752,7.347908,,,,,,,
1512180655.885480,0.144978,-0.051796,0.503106,0.015034,-0.059972,0.131960,0.144277,0.051772,-0.988182,0.005671,0.005692,-0.013557,17.738714,-9.224085,6.899452,,,,,,,
1512180655.905469,0.143940,-0.051151,0.505692,0.011838,-0.057840,0.131921,0.143256,0.051128,-0.988364,0.027230,-0.010525,-0.000161,17.966940,-8.548746,7.272850,,,,,,,
1512180655.925489,0.143132,-0.050496,0.508348,0.011707,-0.042903,0.140499,0.142462,0.050475,-0.988512,-0.028601,-0.033888,0.021227,17.815100,-8.923975,6.973946,,,,,,,
1512180655.945478,0.142614,-0.049854,0.510980,0.008615,-0.031150,0.134097,0.141955,0.049834,-0.988618,-0.043032,-0.030547,0.009889,17.739843,-8.999079,7.124550,,,,,,,
1512180655.965467,0.142396,-0.049190,0.513685,0.011856,-0.014045,0.133140,0.141744,0.049171,-0.988681,0.021358,-0.031242,-0.010708,17.438711,-9.224543,6.902000,,,,,,,
1512180655.985487,0.142472,-0.048524,0.516368,0.013950,0.006248,0.136440,0.141823,0.048505,-0.988703,-0.009117,-0.010328,-0.015768,17.588720,-9.224314,6.900719,,,,,,,
1512180656.005476,0.142753,-0.047923,0.519056,0.016111,0.018005,0.135446,0.142105,0.047905,-0.988692,-0.028809,-0.009636,-0.053590,17.362402,-9.524652,6.977486,,,,,,,
1512180656.025465,0.143103,-0.047343,0.521725,0.009767,0.000916,0.132100,0.142455,0.047325,-0.988669,0.053926,-0.020759,-0.034783,17.586721,-9.674311,6.975517,,,,,,,
1512180656.045485,0.143398,-0.046757,0.524382,0.011825,0.006248,0.136410,0.142751,0.046740,-0.988654,0.042750,-0.027529,-0.024254,17.513754,-9.224436,6.976357,,,,,,,
1512180656.065474,0.143506,-0.046166,0.526957,0.009643,0.001961,0.138493,0.142861,0.046149,-0.988666,-0.005608,-0.015510,-0.025723,17.511465,-9.749430,7.126122,,,,,,,
1512180656.085463,0.143525,-0.045630,0.529485,0.008788,-0.005489,0.125663,0.142884,0.045614,-0.988688,0.053344,-0.034246,-0.008245,17.735083,-10.049097,7.049065,,,,,,,
1512180656.105451,0.143569,-0.044999,0.532034,0.010944,-0.000141,0.124648,0.142932,0.044984,-0.988710,0.068342,-0.029756,0.011033,17.434698,-10.124537,6.976570,,,,,,,
1512180656.125470,0.143789,-0.044295,0.534545,0.016169,0.008397,0.131148,0.143153,0.044281,-0.988709,0.041524,0.002686,-0.003966,17.211462,-9.749872,7.128670,,,,,,,
1512180656.145459,0.144255,-0.043599,0.537108,0.015055,0.014798,0.134353,0.143619,0.043585,-0.988673,0.025998,-0.027899,0.009837,17.287207,-9.599771,7.278099,,,,,,,
1512180656.165448,0.144695,-0.042752,0.539613,0.028998,0.016965,0.129232,0.144059,0.042738,-0.988646,-0.012620,-0.035475,-0.042925,17.433432,-10.424555,7.126442,,,,,,,
1512180656.185468,0.145093,-0.041899,0.542169,0.023774,0.005217,0.121650,0.144457,0.041887,-0.988624,0.152143,-0.016740,-0.021309,17.133093,-10.499994,7.128960,,,,,,,
1512180656.205457,0.145102,-0.041054,0.544780,0.020289,-0.002293,0.139701,0.144472,0.041042,-0.988657,0.017623,-0.019344,0.038950,17.055014,-11.175119,7.054283,,,,,,,
1512180656.225446,0.144880,-0.040271,0.547344,0.026809,-0.015088,0.131221,0.144256,0.040260,-0.988721,-0.003677,0.003548,-0.020968,17.582861,-10.574320,7.350090,,,,,,,
1512180656.245466,0.144812,-0.039487,0.549982,0.020575,-0.011873,0.121547,0.144193,0.039477,-0.988762,0.143297,-0.021441,-0.014992,17.510717,-9.974436,7.651009,,,,,,,
1512180656.265455,0.144529,-0.038720,0.552586,0.021349,-0.014040,0.139676,0.143919,0.038710,-0.988832,0.036410,-0.023466,-0.005415,17.506323,-10.949442,7.650566,,,,,,,
1512180656.285444,0.144201,-0.038074,0.555147,0.011867,-0.024724,0.132038,0.143598,0.038065,-0.988904,0.037646,0.000067,0.013455,17.281057,-11.024775,7.802437,,,,,,,
1512180656.305433,0.143800,-0.037436,0.557768,0.010823,-0.031128,0.130937,0.143205,0.037427,-0.988985,0.081862,0.008136,-0.014982,17.507269,-10.724436,7.500664,,,,,,,
1512180656.325453,0.143225,-0.036839,0.560419,0.005448,-0.033281,0.132981,0.142639,0.036831,-0.989089,0.058045,0.020878,0.001067,17.280050,-11.174784,7.127373,,,,,,,
1512180656.345441,0.142525,-0.036411,0.563040,0.011828,-0.038611,0.134123,0.141949,0.036403,-0.989204,0.035587,-0.030604,-0.028481,17.281286,-10.949778,7.577477,,,,,,,
1512180656.365430,0.141972,-0.035972,0.565750,-0.003108,-0.032228,0.134994,0.141404,0.035964,-0.989298,0.082442,0.027131,0.000926,17.131170,-10.950006,7.353752,,,,,,,
1512180656.385450,0.141450,-0.035753,0.568503,-0.006490,-0.031191,0.145607,0.140888,0.035745,-0.989380,-0.015842,0.033896,-0.010544,16.905157,-11.175348,7.355553,,,,,,,
1512180656.405439,0.141150,-0.035415,0.571183,-0.004159,-0.029025,0.133923,0.140594,0.035408,-0.989434,0.025147,-0.015327,0.008355,16.979864,-11.250223,7.429893,,,,,,,
1512180656.425428,0.140954,-0.034954,0.573855,0.000193,-0.016187,0.129768,0.140402,0.034946,-0.989478,0.078440,0.011242,0.025839,17.130011,-11.249994,7.728615,,,,,,,
1512180656.445447,0.140594,-0.034593,0.576510,0.006443,-0.015129,0.138390,0.140047,0.034586,-0.989541,0.004164,0.020895,-0.003517,16.677694,-11.700678,7.132225,,,,,,,
1512180656.465436,0.140188,-0.034183,0.579018,0.009780,-0.021514,0.129888,0.139648,0.034177,-0.989611,-0.020889,0.022327,-0.028684,16.978216,-11.625223,7.504707,,,,,,,
