timestamp(unix),attitude_roll(radians),attitude_pitch(radians),attitude_yaw(radians),rotation_rate_x(radians/s),rotation_rate_y(radians/s),rotation_rate_z(radians/s),gravity_x(G),gravity_y(G),gravity_z(G),user_acc_x(G),user_acc_y(G),user_acc_z(G),magnetic_field_x(microteslas),magnetic_field_y(microteslas),magnetic_field_z(microteslas),latitude(degree),longitude(degree),altitude(meter),speed(m/s),course(degree),timestamp(unix),User Mark
1512180271.772894,-0.003119,-0.047428,0.209676,-0.006614,-0.049802,0.001070,-0.003115,0.047410,-0.998871,-0.002332,-0.004213,-0.008515,14.603931,-2.564854,-20.689003,,,,,,,
1512180271.792883,-0.003023,-0.047220,0.209680,0.003039,0.022846,0.000394,-0.003019,0.047202,-0.998881,0.008497,-0.011848,0.009196,14.377201,-2.940189,-20.762260,,,,,,,
1512180271.812872,-0.003037,-0.047468,0.209687,-0.001259,0.004677,0.001333,-0.003034,0.047450,-0.998869,-0.002368,0.008199,-0.012392,14.528599,-2.639973,-20.688393,,,,,,,
1512180271.832891,-0.002965,-0.047337,0.209679,-0.008701,-0.026305,-0.001013,-0.002962,0.047319,-0.998875,-0.006041,0.005858,-0.000026,14.450703,-3.240086,-21.063026,,,,,,,
1512180271.852880,-0.003029,-0.047369,0.209662,0.011590,0.034610,-0.000508,-0.003025,0.047351,-0.998874,0.015705,-0.005176,0.016131,14.303593,-2.640308,-20.686485,,,,,,,
1512180271.872869,-0.003032,-0.047467,0.209655,-0.009786,-0.025241,0.000041,-0.003028,0.047449,-0.998869,-0.008828,-0.004022,-0.004717,14.002247,-2.940754,-20.684074,,,,,,,
1512180271.892858,-0.002872,-0.047318,0.209648,0.008397,0.013245,-0.001694,-0.002868,0.047300,-0.998877,0.005707,-0.011701,0.006231,14.604008,-2.564854,-20.538994,,,,,,,
1512180271.912878,-0.003130,-0.047450,0.209666,-0.001254,0.004679,0.001335,-0.003126,0.047432,-0.998870,0.002943,0.011376,-0.003297,14.303852,-2.565311,-20.836449,,,,,,,
1512180271.932867,-0.002850,-0.047406,0.209679,-0.010838,-0.018829,0.000050,-0.002846,0.047388,-0.998872,-0.004386,0.003363,-0.004393,14.001194,-3.165760,-20.759178,,,,,,,
1512180271.952856,-0.003064,-0.047387,0.209684,0.012639,0.021797,0.000531,-0.003060,0.047369,-0.998873,0.012399,-0.001288,0.010973,14.753971,-2.564625,-20.615273,,,,,,,
1512180271.972875,-0.003003,-0.047490,0.209672,-0.014020,-0.022036,-0.001074,-0.003000,0.047472,-0.998868,-0.009162,0.000334,-0.000812,14.453403,-2.640079,-21.062752,,,,,,,
1512180271.992864,-0.002863,-0.047365,0.209690,0.009418,0.016448,0.001530,-0.002859,0.047348,-0.998874,0.008597,-0.008575,0.008228,14.377583,-2.865192,-20.687218,,,,,,,
1512180272.012853,-0.003100,-0.047496,0.209693,-0.002305,-0.001728,0.000230,-0.003096,0.047478,-0.998867,0.001006,0.004752,-0.005283,14.075367,-3.315647,-21.059883,,,,,,,
1512180272.032873,-0.002854,-0.047405,0.209674,-0.005494,-0.017753,-0.000938,-0.002851,0.047387,-0.998873,-0.008807,-0.003228,-0.001539,14.074772,-3.465656,-20.909950,,,,,,,
1512180272.052862,-0.002999,-0.047429,0.209700,0.009426,0.027130,0.001566,-0.002996,0.047411,-0.998871,0.015965,0.006727,0.012253,14.229603,-2.415424,-20.685738,,,,,,,
1512180272.072851,-0.002979,-0.047515,0.209693,-0.011904,-0.028448,-0.001071,-0.002976,0.047497,-0.998867,-0.011108,0.001773,-0.002064,14.454014,-2.565083,-20.537727,,,,,,,
1512180272.092840,-0.002882,-0.047361,0.209701,0.012643,0.025002,0.000539,-0.002879,0.047343,-0.998874,0.014643,-0.009547,0.011967,14.302509,-2.865314,-20.836586,,,,,,,
1512180272.112859,-0.003083,-0.047535,0.209708,-0.004442,-0.012412,0.000159,-0.003080,0.047517,-0.998866,-0.004092,0.004470,-0.008535,14.153339,-2.715534,-20.535240,,,,,,,
1512180272.132848,-0.002851,-0.047402,0.209706,-0.003376,-0.008140,0.000189,-0.002848,0.047384,-0.998873,-0.001486,-0.003714,-0.002165,14.527592,-2.864964,-20.688499,,,,,,,
1512180272.152837,-0.002998,-0.047464,0.209721,0.009439,0.023926,0.000487,-0.002994,0.047446,-0.998869,0.017795,0.006234,0.004729,14.150562,-3.315540,-20.685524,,,,,,,
1512180272.172857,-0.002993,-0.047484,0.209721,-0.011914,-0.031649,-0.000014,-0.002989,0.047466,-0.998868,-0.015504,0.003758,-0.000918,14.153599,-2.640537,-20.685204,,,,,,,
1512180272.192846,-0.002841,-0.047405,0.209728,0.010532,0.029274,-0.000543,-0.002838,0.047387,-0.998873,0.013046,-0.004251,0.017793,14.302921,-2.790302,-20.686546,,,,,,,
1512180272.212835,-0.003136,-0.047564,0.209708,-0.004433,-0.022017,0.000132,-0.003132,0.047546,-0.998864,-0.002101,-0.003616,-0.006812,14.151386,-3.090534,-21.060417,,,,,,,
1512180272.232855,-0.002853,-0.047403,0.209707,-0.003354,0.000407,-0.000846,-0.002849,0.047385,-0.998873,0.001385,-0.006644,0.001787,13.926380,-3.090870,-21.058510,,,,,,,
1512180272.252844,-0.003076,-0.047525,0.209710,0.007284,0.013240,0.001487,-0.003073,0.047507,-0.998866,0.007223,0.011301,-0.000783,13.703190,-2.716206,-20.831413,,,,,,,
1512180272.272833,-0.003004,-0.047537,0.209710,-0.014037,-0.024174,-0.000017,-0.003001,0.047519,-0.998866,-0.013082,0.009320,0.000590,14.377506,-2.865192,-20.837227,,,,,,,
1512180272.292856,-0.002884,-0.047504,0.209706,0.012658,0.027139,-0.000520,-0.002881,0.047486,-0.998868,0.013501,-0.012132,0.007809,14.378178,-2.715199,-20.837151,,,,,,,
1512180272.312845,-0.003250,-0.047660,0.209713,-0.010856,-0.019899,0.001108,-0.003246,0.047642,-0.998859,-0.005207,-0.001530,-0.003689,14.152287,-2.940540,-20.610344,,,,,,,
1512180272.332834,-0.002793,-0.047647,0.209693,-0.007593,0.008949,-0.001945,-0.002790,0.047629,-0.998861,0.007429,-0.009818,-0.000086,14.226612,-3.090427,-20.611046,,,,,,,
1512180272.352823,-0.003207,-0.047879,0.209645,0.007374,0.001506,-0.003882,-0.003203,0.047861,-0.998849,0.019408,-0.030511,-0.006522,14.152882,-2.790531,-20.760277,,,,,,,
1512180272.372843,-0.003354,-0.047986,0.209638,-0.022563,-0.016712,-0.000118,-0.003350,0.047967,-0.998843,-0.004127,0.020804,0.011203,14.150440,-3.315540,-20.910515,,,,,,,
1512180272.392832,-0.003153,-0.047866,0.209624,0.024376,0.019679,-0.000377,-0.003149,0.047848,-0.998850,0.010855,-0.032055,0.023538,14.152287,-2.940540,-20.610344,,,,,,,
1512180272.412821,-0.003738,-0.048027,0.209620,-0.008745,-0.024178,0.001119,-0.003734,0.048009,-0.998840,-0.007283,0.005641,0.004287,14.377506,-2.865192,-20.837227,,,,,,,
1512180272.432840,-0.003194,-0.047840,0.209598,-0.002275,0.007890,-0.000802,-0.003190,0.047822,-0.998851,0.005083,-0.014664,0.004970,14.153294,-2.715534,-20.610237,,,,,,,
1512180272.452829,-0.003639,-0.047954,0.209605,0.010496,0.007906,0.000449,-0.003635,0.047935,-0.998844,0.012073,0.013542,0.005344,14.002628,-2.865757,-20.609032,,,,,,,
1512180272.472818,-0.003473,-0.047932,0.209596,-0.017225,-0.031655,-0.001156,-0.003469,0.047914,-0.998845,-0.018672,0.009169,-0.001719,13.925251,-3.390873,-20.608635,,,,,,,
1512180272.492838,-0.003401,-0.047824,0.209587,0.017995,0.033557,-0.000418,-0.003397,0.047806,-0.998851,0.017084,-0.010514,0.014415,14.226902,-3.015430,-20.686012,,,,,,,
1512180272.512827,-0.003691,-0.047973,0.209579,-0.009764,-0.023101,-0.001018,-0.003687,0.047954,-0.998843,-0.003546,-0.000133,-0.003690,14.004307,-2.490757,-20.608864,,,,,,,
1512180272.532816,-0.003337,-0.047841,0.209593,-0.000158,0.005757,0.000291,-0.003333,0.047822,-0.998850,0.003333,-0.007814,0.000803,13.778980,-2.566090,-20.606987,,,,,,,
1512180272.552805,-0.003634,-0.047942,0.209590,0.007310,0.010036,-0.000655,-0.003630,0.047923,-0.998844,0.006819,0.010884,-0.001796,14.002201,-2.940754,-20.759071,,,,,,,
1512180272.572824,-0.003564,-0.047878,0.209571,-0.014036,-0.029512,-0.000031,-0.003560,0.047860,-0.998848,-0.017192,0.008475,0.003425,13.705616,-2.191196,-20.681175,,,,,,,
1512180272.592813,-0.003400,-0.047818,0.209572,0.012678,0.037827,-0.000474,-0.003396,0.047800,-0.998851,0.020700,-0.004404,0.016185,13.703556,-2.641209,-20.756386,,,,,,,
1512180272.612802,-0.003743,-0.047931,0.209575,-0.005529,-0.033773,0.001146,-0.003738,0.047913,-0.998845,-0.008316,-0.009354,-0.006694,13.928516,-2.640873,-20.833290,,,,,,,
1512180272.632822,-0.003399,-0.047775,0.209569,-0.001190,0.010031,-0.001838,-0.003395,0.047756,-0.998853,0.009651,-0.008496,0.005781,13.777546,-2.866093,-20.757118,,,,,,,
1512180272.652811,-0.003664,-0.047921,0.209592,0.009429,0.015379,0.000465,-0.003660,0.047902,-0.998845,0.009351,0.013316,0.009450,13.778187,-2.716099,-20.832054,,,,,,,
1512180272.672800,-0.003619,-0.047899,0.209561,-0.012987,-0.034858,-0.000032,-0.003614,0.047881,-0.998846,-0.017382,0.006257,0.003409,13.700932,-3.241215,-20.606651,,,,,,,
1512180272.692820,-0.003458,-0.047819,0.209531,0.013731,0.033544,-0.001541,-0.003454,0.047801,-0.998851,0.018178,-0.008540,0.010051,13.852955,-2.790989,-20.607719,,,,,,,
1512180272.712809,-0.003753,-0.047925,0.209556,-0.005562,-0.022031,0.003323,-0.003749,0.047906,-0.998845,0.000239,-0.004465,-0.008022,13.703892,-2.566212,-20.756340,,,,,,,
1512180272.732798,-0.003401,-0.047810,0.209559,-0.002295,0.003615,0.000262,-0.003397,0.047792,-0.998852,0.004846,-0.009004,0.001796,13.553974,-2.566425,-20.605064,,,,,,,
1512180272.752817,-0.003752,-0.047901,0.209567,0.009430,0.011108,0.000458,-0.003748,0.047883,-0.998846,0.007196,0.012633,-0.002283,13.402287,-2.941654,-20.603966,,,,,,,
1512180272.772806,-0.003712,-0.047903,0.209542,-0.015024,-0.054074,-0.006517,-0.003708,0.047885,-0.998846,-0.008148,0.016050,-0.005198,13.702290,-2.941212,-20.606514,,,,,,,
1512180272.792795,-0.005341,-0.047647,0.209594,0.034992,-0.079637,-0.001613,-0.005335,0.047629,-0.998851,0.007563,-0.007209,0.030314,13.702839,-2.791203,-20.831459,,,,,,,
1512180272.812784,-0.002181,-0.047843,0.209550,-0.052545,0.236368,0.020603,-0.002178,0.047824,-0.998853,-0.015766,-0.019779,-0.004122,13.551304,-3.091434,-21.205315,,,,,,,
1512180272.832804,-0.000888,-0.048853,0.209763,0.010979,-0.063726,0.032204,-0.000887,0.048833,-0.998807,0.006593,-0.001440,-0.021793,13.703526,-2.641209,-20.831383,,,,,,,
1512180272.852793,-0.005145,-0.047271,0.209697,0.026572,0.129704,0.001121,-0.005139,0.047253,-0.998870,0.007672,-0.000286,0.136290,13.928440,-2.640873,-20.983284,,,,,,,
1512180272.872782,-0.005173,-0.048695,0.209714,-0.027058,-0.210072,0.004493,-0.005167,0.048676,-0.998801,-0.005194,0.007339,-0.054910,13.703602,-2.641209,-20.681389,,,,,,,
1512180272.892801,-0.005073,-0.047971,0.210597,-0.034910,0.167848,0.111234,-0.005067,0.047952,-0.998837,-0.023802,-0.024225,0.056820,13.703632,-2.641209,-20.606377,,,,,,,
1512180272.912790,0.000850,-0.052850,0.221541,-0.327307,0.231368,0.713804,0.000849,0.052826,-0.998603,-0.008264,0.040726,-0.041619,13.628635,-2.641315,-20.605736,,,,,,,
1512180272.932779,0.008763,-0.059567,0.233371,-0.349468,0.461390,0.518132,0.008748,0.059532,-0.998188,0.020854,-0.021919,-0.007183,13.701496,-3.091206,-20.831596,,,,,,,
1512180272.952799,0.022560,-0.070304,0.245503,-0.710462,0.697619,0.699217,0.022502,0.070246,-0.997276,-0.074443,-0.065470,-0.075921,13.702244,-2.941212,-20.681526,,,,,,,
1512180272.972788,0.034371,-0.088309,0.265395,-0.999713,0.375939,1.092613,0.034230,0.088195,-0.995515,-0.144277,-0.301161,-0.062606,13.927692,-2.865864,-20.458397,,,,,,,
1512180272.992777,0.043385,-0.110022,0.285445,-1.253456,0.465905,0.774761,0.043109,0.109800,-0.993018,-0.334308,-0.312452,-0.142007,14.003300,-2.715763,-20.608955,,,,,,,
1512180273.012766,0.054327,-0.137313,0.290923,-1.369998,0.479348,-0.173541,0.053789,0.136882,-0.989126,-0.503847,-0.242595,-0.487055,13.778675,-2.641087,-20.532021,,,,,,,
1512180273.032785,0.059909,-0.158995,0.277503,-0.751039,0.288586,-0.996759,0.059118,0.158326,-0.985615,-0.556890,-0.542023,-0.497814,14.156193,-2.115528,-20.234962,,,,,,,
1512180273.052774,0.059846,-0.161563,0.254104,0.380725,0.178497,-1.173705,0.059031,0.160861,-0.985210,-0.529185,-0.669161,-0.435124,14.460835,-1.140079,-19.712059,,,,,,,
1512180273.072763,0.061647,-0.142000,0.227968,1.422610,0.314964,-1.318046,0.060988,0.141523,-0.988054,-0.658522,-0.507429,-0.238997,15.590595,-0.163380,-18.971184,,,,,,,
1512180273.092783,0.061822,-0.106630,0.193521,2.083106,0.151261,-1.750393,0.061431,0.106428,-0.992421,-0.643417,-0.339262,0.016179,15.591206,-0.163380,-17.771187,,,,,,,
1512180273.112772,0.058686,-0.063891,0.154661,2.292207,-0.080182,-1.771624,0.058532,0.063847,-0.996242,-0.500457,-0.285756,0.263118,16.120060,0.512417,-16.125343,,,,,,,
1512180273.132761,0.052631,-0.022178,0.118976,2.077223,-0.296607,-1.610254,0.052594,0.022177,-0.998370,-0.386197,-0.232824,0.464266,15.897465,0.887081,-14.698265,,,,,,,
1512180273.152780,0.044827,0.013386,0.087029,1.725244,-0.407559,-1.409987,0.044808,-0.013385,-0.998906,-0.203973,-0.175640,0.643681,16.207218,2.837551,-12.749916,,,,,,,
1512180273.172769,0.040039,0.044435,0.066238,1.547455,-0.185032,-0.637829,0.039989,-0.044420,-0.998212,0.008443,-0.157850,0.821378,15.539295,4.261547,-11.393532,,,,,,,
1512180273.192758,0.036859,0.074705,0.064180,1.496944,-0.152766,0.293287,0.036748,-0.074635,-0.996534,0.179804,0.053761,0.927854,15.243504,5.011105,-9.740639,,,,,,,
1512180273.212778,0.034867,0.103461,0.077856,1.332875,0.046520,0.942964,0.034674,-0.103276,-0.994048,0.309885,0.275502,1.025084,14.572407,5.760098,-8.684563,,,,,,,
1512180273.232767,0.033861,0.125595,0.095418,0.878385,-0.000700,0.703816,0.033588,-0.125265,-0.991554,0.265698,0.669561,0.859719,13.753666,7.033871,-7.626961,,,,,,,
1512180273.252756,0.035045,0.133562,0.093024,0.060326,0.118170,-0.624207,0.034726,-0.133165,-0.990485,0.272708,0.872438,0.590415,13.006992,7.632748,-6.345314,,,,,,,
1512180273.272745,0.042867,0.119163,0.071092,-1.136312,0.352537,-1.227060,0.042550,-0.118881,-0.991996,0.501914,0.575607,0.281577,11.736942,8.605846,-5.209038,,,,,,,
1512180273.292736,0.055428,0.083953,0.054164,-1.952479,0.639649,-0.656882,0.055204,-0.083855,-0.994948,0.698717,0.357735,0.098814,10.840763,9.279507,-3.626076,,,,,,,
1512180273.312725,0.069379,0.044907,0.052980,-1.832903,0.687579,0.045417,0.069254,-0.044892,-0.996588,0.627081,0.440720,-0.074670,9.493992,9.802486,-1.889381,,,,,,,
1512180273.332714,0.079000,0.016241,0.056688,-1.205495,0.301957,-0.007599,0.078908,-0.016240,-0.996750,0.341365,0.696508,-0.299866,8.522694,10.476025,-0.530785,,,,,,,
1512180273.352733,0.081097,-0.003499,0.053329,-0.900610,0.056327,-0.343046,0.081008,0.003499,-0.996707,0.147081,0.569346,-0.431225,7.997517,10.250240,1.123573,,,,,,,
1512180273.372722,0.079590,-0.023605,0.049660,-1.069060,-0.147249,-0.157499,0.079483,0.023603,-0.996557,0.179672,0.148959,-0.578807,7.249577,10.549114,2.555077,,,,,,,
1512180273.392711,0.077810,-0.044590,0.051278,-0.950454,-0.031000,0.024785,0.077655,0.044575,-0.995983,0.155896,-0.016713,-0.589252,6.650394,10.548214,4.210167,,,,,,,
1512180273.412731,0.080215,-0.054310,0.049500,-0.134621,0.253838,-0.238515,0.080011,0.054284,-0.995315,0.096427,-0.002938,-0.538667,6.201069,10.547543,5.563988,,,,,,,
1512180273.432720,0.088830,-0.045891,0.041952,0.776768,0.519300,-0.349114,0.088620,0.045875,-0.995008,0.088169,-0.049461,-0.432863,5.603016,10.846645,6.769218,,,,,,,
1512180273.452709,0.101166,-0.022376,0.036229,1.415322,0.703349,-0.016206,0.100968,0.022374,-0.994638,0.154372,-0.044576,-0.294165,5.154484,11.070965,7.673149,,,,,,,
1512180273.472698,0.143022,0.007187,0.039020,1.360948,3.055775,0.357917,0.142531,-0.007187,-0.989764,0.094117,0.088028,-0.513272,4.405521,11.294842,7.754631,,,,,,,
1512180273.492717,0.206710,0.018600,0.032408,0.057050,2.680907,-0.687827,0.205206,-0.018599,-0.978542,-0.256704,-0.005388,-0.280537,4.113209,12.944408,8.282936,,,,,,,
1512180273.512706,0.234343,0.006125,0.007811,-0.141065,0.475213,-1.452075,0.232200,-0.006125,-0.972648,-0.156608,0.283988,-0.702172,3.438358,12.943401,8.588676,,,,,,,
1512180273.532695,0.235433,0.009084,-0.014532,0.394059,-0.308980,-0.971590,0.233254,-0.009084,-0.972373,0.055533,0.190084,-0.280770,2.615726,13.392162,9.270882,,,,,,,
1512180273.552715,0.217987,-0.001442,-0.031985,-0.637450,-1.091668,-0.842143,0.216265,0.001442,-0.976333,0.153608,0.041450,0.192886,2.316700,13.616711,9.198540,,,,,,,
1512180273.572704,0.201211,-0.010127,-0.036988,-0.103476,-0.563562,-0.098054,0.199846,0.010126,-0.979775,0.259337,0.070913,-0.079628,2.465717,13.316936,9.947121,,,,,,,
1512180273.592693,0.196095,-0.012146,-0.037716,-0.143175,-0.050965,-0.057401,0.194826,0.012146,-0.980762,0.060057,-0.004318,0.226368,2.842365,13.692501,9.869102,,,,,,,
1512180273.612712,0.204187,-0.009411,-0.038213,0.325337,0.727259,0.013926,0.202762,0.009411,-0.979182,-0.022830,0.045429,-0.038396,2.465763,13.391933,9.347160,,,,,,,
1512180273.632701,0.226695,0.002223,-0.040467,0.692560,1.369808,0.015086,0.224758,-0.002223,-0.974412,-0.029217,-0.015523,0.101899,2.315723,13.391720,9.273430,,,,,,,
1512180273.652690,0.260129,0.018032,-0.044102,0.880570,1.817677,0.014040,0.257164,-0.018031,-0.966199,-0.021370,0.008586,0.012006,1.941502,13.616146,8.826729,,,,,,,
1512180273.672710,0.298124,0.037428,-0.047896,1.003408,1.939394,0.133505,0.293521,-0.037419,-0.955219,-0.065296,0.020116,0.017948,1.943348,14.066158,8.451942,,,,,,,
1512180273.692699,0.335646,0.059151,-0.047972,1.046710,1.817014,0.475914,0.328803,-0.059117,-0.942545,-0.097373,-0.003902,0.036433,1.793156,14.065929,8.078209,,,,,,,
1512180273.712688,0.369026,0.078319,-0.042879,0.708410,1.481883,0.610565,0.359601,-0.078239,-0.929819,0.005191,-0.047905,-0.148901,1.642063,13.840710,7.929375,,,,,,,
1512180273.732677,0.391235,0.095080,-0.034581,0.537482,1.044475,0.740893,0.379607,-0.094937,-0.920262,-0.048812,-0.093113,0.073262,1.789890,13.390926,7.627907,,,,,,,
1512180273.752697,0.404752,0.110904,-0.021708,0.434424,0.559873,1.019153,0.391371,-0.110677,-0.913552,-0.087828,-0.025355,0.045494,1.790897,13.615932,7.628014,,,,,,,
1512180273.772686,0.404646,0.124770,-0.000673,-0.012812,-0.023499,1.283556,0.390633,-0.124447,-0.912094,-0.030556,-0.070316,-0.063537,2.240910,13.616604,7.624184,,,,,,,
1512180273.792675,0.391917,0.130756,0.026455,-0.334417,-0.742095,1.421379,0.378699,-0.130383,-0.916288,0.015985,-0.044543,-0.074846,2.315006,13.391705,7.848442,,,,,,,
1512180273.812694,0.368046,0.133700,0.058516,-0.485984,-1.145408,1.606470,0.356581,-0.133302,-0.924704,-0.054885,-0.053358,0.099661,2.762638,12.867382,7.844368,,,,,,,
1512180273.832683,0.334428,0.137051,0.095442,-0.453798,-1.592431,1.896419,0.325151,-0.136622,-0.935740,-0.044587,-0.050573,0.026576,3.512730,12.868511,7.987999,,,,,,,
1512180273.852672,0.290932,0.142997,0.138940,-0.316064,-2.065189,2.312531,0.283917,-0.142510,-0.948198,-0.113476,-0.032722,0.097948,3.883259,11.819073,8.509315,,,,,,,
1512180273.872692,0.234934,0.153530,0.191881,-0.105042,-2.558415,2.873552,0.230040,-0.152927,-0.961090,-0.138060,-0.023022,0.172439,4.704746,10.995296,8.876930,,,,,,,
1512180273.892681,0.169057,0.166722,0.256155,0.091720,-2.929950,3.464639,0.165920,-0.165951,-0.972075,-0.124737,-0.023457,0.000167,5.828587,10.696987,9.242226,,,,,,,
1512180273.912670,0.068917,0.149642,0.297718,0.377971,-3.440902,2.243175,0.068093,-0.149084,-0.986477,-0.109642,-0.276331,-0.362888,6.500690,9.947994,10.211143,,,,,,,
1512180273.932659,0.017659,0.189071,0.334264,1.811652,-2.505004,1.652086,0.017344,-0.187946,-0.982026,0.069051,0.193516,0.658738,7.546574,9.124554,9.376839,,,,,,,
1512180273.952678,0.001198,0.209963,0.354267,0.042665,0.432060,0.526908,0.001171,-0.208424,-0.978038,0.265003,0.062778,-0.138082,7.621052,9.049664,9.001167,,,,,,,
1512180273.972667,0.006553,0.191899,0.359714,-0.894537,0.984654,0.175182,0.006432,-0.190723,-0.981622,0.067115,0.071522,0.500620,7.466175,7.924435,9.376930,,,,,,,
1512180273.992656,0.034712,0.183896,0.361008,-0.350304,0.668575,-0.003531,0.034120,-0.182862,-0.982546,0.076476,0.021820,-0.081983,7.089375,7.473873,9.829903,,,,,,,
1512180274.012676,0.024428,0.189831,0.358305,0.619180,-1.077167,-0.179986,0.023987,-0.188693,-0.981743,0.092636,-0.027005,-0.264961,7.086597,6.873867,9.679619,,,,,,,
1512180274.032665,0.006978,0.205350,0.353110,0.870984,-0.468753,-0.292553,0.006831,-0.203910,-0.978965,0.045766,0.037818,0.325126,6.784412,6.423412,9.381966,,,,,,,
1512180274.052654,0.000599,0.215218,0.345547,0.215334,-0.372309,-0.415787,0.000585,-0.213561,-0.976929,0.029460,-0.038881,-0.155502,7.157841,6.048977,9.603600,,,,,,,
1512180274.072673,0.003814,0.214463,0.335684,-0.155870,0.162470,-0.505654,0.003726,-0.212823,-0.977083,0.023831,0.023187,0.177157,7.005405,5.523754,9.454643,,,,,,,
1512180274.092662,0.010976,0.213234,0.324537,0.059378,0.138350,-0.565516,0.010727,-0.211622,-0.977292,0.032852,-0.017153,-0.053332,6.852818,4.923519,9.680641,,,,,,,
1512180274.112651,0.007463,0.218674,0.312602,0.376625,-0.392060,-0.564897,0.007285,-0.216935,-0.976158,0.014718,-0.037551,-0.029274,6.775333,4.398403,9.456032,,,,,,,
1512180274.132671,0.008336,0.218435,0.308584,-0.317825,0.149338,0.070826,0.008138,-0.216702,-0.976204,-0.163320,-0.212574,0.119697,6.992954,2.823727,8.853386,,,,,,,
1512180274.152660,0.008838,0.212220,0.315174,-0.177291,-0.083951,0.394001,0.008640,-0.210630,-0.977527,-0.000705,-0.117724,-0.060620,7.144382,3.123959,9.002251,,,,,,,
1512180274.172649,-0.001203,0.219383,0.323204,0.726380,-0.587826,0.389345,-0.001174,-0.217627,-0.976031,0.040817,-0.028375,-0.003782,7.212971,1.699062,9.000969,,,,,,,
1512180274.192638,-0.020406,0.240390,0.333816,1.143466,-0.886731,0.618223,-0.019818,-0.238082,-0.971042,-0.042331,-0.070680,0.066990,7.211536,1.399059,8.850822,,,,,,,
1512180274.212657,-0.028006,0.245383,0.347664,-0.284510,-0.062143,0.625989,-0.027163,-0.242928,-0.969663,0.041583,-0.078895,-0.046694,6.907154,0.498592,8.177956,,,,,,,
1512180274.232646,-0.030029,0.241245,0.357028,0.042691,-0.083575,0.370534,-0.029155,-0.238912,-0.970603,0.045375,-0.037501,-0.054193,6.902760,-0.476414,8.177513,,,,,,,
1512180274.252635,-0.036669,0.243388,0.361834,0.099937,-0.042425,0.133777,-0.035580,-0.240992,-0.969874,0.053067,-0.033224,0.131434,7.348530,-1.375736,7.798271,,,,,,,
1512180274.272655,-0.038818,0.242000,0.362195,-0.104035,-0.185522,-0.045576,-0.037677,-0.239645,-0.970129,0.036228,-0.050791,-0.013315,6.893284,-2.501423,7.426582,,,,,,,
1512180274.292609,-0.039875,0.241979,0.359034,0.000845,-0.048341,-0.192827,-0.038703,-0.239624,-0.970093,0.022788,-0.046661,0.070939,6.589085,-3.401875,7.128716,,,,,,,
1512180274.312598,-0.041265,0.239997,0.357446,-0.122173,-0.078872,0.024891,-0.040071,-0.237700,-0.970511,-0.045363,-0.146547,-0.001001,6.359119,-4.452229,6.680138,,,,,,,
1512180274.332618,-0.042999,0.239627,0.360658,0.034526,-0.061928,0.220177,-0.041757,-0.237340,-0.970528,-0.003058,-0.091868,0.050393,5.829136,-5.503025,6.159126,,,,,,,
1512180274.352607,-0.045651,0.240008,0.365753,0.027782,-0.026728,0.243658,-0.044327,-0.237711,-0.970323,0.045014,-0.065069,0.037554,5.600834,-6.178364,5.635735,,,,,,,
1512180274.372596,-0.047426,0.240582,0.369950,0.037219,-0.036223,0.187257,-0.046043,-0.238268,-0.970107,0.046242,-0.064375,-0.010408,5.146336,-7.079044,4.739128,,,,,,,
1512180274.392585,-0.048673,0.240424,0.374269,-0.010475,0.010610,0.237902,-0.047254,-0.238114,-0.970086,0.028318,-0.073242,0.045999,4.766117,-8.204624,4.441811,,,,,,,
1512180274.412604,-0.050355,0.241364,0.380707,0.082425,0.006242,0.357565,-0.048875,-0.239027,-0.969781,0.007798,-0.111055,0.013147,4.310947,-9.255299,3.545158,,,,,,,
1512180274.432593,-0.052025,0.242052,0.389823,0.041988,0.014478,0.482802,-0.050486,-0.239696,-0.969534,0.003931,-0.104802,0.020605,3.858356,-9.780979,3.098732,,,,,,,
1512180274.452582,-0.054392,0.243009,0.400954,0.088558,0.027194,0.567737,-0.052768,-0.240624,-0.969182,0.006122,-0.094139,0.025869,3.253666,-10.756886,2.503380,,,,,,,
1512180274.472602,-0.056823,0.244193,0.413700,0.086281,0.025986,0.642329,-0.055107,-0.241774,-0.968766,0.008858,-0.091249,0.014756,2.723759,-11.807682,2.132362,,,,,,,
1512180274.492591,-0.059715,0.245098,0.428147,0.080576,0.037550,0.729701,-0.057896,-0.242651,-0.968384,0.010013,-0.087717,0.025787,1.896046,-12.333912,1.464134,,,,,,,
1512180274.512580,-0.063268,0.246221,0.444294,0.106984,0.004324,0.807792,-0.061319,-0.243741,-0.967899,0.020059,-0.069278,0.021793,1.816395,-13.309040,0.939323,,,,,,,
1512180274.532599,-0.067795,0.247374,0.462120,0.107790,-0.011853,0.887703,-0.065680,-0.244859,-0.967331,0.028861,-0.051314,0.017410,0.838093,-13.985508,0.422310,,,,,,,
1512180274.552588,-0.072947,0.248626,0.481467,0.134350,-0.010886,0.957382,-0.070641,-0.246072,-0.966673,0.036751,-0.035895,0.000014,0.308445,-14.961308,-0.098686,,,,,,,
1512180274.572577,-0.077196,0.250696,0.502027,0.201858,0.061761,1.004453,-0.074709,-0.248078,-0.965854,0.038439,-0.012694,0.009662,-0.144070,-15.486988,-0.395088,,,,,,,
1512180274.592597,-0.081927,0.253905,0.523769,0.264900,-0.003405,1.057378,-0.079212,-0.251186,-0.964692,0.037372,-0.010319,0.005982,-0.820309,-15.713001,-0.839470,,,,,,,
1512180274.612586,-0.091137,0.258509,0.547282,0.365322,-0.277983,1.160218,-0.087987,-0.255639,-0.962759,0.022679,-0.016212,-0.054071,-1.199215,-16.538563,-1.211647,,,,,,,
1512180274.632575,-0.105514,0.263748,0.574420,0.392781,-0.400118,1.363808,-0.101676,-0.260700,-0.960050,-0.005349,-0.037395,-0.021914,-3.079464,-17.666386,-1.571236,,,,,,,
1512180274.652564,-0.118508,0.272419,0.597183,0.736904,-0.205572,0.481445,-0.113870,-0.269062,-0.956367,-0.380576,0.100651,0.006690,-3.979916,-17.667728,-2.463585,,,,,,,
1512180274.672583,-0.117958,0.283986,0.597982,0.330098,0.034005,0.014782,-0.112971,-0.280184,-0.953275,-0.052922,-0.025602,0.090451,-4.281185,-17.893192,-2.986122,,,,,,,
1512180274.692572,-0.126815,0.284193,0.604869,-0.057136,-0.467381,0.458369,-0.121402,-0.280383,-0.952179,0.123736,-0.036191,-0.023941,-5.037014,-19.094318,-3.805305,,,,,,,
1512180274.712561,-0.133085,0.283252,0.611384,0.107532,-0.073373,0.124185,-0.127405,-0.279479,-0.951660,0.041651,-0.000321,-0.114456,-4.959042,-18.494205,-3.280678,,,,,,,
1512180274.732581,-0.134128,0.287063,0.610367,0.122053,-0.026962,-0.107845,-0.128254,-0.283136,-0.950465,0.061466,0.032282,0.108286,-5.184612,-18.569538,-3.728798,,,,,,,
1512180274.752570,-0.130259,0.285549,0.609915,-0.099690,0.239469,0.034854,-0.124631,-0.281684,-0.951378,-0.037173,-0.009622,0.059898,-5.333553,-18.269764,-4.327370,,,,,,,
1512180274.772559,-0.127231,0.286864,0.610943,0.138761,0.128712,0.050718,-0.121703,-0.282946,-0.951382,-0.043550,-0.041380,-0.094623,-5.262600,-19.094654,-5.003395,,,,,,,
1512180274.792578,-0.129196,0.288599,0.613504,0.059302,-0.177082,0.134852,-0.123508,-0.284609,-0.950653,0.037235,0.000078,0.013367,-5.936291,-18.795658,-5.072517,,,,,,,
1512180274.812568,-0.131574,0.288113,0.615173,-0.029467,-0.001834,0.030765,-0.125787,-0.284143,-0.950494,-0.024238,0.003885,0.037286,-6.164074,-19.321018,-5.895851,,,,,,,
1512180274.832557,-0.129928,0.289148,0.615325,0.088135,0.116950,0.016895,-0.124184,-0.285135,-0.950408,0.012123,-0.019415,0.010741,-6.311855,-18.796238,-6.194328,,,,,,,
1512180274.852546,-0.129071,0.289591,0.617229,-0.003188,-0.011572,0.118533,-0.123354,-0.285560,-0.950388,0.025331,-0.023262,-0.030233,-6.838360,-19.097019,-6.489998,,,,,,,
1512180274.872565,-0.130453,0.289487,0.619144,0.024446,0.006742,0.059296,-0.124670,-0.285461,-0.950246,-0.018305,-0.012726,-0.008174,-6.762463,-18.871906,-6.715523,,,,,,,
1512180274.892554,-0.130141,0.290243,0.620104,0.034270,0.028148,0.046721,-0.124346,-0.286185,-0.950071,-0.001615,-0.015939,0.011152,-6.988369,-19.022251,-7.163689,,,,,,,
1512180274.912543,-0.129637,0.290344,0.621426,0.015865,0.031288,0.063520,-0.123863,-0.286282,-0.950105,0.004570,-0.023060,-0.025497,-6.837383,-18.797016,-7.239861,,,,,,,
1512180274.932563,-0.130047,0.291061,0.622630,0.048076,-0.009222,0.047856,-0.124226,-0.286968,-0.949850,0.001103,-0.015857,0.000753,-7.139111,-19.097477,-7.987450,,,,,,,
1512180274.952552,-0.130263,0.291362,0.623603,0.008693,0.001402,0.044122,-0.124420,-0.287257,-0.949737,-0.000824,-0.018285,0.012054,-7.738888,-19.023365,-8.207314,,,,,,,
1512180274.972541,-0.130253,0.291760,0.624499,0.036515,0.037778,0.040391,-0.124395,-0.287638,-0.949625,0.002203,-0.017202,0.019053,-7.963223,-18.873707,-8.205330,,,,,,,
1512180274.992560,-0.130071,0.292299,0.625608,0.027692,0.001412,0.056126,-0.124203,-0.288154,-0.949494,-0.002308,-0.024193,-0.000640,-7.889156,-19.023594,-8.731026,,,,,,,
1512180275.012549,-0.130223,0.292663,0.626740,0.024680,0.016382,0.045474,-0.124333,-0.288503,-0.949371,-0.003963,-0.018534,0.019180,-7.963665,-18.873707,-9.105324,,,,,,,
1512180275.032538,-0.130323,0.293126,0.627540,0.024893,0.010002,0.032663,-0.124411,-0.288946,-0.949226,-0.000314,-0.018595,0.024940,-8.265911,-19.324162,-9.552971,,,,,,,
1512180275.052527,-0.129870,0.293425,0.628377,0.021523,0.032401,0.043350,-0.123970,-0.289233,-0.949196,-0.014045,-0.026548,0.002282,-8.412991,-18.649387,-9.776390,,,,,,,
1512180275.072547,-0.130034,0.293877,0.629695,0.029616,0.015272,0.068993,-0.124109,-0.289665,-0.949046,-0.000449,-0.023704,0.014278,-8.714458,-18.949833,-9.998985,,,,,,,
1512180275.092536,-0.130251,0.294201,0.631358,0.019826,0.001351,0.080531,-0.124303,-0.289975,-0.948927,-0.006725,-0.021182,0.006513,-9.014263,-18.800282,-10.971352,,,,,,,
1512180275.112525,-0.130025,0.294571,0.632714,0.032134,0.053777,0.047844,-0.124074,-0.290330,-0.948848,-0.021830,-0.021819,0.007411,-9.542004,-19.326084,-11.717140,,,,,,,
1512180275.132544,-0.129808,0.295126,0.633715,0.027823,0.015312,0.048713,-0.123847,-0.290861,-0.948715,0.000831,-0.018343,0.009109,-9.019558,-19.925297,-11.421867,,,,,,,
1512180275.152533,-0.129475,0.295292,0.634820,0.007509,0.034504,0.053818,-0.123525,-0.291019,-0.948708,-0.009974,-0.017208,0.008691,-9.538784,-18.576069,-12.016792,,,,,,,
1512180275.172522,-0.129358,0.295521,0.636133,0.020134,0.034500,0.063594,-0.123405,-0.291238,-0.948657,-0.012169,-0.014579,0.016406,-10.290661,-18.952198,-12.385582,,,,,,,
1512180275.192542,-0.129047,0.295659,0.637942,0.012055,0.029074,0.100771,-0.123105,-0.291370,-0.948655,-0.006045,-0.015896,0.011384,-10.064938,-18.726856,-12.987389,,,,,,,
1512180275.212531,-0.129129,0.295717,0.640201,0.020560,0.044039,0.103079,-0.123181,-0.291426,-0.948628,-0.011280,-0.004152,0.022985,-10.590511,-18.802647,-13.432961,,,,,,,
1512180275.232520,-0.128799,0.295884,0.642153,0.016613,0.030182,0.082716,-0.122862,-0.291586,-0.948621,-0.009585,-0.001307,0.018628,-10.741253,-18.877872,-14.256721,,,,,,,
1512180275.252539,-0.128209,0.295757,0.643888,-0.002632,0.070740,0.088979,-0.122307,-0.291464,-0.948730,-0.012581,-0.006800,0.019424,-10.813488,-18.202976,-14.780769,,,,,,,
1512180275.272528,-0.128311,0.295672,0.646147,0.007422,0.033293,0.123104,-0.122406,-0.291383,-0.948742,0.000046,0.000184,0.028896,-11.265697,-18.653660,-15.152138,,,,,,,
1512180275.292497,-0.127929,0.295423,0.649058,0.012359,0.051411,0.147758,-0.122053,-0.291145,-0.948861,-0.010164,0.008018,0.019860,-11.489834,-18.354008,-16.125099,,,,,,,
1512180275.312486,-0.127984,0.295160,0.652773,0.006276,0.073743,0.194655,-0.122115,-0.290893,-0.948930,-0.005082,0.013564,0.041215,-11.413494,-17.978886,-16.800545,,,,,,,
1512180275.332506,-0.127639,0.295013,0.657328,0.023875,0.069432,0.225809,-0.121793,-0.290752,-0.949014,-0.012698,0.010341,0.008783,-11.561535,-17.454105,-17.624031,,,,,,,
1512180275.352495,-0.127412,0.294707,0.662509,0.013798,0.105673,0.256704,-0.121590,-0.290459,-0.949130,-0.024651,0.008034,0.027942,-11.862286,-17.529560,-18.446510,,,,,,,
1512180275.372484,-0.127350,0.294345,0.668257,0.003576,0.078882,0.293776,-0.121544,-0.290113,-0.949242,-0.022575,0.011625,0.017387,-12.013042,-17.604786,-19.270256,,,,,,,
1512180275.392504,-0.127237,0.293659,0.674798,0.024555,0.118401,0.317676,-0.121461,-0.289456,-0.949453,-0.039534,0.016598,0.004430,-11.784893,-16.779438,-20.396797,,,,,,,
1512180275.412493,-0.127236,0.293104,0.682116,0.002159,0.100076,0.381249,-0.121481,-0.288925,-0.949612,-0.020060,0.012131,0.024121,-12.083431,-16.329884,-21.519035,,,,,,,
1512180275.432482,-0.127034,0.292216,0.690199,0.018101,0.148154,0.385908,-0.121321,-0.288075,-0.949891,-0.031617,0.008397,0.004731,-12.082409,-16.029896,-22.193901,,,,,,,
1512180275.452501,-0.126513,0.291425,0.698704,0.028595,0.104362,0.394439,-0.120856,-0.287318,-0.950179,-0.022394,-0.037511,0.010467,-11.853207,-14.979542,-23.245323,,,,,,,
1512180275.472490,-0.122719,0.294789,0.701567,0.215475,0.497568,-0.058827,-0.117131,-0.290538,-0.949667,-0.058498,-0.573385,0.094640,-11.778255,-14.904438,-23.995918,,,,,,,
1512180275.492479,-0.107491,0.301821,0.699649,0.365939,0.746683,-0.055780,-0.102435,-0.297259,-0.949285,0.120028,-0.237134,-0.058329,-11.625546,-14.304203,-23.996910,,,,,,,
1512180275.512468,-0.098992,0.307105,0.699964,0.164439,0.228224,-0.014659,-0.094207,-0.302300,-0.948545,-0.001924,0.065499,-0.047045,-11.551037,-14.454090,-23.622627,,,,,,,
1512180275.532488,-0.099801,0.307066,0.699725,-0.086612,-0.170627,-0.002630,-0.094975,-0.302263,-0.948480,0.020054,0.008730,0.003076,-11.474606,-14.153980,-23.473122,,,,,,,
1512180275.552477,-0.102615,0.304949,0.698955,-0.088178,-0.078704,-0.032181,-0.097709,-0.300244,-0.948844,-0.005273,0.025922,0.019828,-11.250729,-14.378635,-23.700142,,,,,,,
1512180275.572466,-0.102419,0.304693,0.698491,0.020396,0.002616,-0.018600,-0.097530,-0.300000,-0.948939,0.012310,0.024198,-0.056508,-11.400433,-14.303867,-23.773827,,,,,,,
1512180275.592485,-0.102019,0.305489,0.698264,0.032153,0.037888,-0.018305,-0.097127,-0.300760,-0.948740,-0.016628,0.024759,0.007136,-11.324642,-14.153751,-23.549400,,,,,,,
1512180275.612474,-0.101882,0.305313,0.697743,-0.032918,-0.033781,-0.019498,-0.097002,-0.300592,-0.948806,0.016100,0.003168,-0.003998,-11.400738,-14.378864,-23.698860,,,,,,,
1512180275.632463,-0.102598,0.304825,0.697242,-0.008373,-0.032674,-0.021272,-0.097697,-0.300126,-0.948883,0.004679,0.022279,-0.025284,-11.174084,-14.003529,-23.775612,,,,,,,
1512180275.652483,-0.102235,0.305339,0.696967,0.027845,0.032533,-0.016255,-0.097336,-0.300616,-0.948764,-0.003463,0.016818,0.005649,-11.625179,-14.229206,-23.921883,,,,,,,
1512180275.672472,-0.102553,0.305246,0.696533,-0.015904,-0.049778,-0.017173,-0.097641,-0.300528,-0.948761,0.022628,0.009467,-0.007111,-11.552166,-14.679081,-23.847725,,,,,,,
1512180275.692461,-0.102624,0.305242,0.696149,0.002318,0.002589,-0.022063,-0.097709,-0.300524,-0.948755,-0.005731,0.021624,0.002192,-11.173336,-13.853519,-23.625526,,,,,,,
1512180275.712480,-0.103063,0.305337,0.695773,0.013898,-0.017700,-0.013435,-0.098121,-0.300615,-0.948684,0.018532,0.004884,0.005889,-10.875805,-14.378071,-23.853325,,,,,,,
1512180275.732469,-0.102759,0.305499,0.695361,-0.010437,-0.019850,-0.024454,-0.097829,-0.300769,-0.948665,-0.002300,0.025058,-0.007344,-11.175289,-14.303532,-23.475746,,,,,,,
1512180275.752458,-0.103485,0.305350,0.695001,0.002162,-0.009175,-0.012509,-0.098521,-0.300627,-0.948639,0.003856,0.006544,0.018753,-11.400021,-14.228870,-23.623802,,,,,,,
1512180275.772447,-0.103438,0.305449,0.694556,0.000137,-0.032662,-0.020082,-0.098474,-0.300722,-0.948614,0.004541,0.013811,-0.012660,-11.478893,-15.053974,-23.923531,,,,,,,
1512180275.792467,-0.103687,0.305528,0.694235,0.003422,0.005807,-0.023097,-0.098708,-0.300797,-0.948565,-0.011338,0.031357,0.018970,-11.327236,-14.678745,-23.999641,,,,,,,
1512180275.812456,-0.103978,0.305395,0.693778,-0.009570,-0.043373,-0.013864,-0.098988,-0.300670,-0.948576,0.009388,-0.003087,-0.009004,-11.249493,-14.078632,-23.924995,,,,,,,
1512180275.832445,-0.104127,0.305379,0.693326,0.001321,-0.000601,-0.025282,-0.099130,-0.300654,-0.948567,-0.022391,0.018794,0.005604,-11.023373,-13.853306,-23.701805,,,,,,,
1512180275.852465,-0.104316,0.305507,0.692903,0.007598,-0.009153,-0.018826,-0.099305,-0.300777,-0.948509,-0.003295,0.001094,0.011681,-11.549831,-14.154087,-23.922478,,,,,,,
1512180275.872454,-0.104223,0.305443,0.692318,-0.014650,-0.026258,-0.027735,-0.099219,-0.300716,-0.948538,-0.005487,-0.001103,-0.009287,-11.400066,-14.228870,-23.698799,,,,,,,
1512180275.892443,-0.104624,0.305369,0.691790,0.003527,-0.001655,-0.029517,-0.099601,-0.300645,-0.948520,-0.014702,0.004869,0.011508,-11.325176,-14.228748,-23.924431,,,,,,,
1512180275.912462,-0.104598,0.305548,0.691224,0.007710,-0.024093,-0.026339,-0.099572,-0.300816,-0.948469,-0.010276,-0.005154,-0.007738,-11.399044,-14.003864,-23.698692,,,,,,,
1512180275.932451,-0.104302,0.305684,0.690580,-0.007079,0.009013,-0.032834,-0.099286,-0.300946,-0.948458,-0.015567,-0.010471,0.016283,-11.025021,-14.228306,-23.626976,,,,,,,
1512180275.952440,-0.105167,0.305418,0.689885,-0.000816,-0.050807,-0.027621,-0.100115,-0.300692,-0.948451,0.002001,-0.018934,-0.009282,-11.324429,-14.078754,-23.774361,,,,,,,
1512180275.972429,-0.104315,0.305918,0.689227,0.009009,0.031477,-0.037854,-0.099291,-0.301169,-0.948387,-0.030943,-0.008798,0.017921,-11.325283,-14.303745,-23.474464,,,,,,,
1512180275.992449,-0.105108,0.305737,0.688536,-0.005030,-0.041192,-0.029779,-0.100050,-0.300996,-0.948362,0.000745,-0.028960,0.021039,-10.950253,-14.228184,-24.077614,,,,,,,
1512180276.012438,-0.104588,0.305993,0.687813,0.000445,-0.003785,-0.037033,-0.099548,-0.301240,-0.948337,-0.009522,-0.021117,0.005283,-11.099163,-14.003407,-23.926231,,,,,,,
1512180276.032427,-0.105205,0.305967,0.687137,-0.000706,-0.009141,-0.032807,-0.100134,-0.301215,-0.948283,-0.015329,-0.015389,0.040202,-11.100140,-14.228413,-23.851341,,,,,,,
1512180276.052446,-0.104904,0.306093,0.686334,-0.000662,-0.028360,-0.036070,-0.099844,-0.301335,-0.948276,0.001395,-0.027583,-0.003644,-11.175396,-14.303532,-23.700737,,,,,,,
1512180276.072435,-0.105041,0.306170,0.685608,0.001538,0.006902,-0.038045,-0.099971,-0.301409,-0.948239,-0.016331,-0.021024,0.031613,-11.175808,-14.378529,-23.850777,,,,,,,
1512180276.092424,-0.105339,0.306092,0.684783,-0.010265,-0.046532,-0.036271,-0.100257,-0.301335,-0.948232,-0.012582,-0.031749,-0.002940,-11.175442,-14.303532,-23.775749,,,,,,,
1512180276.112444,-0.105038,0.306255,0.683996,0.000549,0.010108,-0.043383,-0.099966,-0.301490,-0.948214,-0.026438,-0.020654,0.007555,-11.100842,-14.378407,-23.926414,,,,,,,
1512180276.132433,-0.105442,0.306348,0.683248,0.001422,-0.019818,-0.032812,-0.100346,-0.301578,-0.948145,-0.005107,-0.038159,0.024119,-11.403957,-15.053867,-24.074165,,,,,,,
1512180276.152422,-0.105517,0.306233,0.682347,-0.019773,-0.051876,-0.041758,-0.100421,-0.301469,-0.948172,-0.015714,-0.029403,-0.010354,-11.399868,-14.153858,-23.998756,,,,,,,
1512180276.172441,-0.105650,0.306499,0.681588,0.019800,0.038988,-0.045133,-0.100539,-0.301722,-0.948079,-0.034104,-0.014196,0.051137,-11.324841,-14.153751,-23.924400,,,,,,,
1512180276.192430,-0.105786,0.306476,0.680701,-0.022035,-0.085006,-0.035510,-0.100668,-0.301701,-0.948072,0.000998,-0.040356,-0.018984,-11.250439,-14.303638,-23.775108,,,,,,,
1512180276.212419,-0.106061,0.306504,0.679775,0.009201,0.028297,-0.049588,-0.100928,-0.301727,-0.948036,-0.030435,-0.017090,0.043358,-11.476223,-14.453983,-23.998268,,,,,,,
1512180276.232408,-0.106250,0.306615,0.678860,-0.003776,-0.055058,-0.042605,-0.101104,-0.301833,-0.947984,-0.013764,-0.031266,0.002137,-10.949841,-14.153187,-23.927574,,,,,,,
1512180276.252428,-0.106007,0.306838,0.677868,0.000706,0.011202,-0.051901,-0.100866,-0.302046,-0.947941,-0.019525,-0.026491,0.028325,-11.324764,-14.153751,-23.774406,,,,,,,
1512180276.272417,-0.106517,0.306772,0.676852,-0.007958,-0.034755,-0.045789,-0.101352,-0.301983,-0.947910,-0.019833,-0.026081,0.032657,-11.248638,-13.928638,-23.549919,,,,,,,
1512180276.292382,-0.106282,0.306861,0.675740,-0.007823,-0.021928,-0.054275,-0.101126,-0.302068,-0.947907,-0.023263,-0.029078,0.003128,-11.173489,-13.853519,-23.925529,,,,,,,
1512180276.312402,-0.106567,0.306977,0.674722,0.005000,-0.005881,-0.055099,-0.101393,-0.302178,-0.947843,-0.040132,-0.010490,0.022794,-11.399426,-14.078861,-23.773720,,,,,,,
1512180276.332391,-0.106381,0.307188,0.673606,-0.003686,-0.031547,-0.046785,-0.101210,-0.302379,-0.947798,-0.004854,-0.029774,0.015731,-11.175167,-14.228535,-23.925697,,,,,,,
1512180276.352379,-0.106639,0.307064,0.672407,-0.013044,-0.017650,-0.060732,-0.101459,-0.302261,-0.947810,-0.036847,-0.024308,0.019862,-11.548412,-13.854084,-23.772346,,,,,,,
1512180276.372399,-0.106542,0.307318,0.671230,0.013564,0.001612,-0.057081,-0.101358,-0.302504,-0.947743,-0.007834,-0.037004,0.029499,-11.474346,-14.078968,-23.623085,,,,,,,
1512180276.392388,-0.106659,0.307298,0.669972,-0.019436,-0.064655,-0.063120,-0.101469,-0.302485,-0.947737,-0.021227,-0.018179,0.003493,-11.173031,-13.778522,-23.700493,,,,,,,
1512180276.412377,-0.106577,0.307499,0.668749,0.012647,0.036875,-0.064435,-0.101386,-0.302676,-0.947685,-0.040933,-0.014234,0.057930,-10.948864,-13.928181,-24.002480,,,,,,,
1512180276.432366,-0.106637,0.307445,0.667367,-0.017434,-0.064670,-0.055630,-0.101444,-0.302624,-0.947695,0.000782,-0.041431,-0.002332,-11.323452,-13.853748,-23.849251,,,,,,,
1512180276.452386,-0.106545,0.307582,0.665990,0.003147,0.016578,-0.071039,-0.101352,-0.302755,-0.947663,-0.027356,-0.022852,0.029374,-11.173565,-13.853519,-24.075523,,,,,,,
1512180276.472375,-0.106900,0.307492,0.664597,-0.016189,-0.058231,-0.065180,-0.101692,-0.302669,-0.947654,-0.022698,-0.031162,0.003120,-11.548779,-13.929081,-23.847374,,,,,,,
1512180276.492364,-0.106479,0.307788,0.663195,0.011676,0.014457,-0.070921,-0.101283,-0.302951,-0.947608,-0.027486,-0.026532,0.018104,-11.174084,-14.003529,-23.775612,,,,,,,
1512180276.512383,-0.106696,0.307861,0.661834,-0.015138,-0.042214,-0.064046,-0.101487,-0.303021,-0.947564,-0.014663,-0.033298,0.022149,-10.795742,-13.252949,-23.853447,,,,,,,
1512180276.532372,-0.106829,0.307734,0.660325,-0.009761,-0.031517,-0.066061,-0.101617,-0.302900,-0.947589,-0.015189,-0.036303,0.001696,-10.948177,-13.778187,-24.002419,,,,,,,
1512180276.552361,-0.106703,0.308048,0.658903,0.009618,0.008058,-0.075235,-0.101488,-0.303199,-0.947507,-0.028151,-0.022164,0.026288,-11.172924,-13.703526,-24.150459,,,,,,,
1512180276.572381,-0.106977,0.308090,0.657442,-0.016167,-0.069980,-0.067354,-0.101745,-0.303239,-0.947466,-0.009125,-0.036177,-0.003934,-11.172695,-13.703526,-23.700462,,,,,,,
1512180276.592371,-0.106781,0.308164,0.655888,-0.007494,0.012286,-0.073344,-0.101557,-0.303309,-0.947464,-0.013754,-0.025472,0.030106,-11.019466,-12.953297,-24.001396,,,,,,,
1512180276.612360,-0.107501,0.308136,0.654355,-0.000062,-0.051784,-0.073454,-0.102240,-0.303283,-0.947399,-0.016427,-0.029587,0.010754,-10.947399,-13.628178,-23.777351,,,,,,,
1512180276.632378,-0.106822,0.308494,0.652794,-0.009575,-0.026159,-0.077770,-0.101585,-0.303624,-0.947360,-0.024208,-0.029719,-0.001340,-11.022472,-13.628300,-23.926704,,,,,,,
1512180276.652367,-0.107722,0.308347,0.651190,-0.004298,-0.027224,-0.074498,-0.102443,-0.303484,-0.947313,-0.019154,-0.033384,0.042512,-11.021343,-13.403294,-23.701591,,,,,,,
1512180276.672356,-0.107502,0.308587,0.649573,-0.004219,-0.042167,-0.079879,-0.102226,-0.303712,-0.947263,-0.019325,-0.026961,0.008130,-10.947918,-13.703190,-24.152382,,,,,,,
1512180276.692345,-0.107761,0.308595,0.648031,-0.012795,-0.027229,-0.075684,-0.102472,-0.303720,-0.947234,-0.030188,-0.021170,0.032287,-10.722164,-13.552845,-24.004219,,,,,,,
1512180276.712365,-0.108135,0.308527,0.646330,-0.006474,-0.036840,-0.071361,-0.102828,-0.303656,-0.947216,0.003265,-0.050714,0.021069,-10.646160,-13.327732,-24.004753,,,,,,,
1512180276.732354,-0.108151,0.308729,0.644711,-0.003021,-0.030400,-0.087283,-0.102837,-0.303848,-0.947154,-0.042015,-0.017350,0.016917,-10.721722,-13.477848,-23.779182,,,,,,,
1512180276.752343,-0.108244,0.308943,0.643134,-0.004287,-0.016541,-0.074460,-0.102918,-0.304052,-0.947079,-0.024035,-0.034037,0.042202,-11.246792,-13.478626,-23.924721,,,,,,,
1512180276.772362,-0.108714,0.308698,0.641367,-0.018133,-0.073170,-0.078056,-0.103371,-0.303819,-0.947105,-0.003791,-0.035827,-0.008126,-11.546764,-13.479084,-23.847176,,,,,,,
1512180276.792351,-0.108579,0.309056,0.639766,0.007594,0.003790,-0.082745,-0.103231,-0.304160,-0.947010,-0.032084,-0.021951,0.030568,-11.020519,-13.178288,-24.076500,,,,,,,
1512180276.812340,-0.109204,0.308960,0.638015,-0.018127,-0.062489,-0.078019,-0.103827,-0.304068,-0.946975,-0.007379,-0.036874,0.016768,-10.418575,-12.727390,-24.231392,,,,,,,
1512180276.832361,-0.109020,0.309008,0.636247,-0.011541,-0.020800,-0.087373,-0.103651,-0.304114,-0.946979,-0.010546,-0.014841,0.004566,-10.570599,-13.177616,-24.230324,,,,,,,
1512180276.852350,-0.109788,0.309046,0.634572,-0.004201,-0.052843,-0.080980,-0.104376,-0.304150,-0.946888,-0.022256,-0.038532,0.021305,-11.020748,-13.253300,-23.851524,,,,,,,
1512180276.872339,-0.109613,0.309016,0.632715,-0.025414,-0.041118,-0.087645,-0.104212,-0.304121,-0.946915,-0.011114,-0.033601,-0.000411,-10.945599,-13.178181,-24.227135,,,,,,,
1512180276.892328,-0.110416,0.308994,0.630985,0.005447,-0.032533,-0.083970,-0.104973,-0.304101,-0.946838,-0.016869,-0.009544,0.025756,-10.719433,-12.952839,-23.928932,,,,,,,
1512180276.912347,-0.110230,0.309282,0.629173,-0.007350,-0.045369,-0.084200,-0.104787,-0.304375,-0.946771,-0.024196,-0.036827,0.015298,-10.794765,-13.027958,-23.928337,,,,,,,
1512180276.932336,-0.110573,0.308901,0.627229,-0.037086,-0.047536,-0.091034,-0.105125,-0.304012,-0.946850,-0.017785,-0.024937,0.000637,-10.718914,-12.802845,-24.228874,,,,,,,
1512180276.952325,-0.111102,0.309392,0.625559,0.039637,-0.005764,-0.086577,-0.105609,-0.304480,-0.946646,-0.027814,-0.010660,0.033163,-10.795483,-13.177952,-24.003410,,,,,,,
1512180276.972344,-0.110546,0.309527,0.623699,-0.049999,-0.081753,-0.086012,-0.105079,-0.304608,-0.946663,-0.041574,-0.037997,-0.008232,-10.794582,-12.952946,-24.228310,,,,,,,
1512180276.992333,-0.111856,0.309220,0.621825,0.016181,0.000603,-0.086898,-0.106329,-0.304316,-0.946618,-0.007792,-0.023291,0.047066,-10.795666,-13.177952,-24.378410,,,,,,,
1512180277.012322,-0.111452,0.309748,0.620018,-0.007353,-0.093435,-0.086500,-0.105928,-0.304819,-0.946501,-0.010695,-0.013312,-0.028826,-10.945034,-13.028187,-24.452065,,,,,,,
1512180277.032342,-0.112143,0.309735,0.618158,-0.003922,0.005932,-0.095699,-0.106583,-0.304806,-0.946431,-0.040725,-0.014575,0.064641,-10.944622,-12.953175,-24.302025,,,,,,,
1512180277.052331,-0.112152,0.309844,0.616207,-0.010468,-0.082747,-0.090771,-0.106587,-0.304910,-0.946397,0.012090,-0.022238,-0.023955,-10.644772,-13.027729,-23.929604,,,,,,,
1512180277.072320,-0.112584,0.310208,0.614382,0.009859,-0.015421,-0.092377,-0.106984,-0.305257,-0.946241,-0.040416,-0.007228,0.038877,-10.721645,-13.402851,-24.304146,,,,,,,
1512180277.092340,-0.112766,0.310014,0.612249,-0.032809,-0.053936,-0.092060,-0.107163,-0.305072,-0.946280,-0.009842,-0.039243,-0.002542,-10.944546,-12.953175,-24.152031,,,,,,,
1512180277.112329,-0.113179,0.310200,0.610233,0.019656,-0.030332,-0.105078,-0.107548,-0.305249,-0.946179,-0.003750,-0.001422,-0.026614,-10.946682,-13.403187,-24.377235,,,,,,,
1512180277.132318,-0.113176,0.310710,0.608357,-0.015741,-0.051774,-0.092872,-0.107527,-0.305735,-0.946025,-0.031419,-0.009145,0.027095,-11.171764,-13.403522,-24.525322,,,,,,,
1512180277.152306,-0.114125,0.310071,0.606141,-0.026353,-0.065668,-0.096272,-0.108446,-0.305126,-0.946117,-0.014723,-0.015538,0.000636,-10.718502,-12.727848,-24.078835,,,,,,,
1512180277.172326,-0.113557,0.310736,0.604177,0.022839,0.018803,-0.101662,-0.107886,-0.305760,-0.945976,-0.004266,0.006764,0.028480,-10.718914,-12.802845,-24.228874,,,,,,,
1512180277.192315,-0.114471,0.310328,0.602044,-0.049917,-0.122328,-0.092547,-0.108766,-0.305371,-0.946001,-0.011718,-0.012591,0.000093,-10.793499,-12.727955,-24.078194,,,,,,,
1512180277.212304,-0.114444,0.310133,0.599830,-0.001517,0.008108,-0.111645,-0.108746,-0.305185,-0.946063,-0.052142,0.003260,0.011218,-10.794689,-12.952946,-24.453300,,,,,,,
1512180277.232323,-0.114462,0.310652,0.597884,0.008789,-0.032508,-0.092449,-0.108745,-0.305680,-0.945903,-0.012120,-0.015090,0.040905,-10.793911,-12.802952,-24.228233,,,,,,,
1512180277.252312,-0.114792,0.310165,0.595660,-0.062624,-0.095638,-0.096904,-0.109074,-0.305216,-0.946015,-0.028178,-0.029348,-0.001891,-10.943005,-12.578175,-24.451851,,,,,,,
1512180277.272301,-0.115689,0.309929,0.593536,0.015395,-0.007907,-0.103995,-0.109931,-0.304991,-0.945988,-0.034539,0.005248,0.021397,-10.867641,-12.503071,-24.377464,,,,,,,
1512180277.292312,-0.115082,0.310628,0.591524,0.003539,-0.052798,-0.097925,-0.109333,-0.305657,-0.945843,0.000797,-0.010399,0.015469,-10.717892,-12.577839,-24.228767,,,,,,,
1512180277.312301,-0.115666,0.310342,0.589306,-0.037883,-0.035758,-0.106996,-0.109895,-0.305385,-0.945866,-0.019073,-0.013967,0.060459,-10.718502,-12.727848,-24.078835,,,,,,,
1512180277.332290,-0.116260,0.310080,0.587006,-0.007031,-0.064556,-0.104517,-0.110466,-0.305134,-0.945880,-0.009590,-0.011333,-0.012448,-11.094585,-12.953403,-24.225761,,,,,,,
1512180277.352279,-0.115922,0.310684,0.584777,0.016594,-0.010028,-0.112515,-0.110125,-0.305710,-0.945734,-0.023557,0.001098,0.017649,-10.718609,-12.727848,-24.303841,,,,,,,
1512180277.372298,-0.116156,0.310603,0.582400,-0.033493,-0.057096,-0.115535,-0.110349,-0.305633,-0.945733,-0.032687,-0.010957,0.024056,-10.942226,-12.428165,-24.226784,,,,,,,
1512180277.392287,-0.116766,0.310440,0.580067,-0.004814,-0.066679,-0.109823,-0.110932,-0.305477,-0.945715,-0.025848,-0.007282,-0.034785,-10.416958,-12.352390,-24.381218,,,,,,,
1512180277.412276,-0.116606,0.310951,0.577780,0.002731,-0.015385,-0.111664,-0.110762,-0.305964,-0.945577,-0.026613,0.000865,0.019628,-11.092632,-12.503407,-24.375542,,,,,,,
1512180277.432296,-0.117426,0.310579,0.575324,-0.035714,-0.104108,-0.112533,-0.111551,-0.305610,-0.945599,-0.016699,-0.011132,-0.002628,-10.716702,-12.277836,-24.528633,,,,,,,
1512180277.452285,-0.117402,0.310866,0.572950,0.007098,-0.003621,-0.117959,-0.111518,-0.305883,-0.945515,-0.025536,0.002950,0.030781,-10.944592,-12.878178,-24.901985,,,,,,,
1512180277.472274,-0.117932,0.310780,0.570460,-0.028220,-0.074188,-0.113388,-0.112023,-0.305802,-0.945481,-0.014458,-0.009552,0.024812,-10.941662,-12.278172,-24.451714,,,,,,,
1512180277.492294,-0.117957,0.310668,0.567843,-0.020517,-0.038898,-0.125945,-0.112050,-0.305695,-0.945512,-0.026073,-0.008392,0.005418,-11.091579,-12.278400,-24.300438,,,,,,,
1512180277.512283,-0.118379,0.310798,0.565370,-0.001411,-0.039943,-0.120339,-0.112444,-0.305819,-0.945426,-0.042891,-0.005674,0.030875,-11.017330,-12.428288,-24.451149,,,,,,,
1512180277.532272,-0.118224,0.310869,0.562710,-0.024810,-0.064540,-0.125028,-0.112296,-0.305886,-0.945422,-0.031534,-0.009941,0.011813,-10.717403,-12.427830,-24.603691,,,,,,,
1512180277.552291,-0.118501,0.310842,0.560067,-0.005566,-0.011098,-0.125629,-0.112558,-0.305860,-0.945399,-0.020697,0.001447,0.036814,-10.791988,-12.352955,-24.453026,,,,,,,
1512180277.572280,-0.118891,0.310779,0.557396,-0.022738,-0.095519,-0.122974,-0.112929,-0.305801,-0.945374,-0.016603,-0.009446,-0.014801,-10.640636,-12.052723,-24.454155,,,,,,,
1512180277.592269,-0.118696,0.310852,0.554691,-0.014968,-0.006820,-0.137479,-0.112742,-0.305870,-0.945374,-0.053961,0.001946,0.024323,-10.639965,-11.902729,-24.454094,,,,,,,
1512180277.612258,-0.119285,0.310747,0.551994,-0.017311,-0.075208,-0.128157,-0.113302,-0.305770,-0.945339,-0.008417,-0.014405,0.000621,-10.490002,-11.902500,-24.530373,,,,,,,
1512180277.632278,-0.119286,0.310910,0.549246,-0.003378,-0.050609,-0.131066,-0.113298,-0.305925,-0.945289,-0.037032,-0.006957,0.005974,-10.715496,-11.977833,-24.828484,,,,,,,
1512180277.652267,-0.119131,0.310897,0.546433,-0.029985,-0.023941,-0.132424,-0.113152,-0.305912,-0.945311,-0.016639,-0.022197,0.049895,-10.641094,-12.127720,-24.679192,,,,,,,
1512180277.672256,-0.120101,0.310499,0.543522,-0.019249,-0.089068,-0.139957,-0.114083,-0.305534,-0.945321,-0.023399,-0.023629,-0.019873,-10.717556,-12.427830,-24.903694,,,,,,,
1512180277.692275,-0.119151,0.311112,0.540691,0.000044,0.014577,-0.141450,-0.113163,-0.306117,-0.945243,-0.052837,-0.029042,0.027564,-10.715755,-12.052830,-24.678520,,,,,,,
1512180277.712264,-0.120085,0.310565,0.537712,-0.041797,-0.117962,-0.131857,-0.114066,-0.305597,-0.945303,-0.018076,-0.035025,-0.018121,-10.714108,-11.677830,-24.753349,,,,,,,
1512180277.732253,-0.119483,0.311116,0.534842,0.014014,0.038107,-0.147564,-0.113476,-0.306122,-0.945204,-0.049656,-0.020798,0.046095,-10.339062,-11.677265,-24.681526,,,,,,,
1512180277.752273,-0.120023,0.310744,0.531824,-0.049215,-0.130786,-0.135207,-0.114001,-0.305767,-0.945256,-0.018934,-0.045124,-0.014049,-10.489819,-11.827488,-24.830330,,,,,,,
1512180277.772262,-0.119800,0.310918,0.528868,0.008616,0.014593,-0.144526,-0.113783,-0.305933,-0.945228,-0.031237,-0.015783,0.025474,-10.640301,-11.902729,-25.129082,,,,,,,
1512180277.792251,-0.119903,0.311010,0.525888,-0.036237,-0.067726,-0.143328,-0.113877,-0.306020,-0.945189,-0.030792,-0.036463,0.035628,-10.488201,-11.452488,-24.980156,,,,,,,
1512180277.812240,-0.120086,0.310732,0.522825,-0.016994,-0.048468,-0.146183,-0.114061,-0.305755,-0.945253,-0.035170,-0.026139,-0.000655,-10.336819,-11.152271,-24.906288,,,,,,,
1512180277.832259,-0.119497,0.311378,0.519939,0.010640,-0.006780,-0.139241,-0.113480,-0.306371,-0.945123,-0.017089,-0.026637,0.053094,-10.262493,-11.302158,-24.907005,,,,,,,
1512180277.852248,-0.120081,0.310869,0.516744,-0.063981,-0.108360,-0.143872,-0.114051,-0.305886,-0.945211,-0.019128,-0.033134,0.017096,-10.487835,-11.377491,-24.905128,,,,,,,
1512180277.872237,-0.119910,0.310935,0.513688,0.015121,0.018889,-0.150813,-0.113887,-0.305949,-0.945211,-0.055501,-0.006520,0.024831,-10.638210,-11.452717,-24.978874,,,,,,,
1512180277.892257,-0.119394,0.311358,0.510654,-0.018174,-0.074120,-0.140960,-0.113384,-0.306352,-0.945141,-0.009358,-0.024809,0.003796,-10.336407,-11.077259,-24.756264,,,,,,,
1512180277.912246,-0.119454,0.311050,0.507404,-0.030678,-0.027107,-0.155902,-0.113451,-0.306059,-0.945228,-0.060072,-0.007876,0.024299,-10.111858,-11.151936,-24.983208,,,,,,,
1512180277.932235,-0.118936,0.311412,0.504311,0.006584,-0.001417,-0.151006,-0.112949,-0.306403,-0.945176,-0.038754,-0.009729,0.032136,-10.337490,-11.302265,-24.906364,,,,,,,
1512180277.952255,-0.118587,0.311344,0.501087,-0.035116,-0.079469,-0.147618,-0.112622,-0.306338,-0.945236,-0.016452,-0.033033,-0.027878,-10.337124,-11.227268,-24.831322,,,,,,,
1512180277.972244,-0.118183,0.311295,0.497767,-0.015652,0.024195,-0.159771,-0.112241,-0.306292,-0.945297,-0.039004,-0.005445,0.033492,-9.961514,-11.076710,-24.984444,,,,,,,
1512180277.992233,-0.118075,0.311312,0.494525,-0.016894,-0.069820,-0.153720,-0.112139,-0.306308,-0.945304,-0.031904,-0.008252,-0.006097,-10.183102,-10.327030,-24.907188,,,,,,,
1512180278.012252,-0.117132,0.311448,0.491180,-0.020918,0.003905,-0.164180,-0.111242,-0.306437,-0.945368,-0.033732,-0.014745,0.006861,-9.959576,-10.626698,-25.134239,,,,,,,
1512180278.032241,-0.117101,0.311409,0.487779,-0.011398,-0.028131,-0.160954,-0.111214,-0.306400,-0.945383,-0.014167,-0.006299,0.032282,-10.034298,-10.551807,-25.283562,,,,,,,
1512180278.052230,-0.116516,0.311606,0.484427,-0.018889,-0.056988,-0.161165,-0.110654,-0.306588,-0.945388,-0.039019,0.018822,0.010497,-9.960323,-10.776707,-25.284309,,,,,,,
1512180278.072219,-0.115624,0.311840,0.480995,-0.004911,0.048793,-0.162725,-0.109802,-0.306810,-0.945415,-0.028488,-0.012327,0.063762,-10.033779,-10.476810,-24.908531,,,,,,,
1512180278.092239,-0.115496,0.311469,0.477425,-0.041307,-0.110429,-0.161675,-0.109695,-0.306457,-0.945542,-0.005372,-0.018891,-0.067031,-9.734188,-10.551365,-25.061104,,,,,,,
1512180278.112228,-0.114854,0.312182,0.474142,0.038900,0.055282,-0.168463,-0.109063,-0.307135,-0.945395,-0.057334,0.027839,0.034857,-10.036816,-11.151814,-24.908836,,,,,,,
1512180278.132217,-0.113650,0.312430,0.470658,-0.037026,-0.068764,-0.160401,-0.107916,-0.307372,-0.945450,0.003362,0.004363,-0.022598,-9.810238,-10.776478,-25.135582,,,,,,,
1512180278.152236,-0.113692,0.312361,0.467209,0.000423,-0.002471,-0.166026,-0.107957,-0.307306,-0.945466,-0.009581,-0.011145,-0.001372,-9.582500,-10.176136,-25.062218,,,,,,,
1512180278.172225,-0.112952,0.312812,0.463811,-0.015613,-0.021727,-0.164194,-0.107243,-0.307735,-0.945408,-0.029888,-0.006596,0.003865,-9.509640,-10.626026,-25.288063,,,,,,,
1512180278.192214,-0.112829,0.312604,0.460357,-0.006064,-0.067642,-0.163147,-0.107133,-0.307537,-0.945485,-0.006911,0.010708,-0.055583,-9.509228,-10.551029,-25.138023,,,,,,,
1512180278.212234,-0.111011,0.313612,0.457036,0.014282,0.085137,-0.161254,-0.105380,-0.308496,-0.945370,0.013522,-0.003546,0.071529,-9.357876,-10.250797,-25.139168,,,,,,,
1512180278.232223,-0.112154,0.312579,0.453490,-0.078733,-0.179927,-0.158195,-0.106495,-0.307513,-0.945565,-0.013515,-0.020535,-0.061973,-9.284191,-10.550694,-25.064934,,,,,,,
1512180278.252212,-0.110633,0.313179,0.450127,0.048558,0.125796,-0.169145,-0.105037,-0.308084,-0.945542,-0.008367,0.018793,0.045579,-9.358288,-10.325794,-25.289192,,,,,,,
1512180278.272201,-0.109712,0.313583,0.446842,-0.035085,-0.100830,-0.150892,-0.104152,-0.308469,-0.945514,0.008098,-0.015322,-0.003186,-9.432613,-10.175907,-25.288490,,,,,,,
1512180278.292207,-0.109727,0.312999,0.443359,-0.030479,-0.002515,-0.166473,-0.104186,-0.307914,-0.945692,-0.028626,0.018180,0.023496,-9.133923,-10.475468,-25.216179,,,,,,,
1512180278.312196,-0.108548,0.313521,0.440172,0.019381,0.002870,-0.151875,-0.103054,-0.308410,-0.945654,-0.002217,0.015564,0.007574,-9.433636,-10.400913,-25.288597,,,,,,,
1512180278.332185,-0.108128,0.313453,0.436824,-0.038191,-0.063443,-0.155073,-0.102659,-0.308345,-0.945718,0.005842,-0.013753,-0.001776,-9.283138,-10.325687,-24.989830,,,,,,,
1512180278.352205,-0.107747,0.313408,0.433537,0.004601,0.015685,-0.159505,-0.102300,-0.308303,-0.945771,-0.026743,0.019530,0.031907,-9.432461,-10.175907,-24.988487,,,,,,,
1512180278.372194,-0.106948,0.313715,0.430384,-0.014852,-0.062347,-0.147265,-0.101534,-0.308595,-0.945758,0.000414,0.005509,0.008457,-9.355846,-9.800800,-25.138954,,,,,,,
1512180278.392183,-0.106768,0.313470,0.427080,-0.029507,-0.001459,-0.161126,-0.101372,-0.308361,-0.945852,-0.026314,0.000088,0.024191,-9.356304,-9.875797,-25.363991,,,,,,,
1512180278.412202,-0.106291,0.313510,0.423859,-0.002048,-0.035626,-0.146988,-0.100920,-0.308400,-0.945888,0.001554,0.004628,-0.011113,-9.505932,-9.801014,-25.287682,,,,,,,
1512180278.432191,-0.105614,0.313810,0.420748,-0.011628,-0.035641,-0.148194,-0.100270,-0.308685,-0.945864,0.018772,-0.005356,0.001055,-9.131603,-9.950459,-25.290932,,,,,,,
1512180278.452180,-0.105661,0.313565,0.417544,-0.027504,-0.015355,-0.153682,-0.100322,-0.308452,-0.945934,-0.022969,-0.000554,0.023861,-9.132381,-10.100468,-25.515999,,,,,,,
1512180278.472200,-0.105087,0.313740,0.414355,0.000122,-0.037752,-0.149095,-0.099773,-0.308619,-0.945938,0.012447,-0.003668,-0.016495,-9.131634,-9.950459,-25.365929,,,,,,,
1512180278.492189,-0.104745,0.313793,0.411258,-0.026489,-0.040992,-0.151624,-0.099448,-0.308669,-0.945956,-0.014230,-0.007555,-0.014463,-9.129910,-9.575459,-25.290764,,,,,,,
1512180278.512178,-0.104333,0.313790,0.408105,-0.005261,0.006018,-0.144761,-0.099058,-0.308666,-0.945998,-0.006075,-0.033696,0.001509,-9.131298,-9.875462,-25.365898,,,,,,,
1512180278.532167,-0.104144,0.313894,0.405058,-0.006436,-0.071960,-0.140780,-0.098876,-0.308765,-0.945984,0.003051,-0.001767,-0.034362,-9.055965,-9.800343,-25.366508,,,,,,,
1512180278.552187,-0.103318,0.314420,0.402108,0.003369,0.035955,-0.148793,-0.098078,-0.309265,-0.945904,-0.025686,-0.001038,0.054257,-8.906033,-9.800129,-25.517784,,,,,,,
1512180278.572176,-0.103381,0.314056,0.399053,-0.036378,-0.092316,-0.137024,-0.098149,-0.308919,-0.946010,-0.011333,-0.044139,-0.016103,-8.980968,-9.800236,-25.367134,,,,,,,
1512180278.592165,-0.102884,0.314363,0.396213,0.010648,0.002834,-0.139208,-0.097670,-0.309210,-0.945964,-0.030703,-0.007272,-0.009816,-8.904018,-9.350117,-25.517570,,,,,,,
1512180278.612184,-0.102619,0.314669,0.393376,-0.010816,-0.019650,-0.132137,-0.097409,-0.309502,-0.945896,-0.015292,-0.019051,0.033451,-8.604046,-9.349674,-25.595116,,,,,,,
1512180278.632173,-0.102561,0.314406,0.390449,-0.023577,-0.069860,-0.135691,-0.097363,-0.309251,-0.945982,0.006176,-0.025923,-0.033342,-8.904049,-9.350117,-25.592567,,,,,,,
1512180278.652162,-0.102103,0.314997,0.387747,0.017085,0.021010,-0.140114,-0.096910,-0.309814,-0.945845,-0.023909,-0.009232,0.037184,-8.754131,-9.349903,-25.743843,,,,,,,
1512180278.672182,-0.102335,0.314716,0.384852,-0.039730,-0.114768,-0.128621,-0.097139,-0.309546,-0.945909,0.006257,-0.029809,-0.021971,-8.903973,-9.350117,-25.442574,,,,,,,
1512180278.692171,-0.101888,0.314913,0.381980,0.011746,0.042360,-0.139054,-0.096710,-0.309734,-0.945892,-0.004929,-0.028111,0.043594,-8.754086,-9.349903,-25.668846,,,,,,,
1512180278.712160,-0.102141,0.314920,0.379181,-0.034280,-0.098723,-0.134882,-0.096949,-0.309740,-0.945865,-0.017355,-0.031156,-0.004605,-8.529095,-9.349567,-25.670753,,,,,,,
1512180278.732149,-0.101811,0.314734,0.376309,-0.014044,-0.032469,-0.130092,-0.096642,-0.309564,-0.945954,-0.005958,-0.037619,-0.019927,-8.829128,-9.350010,-25.743202,,,,,,,
1512180278.752168,-0.101684,0.315062,0.373535,0.002095,0.018845,-0.136074,-0.096512,-0.309876,-0.945865,-0.014435,-0.021667,0.061466,-8.752819,-9.049885,-25.818703,,,,,,,
1512180278.772157,-0.101956,0.314748,0.370794,-0.036572,-0.113702,-0.126441,-0.096779,-0.309576,-0.945936,-0.028129,-0.031747,-0.028582,-8.754391,-9.424900,-25.593880,,,,,,,
1512180278.792146,-0.101033,0.314919,0.368059,0.003044,0.035919,-0.128540,-0.095901,-0.309740,-0.945972,-0.011856,-0.029524,0.029209,-8.905285,-9.575123,-26.042671,,,,,,,
1512180278.812166,-0.101365,0.314911,0.365471,-0.018485,-0.049590,-0.120623,-0.096215,-0.309732,-0.945943,-0.034705,-0.034720,0.046101,-8.602474,-8.974674,-25.819939,,,,,,,
1512180278.832155,-0.100715,0.314821,0.362853,-0.020515,-0.031423,-0.125920,-0.095603,-0.309646,-0.946033,-0.031442,-0.030289,0.000232,-8.377819,-9.049335,-25.821892,,,,,,,
1512180278.852144,-0.100303,0.315020,0.360368,0.002831,0.012394,-0.116899,-0.095207,-0.309836,-0.946011,-0.009758,-0.019739,0.052929,-8.978268,-9.125233,-26.041832,,,,,,,
1512180278.872163,-0.100339,0.314821,0.357838,-0.037727,-0.068855,-0.118839,-0.095248,-0.309646,-0.946069,-0.022901,-0.029084,0.008202,-8.830593,-9.650013,-25.968346,,,,,,,
1512180278.892152,-0.099754,0.314764,0.355333,-0.003523,0.018799,-0.119101,-0.094696,-0.309592,-0.946142,-0.015823,-0.022775,0.003042,-8.378109,-9.124332,-25.746925,,,,,,,
1512180278.912141,-0.099663,0.315006,0.352929,-0.002651,-0.043176,-0.110777,-0.094602,-0.309823,-0.946076,0.023176,-0.021568,0.012604,-8.449780,-8.374439,-25.820946,,,,,,,
1512180278.932161,-0.099520,0.314781,0.350449,-0.039791,-0.060301,-0.122035,-0.094474,-0.309608,-0.946159,-0.019189,-0.018120,0.001319,-8.376873,-8.824329,-25.971794,,,,,,,
1512180278.952150,-0.099416,0.314670,0.347936,-0.000298,0.017736,-0.121192,-0.094378,-0.309503,-0.946203,0.001895,-0.019721,0.018987,-8.376873,-8.824329,-25.971794,,,,,,,
1512180278.972139,-0.099270,0.314791,0.345483,-0.018606,-0.077373,-0.114324,-0.094237,-0.309618,-0.946179,0.019820,-0.034590,-0.030216,-8.378979,-9.274342,-26.122002,,,,,,,
1512180278.992128,-0.099318,0.314522,0.342941,-0.029128,-0.022904,-0.120686,-0.094290,-0.309362,-0.946257,-0.016290,-0.020335,0.007064,-8.376568,-8.749332,-26.046761,,,,,,,
1512180279.012148,-0.099494,0.314507,0.340533,-0.000520,-0.035699,-0.110722,-0.094457,-0.309348,-0.946245,0.008123,-0.022546,0.015703,-8.375179,-8.449329,-25.971611,,,,,,,
1512180279.032137,-0.099425,0.314449,0.338147,-0.036749,-0.066728,-0.113488,-0.094394,-0.309293,-0.946270,0.000736,-0.035251,0.000499,-8.374737,-8.299320,-26.421547,,,,,,,
1512180279.052126,-0.100186,0.314139,0.335804,-0.010163,-0.028244,-0.107638,-0.095124,-0.308998,-0.946293,-0.016585,-0.027352,0.033131,-8.825558,-8.525013,-26.042824,,,,,,,
1512180279.072145,-0.100243,0.314276,0.333594,-0.008234,-0.083800,-0.097139,-0.095173,-0.309128,-0.946246,0.011830,-0.041779,0.011584,-8.675945,-8.599781,-26.119133,,,,,,,
1512180279.092134,-0.100756,0.314123,0.331441,-0.026220,-0.036818,-0.103635,-0.095663,-0.308982,-0.946244,-0.005762,-0.028374,0.045655,-8.526608,-8.749561,-26.120476,,,,,,,
1512180279.112123,-0.101437,0.314111,0.329371,-0.005058,-0.052827,-0.094856,-0.096308,-0.308971,-0.946182,-0.003347,-0.038182,0.057800,-8.604397,-9.349674,-26.270119,,,,,,,
1512180279.132143,-0.102107,0.313791,0.327401,-0.036137,-0.112709,-0.088053,-0.096952,-0.308667,-0.946216,-0.010729,-0.031970,-0.007321,-8.151318,-8.673985,-26.198631,,,,,,,
1512180279.152132,-0.102291,0.314132,0.325505,0.024943,0.040162,-0.099428,-0.097116,-0.308991,-0.946093,-0.018363,-0.027466,0.071352,-8.075344,-8.448872,-26.274162,,,,,,,
1512180279.172121,-0.102575,0.314075,0.323660,-0.044852,-0.134105,-0.077592,-0.097387,-0.308937,-0.946083,0.003026,-0.030525,0.013954,-8.300488,-8.449207,-26.572243,,,,,,,
1512180279.192110,-0.103751,0.313623,0.321799,-0.006257,-0.020802,-0.085167,-0.098513,-0.308507,-0.946106,-0.016294,-0.016887,0.043137,-8.525753,-8.524555,-26.420372,,,,,,,
1512180279.212129,-0.103369,0.313946,0.319976,0.000191,-0.029327,-0.088299,-0.098141,-0.308814,-0.946045,-0.010120,-0.038965,0.014893,-8.451504,-8.674442,-26.571068,,,,,,,
1512180279.232118,-0.104185,0.313539,0.318196,-0.050013,-0.103116,-0.086086,-0.098926,-0.308427,-0.946089,-0.008389,-0.018797,0.000121,-8.447720,-7.849430,-26.420692,,,,,,,
1512180279.252107,-0.104818,0.313520,0.316450,0.009696,0.006988,-0.081641,-0.099526,-0.308409,-0.946032,-0.031822,-0.011385,0.040866,-8.374737,-8.299320,-26.421547,,,,,,,
1512180279.272127,-0.104605,0.313387,0.314597,-0.034130,-0.078538,-0.078308,-0.099329,-0.308283,-0.946094,0.014581,-0.043997,-0.023419,-8.524181,-8.149555,-26.645195,,,,,,,
1512180279.292089,-0.105579,0.313128,0.312868,-0.010478,-0.040027,-0.088492,-0.100259,-0.308036,-0.946076,-0.007178,-0.024346,0.007905,-8.524883,-8.299549,-26.720268,,,,,,,
1512180279.312078,-0.105792,0.313461,0.311189,0.001071,-0.024006,-0.076541,-0.100449,-0.308352,-0.945953,-0.007812,-0.020017,0.061355,-8.599056,-8.149662,-26.419563,,,,,,,
1512180279.332097,-0.106485,0.312706,0.309290,-0.049032,-0.124486,-0.081882,-0.101130,-0.307634,-0.946114,0.026453,-0.023115,-0.044883,-8.599850,-8.299656,-26.644630,,,,,,,
1512180279.352086,-0.106484,0.313338,0.307705,0.031202,0.071130,-0.089635,-0.101108,-0.308236,-0.945921,-0.024579,-0.013130,0.084684,-8.674511,-8.224781,-26.643959,,,,,,,
1512180279.372075,-0.107179,0.312713,0.305930,-0.074856,-0.172618,-0.069630,-0.101786,-0.307641,-0.946042,-0.005666,-0.035316,-0.053043,-8.599926,-8.299656,-26.794624,,,,,,,
1512180279.392095,-0.107942,0.312569,0.304269,0.032117,0.045482,-0.081180,-0.102512,-0.307504,-0.946008,-0.004513,-0.030738,0.013193,-8.600002,-8.299656,-26.944618,,,,,,,
1512180279.412084,-0.107284,0.313416,0.302848,-0.003368,-0.041126,-0.067071,-0.101862,-0.308310,-0.945816,0.003534,-0.038538,0.034790,-8.823986,-8.075001,-26.942604,,,,,,,
1512180279.432073,-0.108920,0.312189,0.301144,-0.074809,-0.130964,-0.071622,-0.103450,-0.307143,-0.946023,0.002254,-0.017060,-0.032965,-8.673611,-7.999775,-26.868858,,,,,,,
1512180279.452062,-0.109006,0.312643,0.299793,0.058648,0.056183,-0.074366,-0.103516,-0.307575,-0.945876,-0.010208,-0.008206,0.003722,-9.126873,-8.675449,-27.315331,,,,,,,
1512180279.472081,-0.108347,0.313097,0.298434,-0.036605,-0.079655,-0.058095,-0.102878,-0.308006,-0.945805,0.030170,-0.054344,0.001805,-8.597942,-7.849659,-26.869423,,,,,,,
1512180279.492070,-0.110211,0.312182,0.297006,-0.033249,-0.047583,-0.065394,-0.104671,-0.307136,-0.945891,0.005840,-0.015053,0.034163,-8.522976,-7.849552,-26.945061,,,,,,,
1512180279.512059,-0.110094,0.312343,0.295843,0.006009,-0.065705,-0.055295,-0.104556,-0.307289,-0.945854,0.003833,-0.022941,-0.063332,-8.897305,-7.700108,-26.941795,,,,,,,
1512180279.532079,-0.110036,0.312665,0.294624,0.001869,0.021890,-0.058247,-0.104490,-0.307596,-0.945762,0.025708,-0.035651,0.063316,-9.123943,-8.075459,-26.865059,,,,,,,
1512180279.552068,-0.111286,0.311953,0.293447,-0.050650,-0.137371,-0.048902,-0.105696,-0.306918,-0.945848,-0.000383,-0.015622,-0.017378,-9.125454,-8.375446,-27.165199,,,,,,,
1512180279.572057,-0.111242,0.312122,0.292444,0.019852,0.055010,-0.048278,-0.105649,-0.307079,-0.945801,-0.002872,-0.045857,0.031693,-8.747677,-7.774891,-27.018105,,,,,,,
1512180279.592077,-0.111841,0.311850,0.291452,-0.032691,-0.113866,-0.037900,-0.106225,-0.306820,-0.945821,0.023827,-0.054218,-0.033656,-8.822933,-7.849995,-26.867500,,,,,,,
1512180279.612066,-0.112619,0.311995,0.290647,0.014354,0.012259,-0.039977,-0.106955,-0.306958,-0.945693,0.016516,-0.003131,0.074310,-9.047344,-7.700336,-27.015526,,,,,,,
1512180279.632055,-0.113052,0.311740,0.289766,-0.036949,-0.078626,-0.036774,-0.107374,-0.306715,-0.945725,0.018720,-0.029588,0.023422,-9.122570,-7.775455,-26.789925,,,,,,,
1512180279.652044,-0.113507,0.311597,0.288949,-0.002670,-0.003789,-0.043480,-0.107810,-0.306579,-0.945719,0.016043,-0.029038,0.034816,-8.897976,-7.850117,-26.941872,,,,,,,
1512180279.672063,-0.114305,0.311869,0.288364,0.011914,-0.046527,-0.024226,-0.108554,-0.306838,-0.945550,0.005679,-0.012742,0.059091,-8.671032,-7.399769,-27.093575,,,,,,,
1512180279.692052,-0.114332,0.311504,0.287550,-0.048801,-0.049824,-0.028319,-0.108593,-0.306490,-0.945659,0.021725,-0.033704,0.018275,-9.196926,-7.625553,-26.864220,,,,,,,
1512180279.712041,-0.115544,0.311448,0.286989,0.032418,0.000527,-0.037626,-0.109740,-0.306437,-0.945543,-0.001893,0.006663,0.041689,-8.897045,-7.625111,-27.091759,,,,,,,
1512180279.732061,-0.114853,0.311681,0.286511,-0.033098,-0.082944,-0.012215,-0.109079,-0.306659,-0.945548,-0.008474,-0.018093,-0.016397,-9.272945,-7.850681,-26.863686,,,,,,,
1512180279.752050,-0.116166,0.311303,0.285925,0.007690,0.053873,-0.021806,-0.110334,-0.306299,-0.945519,0.017392,-0.025778,0.079903,-9.045956,-7.400333,-26.940392,,,,,,,
1512180279.772039,-0.115690,0.311639,0.285541,0.001047,-0.074344,-0.013823,-0.109871,-0.306620,-0.945469,0.020516,-0.023413,-0.042599,-9.122265,-7.700443,-26.864891,,,,,,,
1512180279.792058,-0.116190,0.311439,0.285146,-0.020061,0.008963,-0.022366,-0.110352,-0.306429,-0.945475,-0.000442,-0.007032,0.050623,-8.896969,-7.625111,-26.941765,,,,,,,
1512180279.812047,-0.116419,0.311279,0.284753,-0.003996,0.009000,-0.026395,-0.110573,-0.306277,-0.945498,0.000695,0.003908,0.006839,-9.045773,-7.325336,-27.240349,,,,,,,
1512180279.832036,-0.116141,0.311449,0.284523,0.003044,-0.051924,-0.004120,-0.110305,-0.306439,-0.945477,0.023910,-0.019688,-0.044727,-8.972759,-7.775227,-27.166206,,,,,,,
1512180279.852056,-0.116228,0.311454,0.284179,-0.008554,0.033518,-0.008257,-0.110388,-0.306443,-0.945466,0.018194,-0.021881,0.046754,-8.896694,-7.550114,-27.091728,,,,,,,
1512180279.872045,-0.116862,0.311083,0.283870,-0.006387,-0.039104,-0.013808,-0.111000,-0.306090,-0.945509,0.004051,-0.000383,-0.008944,-9.122082,-7.625446,-27.164864,,,,,,,
1512180279.892034,-0.115823,0.311612,0.283759,0.014971,0.041040,-0.012153,-0.109999,-0.306593,-0.945463,0.013334,-0.011125,0.003828,-9.272533,-7.775669,-26.713646,,,,,,,
1512180279.912023,-0.116452,0.311363,0.283559,-0.016062,-0.017764,-0.007476,-0.110602,-0.306357,-0.945469,-0.008661,-0.013117,0.015156,-9.194637,-7.100559,-27.013969,,,,,,,
1512180279.932042,-0.115886,0.311392,0.283372,0.011615,0.003637,-0.003801,-0.110066,-0.306384,-0.945523,0.022008,-0.010984,-0.032276,-9.270245,-7.250675,-26.863411,,,,,,,
1512180279.952031,-0.115266,0.311886,0.283347,0.021288,0.072017,-0.005557,-0.109462,-0.306854,-0.945440,0.019039,-0.006562,0.041418,-8.895275,-7.250111,-26.941597,,,,,,,
1512180279.972020,-0.115283,0.311544,0.283167,-0.020418,-0.051967,-0.004463,-0.109490,-0.306528,-0.945543,0.019448,0.004771,-0.031279,-9.269863,-7.175663,-26.788368,,,,,,,
1512180279.992040,-0.114145,0.311937,0.283172,0.034033,0.083779,-0.002133,-0.108401,-0.306903,-0.945547,0.023302,0.018222,0.011678,-8.970837,-7.400227,-26.716026,,,,,,,
1512180280.012029,-0.113523,0.312202,0.283162,-0.015971,0.049532,-0.010441,-0.107803,-0.307155,-0.945533,-0.010223,-0.011662,0.045448,-9.042233,-6.575321,-26.940010,,,,,,,
1512180280.032018,-0.113280,0.311783,0.283098,-0.001392,-0.013503,0.007675,-0.107588,-0.306756,-0.945687,0.014739,-0.019096,-0.053138,-8.818630,-6.874989,-27.017052,,,,,,,
1512180280.052038,-0.111456,0.312693,0.283210,0.049885,0.116898,0.007806,-0.105832,-0.307622,-0.945604,0.038617,-0.004557,0.038057,-8.820843,-7.399998,-26.717293,,,,,,,
1512180280.072027,-0.111244,0.312335,0.283169,-0.043742,-0.001780,-0.008887,-0.105644,-0.307282,-0.945736,0.009071,-0.012207,0.030407,-8.970318,-7.250217,-27.015953,,,,,,,
1512180280.092016,-0.110479,0.312217,0.283292,0.021115,0.034611,0.002838,-0.104924,-0.307170,-0.945852,-0.006878,-0.001165,-0.042047,-8.668774,-6.949772,-26.643364,,,,,,,
1512180280.112035,-0.109089,0.313084,0.283550,0.036906,0.084816,0.018170,-0.103580,-0.307994,-0.945732,0.047535,-0.018575,0.042473,-8.746136,-7.474888,-26.642967,,,,,,,
1512180280.132024,-0.108622,0.312581,0.283595,-0.049325,-0.003957,0.005948,-0.103155,-0.307515,-0.945935,0.043936,-0.031184,0.011685,-8.819454,-7.099995,-26.642159,,,,,,,
1512180280.152013,-0.108224,0.312626,0.283995,0.034753,0.068785,0.018080,-0.102777,-0.307558,-0.945962,0.034875,0.002306,0.004312,-8.819378,-7.099995,-26.492165,,,,,,,
1512180280.172002,-0.107279,0.313023,0.284332,0.012259,0.018543,0.022913,-0.101870,-0.307936,-0.945937,0.060183,-0.009996,0.012236,-8.595089,-7.249653,-26.569145,,,,,,,
1512180280.192022,-0.106356,0.312761,0.284615,-0.027880,0.052699,0.001125,-0.101006,-0.307687,-0.946111,0.032891,0.004357,0.017614,-8.822308,-7.700001,-26.942436,,,,,,,
1512180280.212011,-0.106398,0.312825,0.285282,0.038598,0.015339,0.041405,-0.101043,-0.307747,-0.946087,0.048583,-0.009391,-0.016773,-8.895611,-7.325108,-26.941628,,,,,,,
1512180280.232000,-0.104776,0.313098,0.285720,-0.011305,0.055869,0.030159,-0.099500,-0.308007,-0.946166,0.053251,-0.001136,0.007537,-8.667202,-6.574772,-26.868187,,,,,,,
1512180280.252019,-0.105173,0.312935,0.286468,0.022905,0.053796,0.024251,-0.099881,-0.307853,-0.946176,0.011288,0.024238,0.033212,-8.518810,-6.949543,-26.719643,,,,,,,
1512180280.272008,-0.103210,0.313370,0.287243,-0.006263,0.019528,0.046097,-0.098009,-0.308266,-0.946238,0.037600,-0.034645,-0.053320,-8.744793,-7.174885,-26.642830,,,,,,,
1512180280.291977,-0.103904,0.312860,0.287970,0.016277,0.040943,0.037970,-0.098683,-0.307781,-0.946325,0.036076,0.005016,-0.007425,-8.442806,-6.724430,-26.720177,,,,,,,
1512180280.311997,-0.101712,0.313931,0.288972,0.033334,0.113601,0.041669,-0.096574,-0.308800,-0.946211,0.028657,0.019616,0.020658,-8.523312,-7.924549,-26.945091,,,,,,,
1512180280.331986,-0.102332,0.313178,0.289819,-0.028740,-0.060624,0.047625,-0.097185,-0.308084,-0.946382,0.031068,-0.026221,-0.078826,-8.370129,-7.249317,-26.646049,,,,,,,
1512180280.351975,-0.100745,0.313906,0.290796,0.061181,0.148908,0.035800,-0.095660,-0.308777,-0.946311,0.031054,0.013031,0.011543,-8.368511,-6.874317,-26.795891,,,,,,,
1512180280.371964,-0.100329,0.314317,0.291970,-0.001123,-0.005051,0.056748,-0.095254,-0.309167,-0.946225,0.045144,0.000481,0.020200,-8.593777,-6.949650,-26.644005,,,,,,,
1512180280.391983,-0.099359,0.314352,0.292917,0.021371,0.102872,0.055316,-0.094335,-0.309200,-0.946306,0.050939,-0.037785,0.013994,-8.296398,-7.549213,-26.496834,,,,,,,
1512180280.411972,-0.098759,0.314555,0.293977,0.021315,0.023828,0.055041,-0.093761,-0.309393,-0.946300,0.061718,-0.001886,-0.012333,-8.369976,-7.249317,-26.346062,,,,,,,
1512180280.431961,-0.097528,0.315219,0.295236,0.026945,0.103978,0.040476,-0.092576,-0.310025,-0.946210,0.005784,0.019787,0.043256,-8.221737,-7.624104,-26.497505,,,,,,,
1512180280.451981,-0.096724,0.315123,0.296410,-0.003277,0.037659,0.058993,-0.091818,-0.309934,-0.946314,0.026327,-0.011630,-0.008474,-8.596401,-7.549656,-26.494286,,,,,,,
1512180280.471970,-0.095431,0.315650,0.297689,0.042534,0.096474,0.064127,-0.090578,-0.310434,-0.946269,0.029512,-0.004813,0.004222,-7.845684,-7.398533,-26.425591,,,,,,,
1512180280.491959,-0.094622,0.315800,0.299019,0.007203,0.046202,0.070903,-0.089809,-0.310577,-0.946295,0.016673,0.017548,-0.004922,-7.921627,-7.623646,-26.275063,,,,,,,
1512180280.511978,-0.093130,0.315933,0.300175,0.028685,0.095389,0.063925,-0.088393,-0.310703,-0.946388,0.071288,-0.010510,-0.032235,-7.922451,-7.773655,-26.575127,,,,,,,
1512180280.531967,-0.092224,0.316575,0.301641,0.024695,0.083667,0.046769,-0.087517,-0.311314,-0.946268,0.018639,0.035755,0.034357,-7.997341,-7.773762,-26.349495,,,,,,,
1512180280.551956,-0.091678,0.316355,0.303075,-0.020512,0.003440,0.069289,-0.087006,-0.311104,-0.946384,0.009034,0.002541,-0.037319,-8.149471,-8.223988,-26.573418,,,,,,,
1512180280.571976,-0.090023,0.316860,0.304397,0.064833,0.162723,0.073211,-0.085426,-0.311584,-0.946370,0.078743,-0.040222,0.004399,-7.846966,-7.698536,-26.275734,,,,,,,
1512180280.591965,-0.089575,0.316896,0.305895,-0.023856,-0.032904,0.075507,-0.085001,-0.311619,-0.946397,0.078729,0.011372,-0.024718,-7.472301,-7.772968,-26.278954,,,,,,,
1512180280.611954,-0.089199,0.316871,0.307430,0.030781,0.135977,0.068362,-0.084646,-0.311595,-0.946437,0.054495,0.025279,0.052898,-8.072598,-7.848881,-26.198891,,,,,,,
1512180280.631943,-0.087938,0.316966,0.308966,0.003887,-0.009361,0.074924,-0.083450,-0.311685,-0.946513,0.062912,-0.021170,-0.062627,-7.847591,-7.848530,-26.200798,,,,,,,
1512180280.651963,-0.087138,0.317373,0.310748,0.022071,0.124194,0.078855,-0.082681,-0.312072,-0.946454,0.031442,-0.004548,0.062771,-7.697826,-7.923313,-25.977104,,,,,,,
1512180280.671952,-0.087101,0.316924,0.312434,-0.017733,0.003388,0.093845,-0.082658,-0.311646,-0.946596,0.058595,-0.020386,-0.007307,-7.474178,-8.222980,-25.979164,,,,,,,
1512180280.691941,-0.086219,0.316990,0.314322,0.017493,0.069672,0.094587,-0.081822,-0.311707,-0.946648,0.060628,-0.028090,-0.018913,-7.473492,-8.072971,-25.979088,,,,,,,
1512180280.711960,-0.086753,0.316920,0.316438,-0.002809,0.006616,0.094073,-0.082329,-0.311641,-0.946626,0.003304,0.003185,0.014528,-7.699215,-8.223316,-26.052254,,,,,,,
1512180280.731949,-0.086595,0.316593,0.318490,-0.009354,0.010862,0.103588,-0.082189,-0.311330,-0.946740,0.028417,-0.008753,-0.009574,-7.775112,-8.448429,-25.826714,,,,,,,
1512180280.751938,-0.086801,0.316541,0.320687,0.012987,0.046139,0.108300,-0.082385,-0.311281,-0.946739,0.054447,-0.017896,0.022484,-7.999325,-8.223759,-26.274696,,,,,,,
1512180280.771958,-0.087432,0.316156,0.322829,-0.019074,-0.028685,0.109708,-0.082993,-0.310915,-0.946807,0.051422,-0.004316,0.004745,-7.774059,-8.223423,-25.751610,,,,,,,
1512180280.791947,-0.088062,0.315685,0.324913,-0.002880,0.002335,0.098322,-0.083602,-0.310468,-0.946900,0.040344,0.017453,0.002976,-8.224255,-8.224110,-26.122795,,,,,,,
1512180280.811936,-0.088228,0.315720,0.327052,-0.001612,0.050429,0.088915,-0.083758,-0.310501,-0.946875,0.013827,0.007355,0.041724,-8.074215,-8.223881,-26.049065,,,,,,,
1512180280.831925,-0.089162,0.315017,0.328969,-0.030614,-0.057521,0.096646,-0.084662,-0.309833,-0.947014,0.015769,-0.003873,-0.025108,-8.225231,-8.449100,-26.047890,,,,,,,
1512180280.851944,-0.089197,0.314771,0.330802,-0.002768,0.051484,0.094231,-0.084702,-0.309599,-0.947087,0.013871,0.017774,0.004673,-7.925304,-8.448658,-26.200432,,,,,,,
1512180280.871933,-0.089962,0.314426,0.332610,0.010038,0.004508,0.091055,-0.085436,-0.309270,-0.947128,0.033556,0.014806,-0.006928,-8.152248,-8.898991,-26.048744,,,,,,,
1512180280.891922,-0.089645,0.314235,0.334333,-0.031286,-0.009408,0.075485,-0.085141,-0.309089,-0.947214,-0.000461,0.009010,-0.016394,-8.452358,-8.899448,-26.271187,,,,,,,
1512180280.911942,-0.091041,0.313533,0.336198,-0.004816,0.000221,0.086560,-0.086483,-0.308421,-0.947310,-0.036915,0.010997,-0.015916,-7.699169,-8.223316,-25.977242,,,,,,,
1512180280.931931,-0.090231,0.313739,0.337942,0.012173,0.047231,0.092298,-0.085710,-0.308617,-0.947316,0.030077,-0.022392,-0.030223,-7.773800,-8.148426,-25.901573,,,,,,,
1512180280.951920,-0.090996,0.313577,0.339771,0.005978,0.022682,0.079332,-0.086439,-0.308463,-0.947300,0.002577,0.019934,0.043660,-7.999844,-8.373768,-25.974770,,,,,,,
1512180280.971939,-0.090731,0.313126,0.341547,-0.025227,-0.025463,0.094704,-0.086200,-0.308034,-0.947462,0.020511,-0.017833,-0.042651,-8.073803,-8.148884,-25.899025,,,,,,,
1512180280.991928,-0.090675,0.313202,0.343295,0.040241,0.123159,0.075916,-0.086145,-0.308106,-0.947443,0.023828,-0.002593,0.038752,-8.224102,-8.224110,-25.822792,,,,,,,
1512180281.011917,-0.090354,0.313321,0.345184,-0.015503,-0.041453,0.086261,-0.085838,-0.308219,-0.947434,-0.009255,0.030555,-0.002654,-7.925182,-8.448658,-25.975441,,,,,,,
1512180281.031937,-0.089991,0.312954,0.346865,0.004735,0.088882,0.093403,-0.085504,-0.307871,-0.947578,0.030649,-0.029364,0.015098,-8.076168,-8.673878,-25.899269,,,,,,,
1512180281.051926,-0.089879,0.312808,0.348569,0.008202,0.033383,0.075140,-0.085403,-0.307732,-0.947632,0.029647,-0.017936,-0.021866,-8.151730,-8.823994,-25.673698,,,,,,,
1512180281.071915,-0.089565,0.313004,0.350522,-0.004745,0.022661,0.083442,-0.085100,-0.307918,-0.947599,-0.006789,0.036266,0.026563,-8.150448,-8.523991,-25.823555,,,,,,,
1512180281.091904,-0.089530,0.312554,0.352220,-0.001585,0.046158,0.086767,-0.085079,-0.307490,-0.947740,0.016262,-0.008245,0.002885,-7.701046,-8.673313,-25.677467,,,,,,,
1512180281.111924,-0.088566,0.312809,0.353830,0.018878,0.067578,0.075412,-0.084158,-0.307732,-0.947743,0.047979,-0.022422,0.020680,-7.925411,-8.523655,-25.750481,,,,,,,
1512180281.131913,-0.088912,0.312663,0.355560,-0.014316,0.004484,0.080037,-0.084490,-0.307594,-0.947759,0.013613,0.016853,0.056005,-7.776043,-8.673435,-25.676826,,,,,,,
1512180281.151902,-0.088505,0.312346,0.357088,0.007103,0.054734,0.077327,-0.084112,-0.307292,-0.947890,0.020865,0.004009,0.004851,-7.626431,-8.748203,-25.753136,,,,,,,
1512180281.171921,-0.087603,0.312597,0.358651,0.012568,0.063306,0.069976,-0.083251,-0.307531,-0.947889,0.044021,0.014455,0.027646,-7.701687,-8.823322,-25.602531,,,,,,,
1512180281.191910,-0.087937,0.312293,0.360318,-0.024944,-0.006201,0.078785,-0.083576,-0.307242,-0.947954,-0.010159,-0.001001,0.021715,-8.303570,-9.199223,-25.972603,,,,,,,
1512180281.211899,-0.087522,0.312000,0.361799,0.011330,0.069692,0.080640,-0.083190,-0.306962,-0.948078,0.030563,-0.027495,-0.019191,-8.156109,-9.799000,-25.674156,,,,,,,
1512180281.231919,-0.087037,0.312313,0.363474,0.014572,0.037651,0.075241,-0.082722,-0.307261,-0.948023,0.061283,-0.007970,0.012934,-7.926907,-8.898655,-25.375648,,,,,,,
1512180281.251908,-0.087578,0.311869,0.365205,-0.033423,-0.015820,0.075431,-0.083247,-0.306838,-0.948114,0.003291,0.014007,0.012384,-7.776760,-8.823429,-25.751884,,,,,,,
1512180281.271897,-0.087126,0.311503,0.366800,0.000600,0.071802,0.084756,-0.082828,-0.306490,-0.948263,0.036716,-0.018446,-0.014750,-7.927105,-8.898655,-25.750648,,,,,,,
1512180281.291886,-0.087283,0.311661,0.368541,0.027211,0.022707,0.084971,-0.082973,-0.306640,-0.948202,0.069820,-0.016114,-0.002589,-8.152401,-8.973988,-25.673775,,,,,,,
1512180281.311875,-0.086994,0.311320,0.370165,-0.045144,-0.007294,0.075290,-0.082708,-0.306315,-0.948330,0.028966,0.007914,0.004971,-7.852657,-9.048542,-25.526360,,,,,,,
1512180281.331864,-0.087579,0.310672,0.371871,0.010204,0.044046,0.082665,-0.083280,-0.305698,-0.948479,0.022031,0.015354,0.001351,-7.927700,-9.048649,-25.600716,,,,,,,
1512180281.351853,-0.086701,0.311122,0.373724,0.010063,0.038690,0.091174,-0.082435,-0.306127,-0.948414,0.028801,-0.005717,0.013798,-7.927364,-8.973652,-25.600685,,,,,,,
1512180281.371873,-0.087267,0.310351,0.375409,-0.033622,0.004448,0.088291,-0.082993,-0.305392,-0.948603,0.012543,-0.013547,0.014688,-8.077663,-9.048878,-25.524452,,,,,,,
1512180281.391862,-0.087018,0.310424,0.377273,0.026112,0.067555,0.088306,-0.082754,-0.305462,-0.948601,0.022726,-0.010059,0.018257,-7.853756,-9.273548,-25.676460,,,,,,,
1512180281.411851,-0.087077,0.310155,0.379226,-0.033702,-0.024402,0.091386,-0.082817,-0.305206,-0.948678,0.010063,-0.007568,-0.010352,-7.851421,-8.748539,-25.751213,,,,,,,
1512180281.431870,-0.087428,0.309770,0.381104,0.018484,0.049368,0.097727,-0.083161,-0.304840,-0.948766,0.021653,-0.014512,-0.012294,-7.928341,-9.198658,-25.525795,,,,,,,
1512180281.451859,-0.086966,0.310185,0.383094,0.017517,0.049383,0.092386,-0.082711,-0.305235,-0.948678,0.027368,-0.000841,0.046441,-7.853344,-9.198551,-25.526421,,,,,,,
1512180281.471848,-0.087608,0.309259,0.385013,-0.058271,-0.054352,0.093058,-0.083345,-0.304353,-0.948906,0.018037,-0.005171,-0.034599,-8.151943,-8.898991,-25.448738,,,,,,,
1512180281.491868,-0.087493,0.309471,0.386952,0.063378,0.122084,0.094368,-0.083230,-0.304555,-0.948851,0.039590,-0.013667,0.030699,-8.154430,-9.424000,-25.673988,,,,,,,
1512180281.511857,-0.086993,0.309469,0.388894,-0.043323,-0.048983,0.092229,-0.082756,-0.304553,-0.948893,0.047798,-0.007214,-0.010763,-7.927929,-9.123661,-25.375755,,,,,,,
1512180281.531846,-0.088321,0.308775,0.390844,0.007997,0.054717,0.088002,-0.084035,-0.303892,-0.948993,0.001225,0.018599,0.024676,-8.152401,-8.973988,-25.673775,,,,,,,
1512180281.551835,-0.087065,0.309038,0.392656,0.007829,0.031201,0.097514,-0.082835,-0.304142,-0.949018,0.048213,-0.024898,-0.031359,-8.154949,-9.573994,-25.374046,,,,,,,
1512180281.571854,-0.087512,0.308930,0.394557,0.010143,0.063262,0.086994,-0.083263,-0.304039,-0.949014,0.026347,-0.000099,0.053811,-8.077892,-9.123875,-25.299477,,,,,,,
1512180281.591843,-0.086988,0.308741,0.396385,-0.018650,0.000205,0.085295,-0.082770,-0.303859,-0.949114,0.007438,0.002773,-0.000684,-8.079281,-9.423878,-25.374611,,,,,,,
1512180281.611832,-0.086885,0.308553,0.398232,0.017590,0.062206,0.088166,-0.082678,-0.303680,-0.949180,0.005850,0.021102,0.016425,-8.154613,-9.498997,-25.374016,,,,,,,
1512180281.631852,-0.085823,0.308947,0.400092,0.013380,0.081433,0.086040,-0.081659,-0.304056,-0.949148,0.027811,-0.001273,0.044012,-8.155254,-9.648991,-25.299080,,,,,,,
1512180281.651841,-0.085891,0.308295,0.401793,-0.037871,-0.001965,0.087141,-0.081741,-0.303434,-0.949340,0.009887,-0.028627,-0.003618,-7.629620,-9.498203,-25.378471,,,,,,,
1512180281.671830,-0.085465,0.308119,0.403608,0.017673,0.073967,0.083945,-0.081341,-0.303266,-0.949428,-0.012135,0.005903,-0.025991,-8.004162,-9.423771,-25.150261,,,,,,,
1512180281.691850,-0.084604,0.308038,0.405415,-0.008138,0.043987,0.095189,-0.080526,-0.303190,-0.949522,0.076162,0.000013,-0.018893,-7.705517,-9.723316,-25.152946,,,,,,,
1512180281.711839,-0.084568,0.307618,0.407163,-0.000471,0.056841,0.083619,-0.080503,-0.302789,-0.949651,0.040357,-0.001471,0.009908,-8.155849,-9.799000,-25.149147,,,,,,,
1512180281.731828,-0.083984,0.307188,0.408964,-0.029285,0.017278,0.084132,-0.079958,-0.302379,-0.949828,0.022387,-0.009586,-0.029420,-7.930630,-9.723667,-25.376030,,,,,,,
1512180281.751848,-0.083632,0.306781,0.410788,0.006999,0.067542,0.084835,-0.079635,-0.301992,-0.949978,0.054458,-0.025340,-0.026828,-7.707531,-10.173313,-25.153145,,,,,,,
1512180281.771836,-0.083189,0.306526,0.412717,-0.031542,0.018326,0.091565,-0.079220,-0.301749,-0.950090,0.032451,-0.021265,-0.002455,-7.779766,-9.573429,-25.002235,,,,,,,
1512180281.791825,-0.083926,0.305544,0.414680,-0.021162,0.007625,0.107667,-0.079944,-0.300812,-0.950327,0.039158,0.005478,-0.042761,-7.779797,-9.573429,-25.077232,,,,,,,
1512180281.811814,-0.083287,0.305656,0.416724,0.017366,0.067519,0.102040,-0.079335,-0.300919,-0.950344,0.032811,0.018707,-0.019429,-7.854168,-9.423542,-25.151527,,,,,,,
1512180281.831834,-0.083919,0.304974,0.418868,-0.048846,-0.020178,0.105041,-0.079952,-0.300269,-0.950498,0.035381,0.019522,-0.019977,-7.705547,-9.723316,-25.227943,,,,,,,
1512180281.851823,-0.084554,0.304625,0.421111,0.033139,0.024791,0.112779,-0.080565,-0.299936,-0.950551,0.047453,0.010004,-0.050929,-7.479717,-9.572987,-24.929787,,,,,,,
1512180281.871812,-0.084037,0.305051,0.423504,-0.001911,0.029030,0.105893,-0.080062,-0.300342,-0.950465,0.030151,-0.025891,0.012965,-7.631527,-9.948215,-25.153679,,,,,,,
1512180281.891831,-0.085358,0.304633,0.426089,-0.000066,-0.012661,0.120697,-0.081329,-0.299943,-0.950484,0.034790,-0.003554,-0.001299,-7.704052,-9.423313,-24.927803,,,,,,,
1512180281.911820,-0.084713,0.305453,0.428557,0.062702,0.089958,0.133690,-0.080695,-0.300725,-0.950291,0.086219,0.010747,0.066334,-8.230770,-9.799107,-24.998512,,,,,,,
1512180281.931809,-0.084996,0.305131,0.430707,-0.031745,0.002282,0.103233,-0.080972,-0.300418,-0.950364,0.065485,-0.010724,0.039735,-7.931561,-9.948658,-25.226128,,,,,,,
1512180281.951829,-0.084651,0.305400,0.433045,0.059169,0.086834,0.088852,-0.080638,-0.300675,-0.950311,0.011332,0.015244,-0.012518,-7.555965,-9.873096,-24.704277,,,,,,,
1512180281.971818,-0.083405,0.306277,0.435398,0.012825,0.038636,0.116796,-0.079432,-0.301511,-0.950148,0.044779,0.013547,0.032423,-8.081753,-10.023884,-24.924904,,,,,,,
1512180281.991807,-0.084292,0.305791,0.437565,0.001374,0.033317,0.100624,-0.080287,-0.301048,-0.950223,-0.042486,0.019630,0.024549,-7.857052,-10.098545,-24.851845,,,,,,,
1512180282.011826,-0.082456,0.306299,0.439601,0.044999,0.091046,0.107850,-0.078529,-0.301532,-0.950216,0.023399,-0.003644,-0.013880,-7.631069,-9.873203,-24.928658,,,,,,,
1512180282.031815,-0.082053,0.306594,0.441744,0.007840,0.070714,0.097647,-0.078139,-0.301813,-0.950159,0.017928,0.013468,0.077585,-8.156033,-9.873997,-24.849190,,,,,,,
1512180282.051804,-0.081593,0.306372,0.443852,-0.009075,0.058959,0.088834,-0.077708,-0.301602,-0.950262,-0.043249,0.005032,0.034078,-7.706707,-10.023319,-24.853081,,,,,,,
1512180282.071793,-0.080140,0.306537,0.445916,0.024815,0.086751,0.103279,-0.076322,-0.301759,-0.950324,0.016966,-0.006941,0.023414,-7.931683,-10.023655,-24.776176,,,,,,,
1512180282.091813,-0.079292,0.306715,0.448037,0.006728,0.099547,0.101996,-0.075512,-0.301928,-0.950335,0.035504,0.005053,0.080737,-7.631191,-9.948215,-24.478691,,,,,,,
1512180282.111802,-0.078236,0.306210,0.449900,-0.018648,0.084582,0.088785,-0.074520,-0.301448,-0.950566,0.021435,0.000559,0.027913,-7.779613,-9.573429,-24.702232,,,,,,,
1512180282.131791,-0.076386,0.306556,0.451934,0.039901,0.122047,0.096162,-0.072754,-0.301777,-0.950598,0.056473,0.012134,0.027075,-7.481853,-10.097980,-24.480034,,,,,,,
1512180282.151810,-0.074998,0.306318,0.453918,-0.041098,0.069584,0.091604,-0.071440,-0.301550,-0.950770,0.044935,-0.004938,0.027552,-7.707272,-10.173313,-24.628151,,,,,,,
1512180282.171800,-0.073907,0.305681,0.455810,-0.001579,0.139079,0.090286,-0.070417,-0.300942,-0.951039,0.011594,-0.007453,0.005390,-7.707943,-10.323322,-24.628227,,,,,,,
1512180282.191789,-0.072063,0.305646,0.457950,-0.000914,0.053590,0.111323,-0.068663,-0.300909,-0.951177,0.057555,0.002508,-0.069941,-7.710094,-10.773335,-24.853432,,,,,,,
1512180282.211808,-0.070622,0.305276,0.460022,-0.018804,0.146516,0.101793,-0.067301,-0.300556,-0.951386,0.043619,-0.015713,0.035264,-7.931973,-10.098667,-24.701195,,,,,,,
1512180282.231797,-0.069863,0.304407,0.462170,-0.030647,0.062102,0.104525,-0.066596,-0.299727,-0.951697,0.035758,-0.013947,-0.022256,-7.256557,-10.022648,-24.556923,,,,,,,
1512180282.251786,-0.068141,0.304384,0.464491,0.000221,0.108071,0.109395,-0.064958,-0.299706,-0.951817,0.070512,-0.008842,-0.012294,-7.708782,-10.548328,-24.253334,,,,,,,
1512180282.271775,-0.067408,0.303357,0.466644,-0.062741,0.048153,0.110406,-0.064281,-0.298726,-0.952171,0.066982,-0.015956,-0.000801,-7.483517,-10.472996,-24.405205,,,,,,,
1512180282.291775,-0.066633,0.302759,0.468912,0.003407,0.117686,0.110540,-0.063555,-0.298155,-0.952399,0.054736,0.002241,0.003653,-7.634380,-10.623219,-24.778999,,,,,,,
1512180282.311764,-0.065622,0.302493,0.471220,-0.016969,0.039670,0.114239,-0.062598,-0.297901,-0.952542,0.075476,-0.014050,-0.012195,-7.482235,-10.172977,-24.555077,,,,,,,
1512180282.331753,-0.064837,0.301683,0.473426,-0.040317,0.061008,0.108643,-0.061866,-0.297128,-0.952831,0.058555,-0.016120,0.011944,-7.333843,-10.547764,-24.406517,,,,,,,
1512180282.351772,-0.064666,0.301186,0.475905,0.001097,0.061054,0.118840,-0.061712,-0.296653,-0.952989,0.038626,-0.001244,0.013032,-7.333401,-10.472767,-24.181480,,,,,,,
1512180282.371761,-0.063710,0.300780,0.478298,-0.036268,0.046031,0.120374,-0.060808,-0.296266,-0.953167,0.060442,-0.021331,-0.004489,-7.409557,-10.697880,-24.480949,,,,,,,
1512180282.391750,-0.064197,0.300079,0.480833,0.003043,0.058895,0.129519,-0.061286,-0.295596,-0.953345,0.054602,-0.010862,0.024588,-7.483852,-10.547993,-24.405251,,,,,,,
1512180282.411770,-0.063392,0.299813,0.483466,-0.035316,0.013975,0.125606,-0.060524,-0.295342,-0.953472,0.036873,-0.009315,-0.013050,-7.484112,-10.622990,-24.255272,,,,,,,
1512180282.431758,-0.063896,0.299116,0.486208,-0.009620,0.066367,0.121898,-0.061018,-0.294676,-0.953647,0.009183,-0.013781,0.028812,-7.333889,-10.547764,-24.481514,,,,,,,
1512180282.451747,-0.063054,0.298927,0.489046,-0.031337,0.039586,0.144945,-0.060218,-0.294495,-0.953754,0.028327,-0.013138,0.000491,-7.484783,-10.772999,-24.255348,,,,,,,
1512180282.471766,-0.064157,0.298150,0.491852,0.015474,0.027896,0.149846,-0.061284,-0.293752,-0.953915,0.064656,-0.015284,-0.010975,-7.783138,-10.398441,-24.327614,,,,,,,
1512180282.491755,-0.062173,0.298313,0.494541,-0.023487,0.102659,0.123955,-0.059388,-0.293909,-0.953986,0.059388,-0.017691,0.034583,-7.859783,-10.773548,-24.252159,,,,,,,
1512180282.511744,-0.064337,0.297199,0.497524,-0.031183,-0.059728,0.130743,-0.061474,-0.292843,-0.954182,0.009090,0.006192,0.001118,-7.560833,-10.998096,-24.329811,,,,,,,
1512180282.531734,-0.062472,0.297632,0.500417,0.031722,0.149712,0.139843,-0.059687,-0.293258,-0.954168,0.040094,-0.003450,0.024740,-7.937969,-11.448673,-24.551842,,,,,,,
1512180282.551754,-0.063231,0.296701,0.503142,-0.049635,-0.051253,0.150759,-0.060428,-0.292367,-0.954395,0.090137,-0.030753,-0.026410,-7.484005,-10.622990,-24.030281,,,,,,,
1512180282.571743,-0.063121,0.296669,0.505988,0.027734,0.132652,0.122671,-0.060324,-0.292336,-0.954411,0.005621,0.011910,0.041020,-7.711773,-11.223331,-24.178642,,,,,,,
1512180282.591732,-0.062602,0.296320,0.508778,-0.037637,-0.024496,0.136103,-0.059835,-0.292003,-0.954544,0.038793,-0.005177,-0.070633,-7.186520,-11.147541,-24.333061,,,,,,,
1512180282.611751,-0.062408,0.296377,0.511594,0.041471,0.144406,0.130372,-0.059648,-0.292057,-0.954539,0.054262,0.004413,0.019984,-7.485912,-10.997990,-24.480446,,,,,,,
1512180282.631740,-0.061821,0.296339,0.514465,-0.029170,-0.026629,0.139415,-0.059088,-0.292021,-0.954585,0.010428,-0.006701,-0.049596,-7.560909,-10.998096,-24.479805,,,,,,,
1512180282.651729,-0.061950,0.295984,0.517253,0.013678,0.110181,0.134118,-0.059218,-0.291681,-0.954681,0.030104,0.037027,-0.007234,-7.486141,-11.072987,-24.255486,,,,,,,
1512180282.671748,-0.061012,0.296592,0.520096,0.047613,0.066414,0.141916,-0.058312,-0.292262,-0.954558,0.054284,0.003261,-0.020646,-7.785870,-10.998447,-24.402901,,,,,,,
1512180282.691737,-0.060197,0.296714,0.522816,-0.011787,0.059953,0.123978,-0.057531,-0.292379,-0.954570,-0.011606,0.011618,-0.018727,-7.635799,-10.998219,-24.254173,,,,,,,
1512180282.711726,-0.059533,0.297202,0.525493,0.062931,0.152999,0.122184,-0.056889,-0.292846,-0.954465,0.028065,0.040557,0.021055,-7.713467,-11.598331,-24.178825,,,,,,,
1512180282.731746,-0.058141,0.297768,0.528231,0.013508,-0.006267,0.137971,-0.055551,-0.293387,-0.954378,0.066354,-0.029169,-0.064482,-7.713161,-11.523335,-24.253777,,,,,,,
1512180282.751735,-0.057976,0.298123,0.530902,0.050127,0.140166,0.123023,-0.055388,-0.293727,-0.954283,0.010817,-0.029500,0.081419,-7.714703,-11.898335,-23.953957,,,,,,,
1512180282.771724,-0.056954,0.298470,0.533470,0.011670,0.009786,0.120944,-0.054407,-0.294058,-0.954238,0.064661,-0.020578,-0.013963,-7.714138,-11.748325,-24.178886,,,,,,,
1512180282.791713,-0.056667,0.298805,0.536274,0.017150,0.086718,0.115962,-0.054127,-0.294378,-0.954155,0.014699,-0.000650,0.030265,-7.936733,-11.223667,-24.101723,,,,,,,
1512180282.811733,-0.056320,0.298575,0.538925,-0.012358,0.025705,0.156898,-0.053799,-0.294159,-0.954241,0.048413,-0.026016,-0.041975,-7.712719,-11.448338,-24.028755,,,,,,,
1512180282.831722,-0.056162,0.299338,0.541630,0.084368,0.162662,0.116133,-0.053636,-0.294888,-0.954025,0.064623,0.001034,0.063568,-7.939175,-11.748676,-24.251976,,,,,,,
1512180282.851711,-0.054160,0.300073,0.544759,-0.031050,0.000102,0.125623,-0.051715,-0.295590,-0.953914,0.014346,0.001004,-0.040090,-7.563381,-11.598103,-24.030098,,,,,,,
1512180282.871731,-0.055095,0.299485,0.547424,0.022846,0.097322,0.158723,-0.052616,-0.295028,-0.954038,0.112156,-0.010697,0.045576,-7.940258,-11.973682,-24.402077,,,,,,,
1512180282.891720,-0.053798,0.300362,0.550328,0.072284,0.072883,0.133771,-0.051365,-0.295866,-0.953847,0.057972,0.023008,-0.032130,-7.489697,-11.897999,-23.955864,,,,,,,
1512180282.911709,-0.052070,0.301010,0.553408,-0.002345,0.108009,0.134940,-0.049706,-0.296485,-0.953743,0.057321,-0.016564,0.029838,-7.413494,-11.672886,-23.581398,,,,,,,
1512180282.931727,-0.053095,0.300466,0.556453,0.005780,-0.020194,0.153803,-0.050693,-0.295965,-0.953852,0.062091,-0.010340,-0.025762,-7.490292,-12.047993,-23.805946,,,,,,,
1512180282.951716,-0.052225,0.301354,0.559991,0.050432,0.078121,0.165451,-0.049849,-0.296814,-0.953633,0.017394,0.011871,0.004048,-7.416348,-12.272892,-23.881676,,,,,,,
1512180282.971705,-0.052062,0.301456,0.563311,0.004470,0.087650,0.173347,-0.049692,-0.296911,-0.953611,0.079019,-0.049601,0.046323,-7.266125,-12.197666,-24.107918,,,,,,,
1512180282.991725,-0.052422,0.301243,0.566655,-0.000742,0.004345,0.162321,-0.050039,-0.296707,-0.953656,0.076955,-0.020584,-0.019885,-7.566387,-12.273106,-23.955406,,,,,,,
1512180283.011714,-0.052787,0.301664,0.570271,0.035508,0.051395,0.164075,-0.050379,-0.297110,-0.953513,0.040690,0.020941,0.013312,-7.416088,-12.197880,-24.031639,,,,,,,
1512180283.031703,-0.051676,0.301859,0.573551,-0.006975,0.097282,0.157225,-0.049318,-0.297296,-0.953510,0.076478,-0.012305,0.026997,-7.565411,-12.048115,-24.030296,,,,,,,
1512180283.051692,-0.052923,0.301463,0.577046,0.013951,-0.038385,0.174111,-0.050512,-0.296917,-0.953566,0.092062,0.002133,-0.037248,-7.792370,-12.498447,-23.878593,,,,,,,
1512180283.071712,-0.052493,0.301901,0.580466,0.020614,0.075947,0.163947,-0.050096,-0.297336,-0.953457,0.027223,0.019366,0.045926,-7.718380,-12.723347,-23.879341,,,,,,,
1512180283.091701,-0.052997,0.301070,0.583759,-0.031529,0.007516,0.154423,-0.050589,-0.296542,-0.953679,0.042899,-0.022000,-0.019435,-7.942287,-12.498676,-23.727318,,,,,,,
1512180283.111690,-0.052609,0.301775,0.587295,0.055794,0.093088,0.164515,-0.050208,-0.297215,-0.953489,0.072685,-0.006542,0.030317,-7.941921,-12.423679,-23.652290,,,,,,,
1512180283.131710,-0.053397,0.301084,0.590754,-0.070316,-0.070559,0.175979,-0.050970,-0.296555,-0.953654,0.020850,-0.015258,0.012339,-7.942623,-12.573673,-23.727348,,,,,,,
1512180283.151699,-0.054009,0.300506,0.594195,0.036636,0.135791,0.165455,-0.051564,-0.296003,-0.953794,0.030720,-0.014620,0.027249,-8.016918,-12.423786,-23.651649,,,,,,,
1512180283.171688,-0.052665,0.301002,0.597757,-0.012663,0.028868,0.175025,-0.050274,-0.296478,-0.953715,0.100323,-0.032181,-0.049672,-8.093044,-12.648899,-23.876106,,,,,,,
1512180283.191706,-0.055022,0.299659,0.601273,-0.045728,-0.030997,0.173273,-0.052543,-0.295194,-0.953991,0.049247,-0.004549,-0.020725,-8.171444,-13.399021,-23.950813,,,,,,,
1512180283.211697,-0.054047,0.300103,0.604971,0.046177,0.135793,0.167722,-0.051606,-0.295619,-0.953911,0.030183,0.018947,0.015709,-8.167889,-12.649021,-23.575478,,,,,,,
1512180283.231685,-0.054254,0.299569,0.608804,-0.053531,-0.053476,0.193339,-0.051812,-0.295108,-0.954058,0.078317,-0.027691,-0.056028,-7.867779,-12.648563,-23.353020,,,,,,,
1512180283.251674,-0.055449,0.298313,0.612465,-0.026619,0.058742,0.182390,-0.052972,-0.293908,-0.954364,0.030237,-0.000907,-0.040142,-8.318600,-12.799244,-23.649269,,,,,,,
1512180283.271693,-0.055681,0.298228,0.616462,0.017991,0.035295,0.191484,-0.053195,-0.293826,-0.954377,0.035709,0.046176,-0.066528,-8.170254,-13.174015,-23.575722,,,,,,,
1512180283.291658,-0.055355,0.297944,0.620301,-0.033117,0.054443,0.187608,-0.052889,-0.293556,-0.954477,0.098802,-0.012688,-0.034811,-7.943859,-12.873676,-23.502495,,,,,,,
1512180283.311647,-0.056662,0.296629,0.624250,-0.045939,-0.002186,0.187228,-0.054159,-0.292298,-0.954792,0.014669,-0.049835,-0.057583,-8.245968,-13.324131,-23.650154,,,,,,,
1512180283.331667,-0.056955,0.296670,0.628452,0.037105,0.058813,0.197173,-0.054437,-0.292337,-0.954764,0.018533,0.002787,-0.007547,-8.168941,-12.874012,-23.650581,,,,,,,
1512180283.351656,-0.056390,0.296457,0.632357,-0.023569,0.054455,0.190947,-0.053901,-0.292133,-0.954857,0.048149,0.014393,0.059532,-8.167171,-12.499012,-23.500404,,,,,,,
1512180283.371645,-0.056769,0.295653,0.636050,-0.011595,0.061986,0.177292,-0.054276,-0.291364,-0.955071,0.050172,-0.002947,0.049034,-8.244579,-13.024128,-23.575005,,,,,,,
1512180283.391665,-0.055887,0.295892,0.639778,0.016082,0.095133,0.181005,-0.053431,-0.291593,-0.955049,0.034220,0.001661,0.047807,-8.244686,-13.024128,-23.800011,,,,,,,
1512180283.411654,-0.055670,0.295671,0.643295,0.000303,0.072702,0.166838,-0.053227,-0.291382,-0.955124,0.026356,0.004150,0.038987,-8.468899,-12.874470,-23.573021,,,,,,,
1512180283.431643,-0.054858,0.296000,0.646846,0.030235,0.074894,0.161949,-0.052445,-0.291697,-0.955072,-0.002028,0.015711,0.026101,-8.318493,-12.799244,-23.424278,,,,,,,
1512180283.451663,-0.054632,0.296159,0.650386,0.004502,0.041724,0.168922,-0.052227,-0.291849,-0.955037,-0.011326,0.018533,0.030553,-8.320217,-13.174244,-23.499443,,,,,,,
1512180283.471651,-0.054241,0.296608,0.653786,0.055818,0.114449,0.163521,-0.051847,-0.292278,-0.954926,0.020277,0.007717,0.043107,-8.621151,-13.399693,-23.346992,,,,,,,
1512180283.491640,-0.053644,0.297093,0.657119,0.021569,0.015048,0.166944,-0.051269,-0.292742,-0.954816,0.069351,-0.015577,0.000150,-8.547131,-13.624592,-23.272743,,,,,,,
1512180283.511629,-0.053739,0.297480,0.660495,0.031571,0.087744,0.146022,-0.051354,-0.293112,-0.954698,0.013054,-0.005137,0.053224,-8.620739,-13.324696,-23.196953,,,,,,,
1512180283.531648,-0.053419,0.298384,0.663914,0.057059,0.070686,0.151664,-0.051034,-0.293976,-0.954449,0.016061,0.012543,0.057675,-8.622280,-13.624699,-23.572105,,,,,,,
1512180283.551637,-0.052752,0.298750,0.667124,0.007768,0.020381,0.164634,-0.050392,-0.294326,-0.954375,0.068656,-0.003221,-0.012208,-8.473522,-13.924473,-23.348518,,,,,,,
1512180283.571626,-0.052721,0.299220,0.670351,0.052872,0.132636,0.149686,-0.050355,-0.294775,-0.954239,0.031113,-0.022898,0.018692,-8.321789,-13.549244,-23.274620,,,,,,,
1512180283.591646,-0.052191,0.300123,0.673772,0.038702,0.023629,0.162959,-0.049835,-0.295638,-0.953999,0.033020,-0.012880,-0.028988,-8.396786,-13.549351,-23.273979,,,,,,,
1512180283.611635,-0.052046,0.300590,0.677192,0.030151,0.057794,0.166153,-0.049690,-0.296083,-0.953868,0.047905,-0.004179,-0.008168,-8.396709,-13.549351,-23.123985,,,,,,,
1512180283.631624,-0.051758,0.301181,0.680565,0.040931,0.101617,0.161131,-0.049406,-0.296648,-0.953707,0.058042,-0.015409,0.027377,-8.623135,-13.849705,-23.272209,,,,,,,
1512180283.651644,-0.052228,0.301305,0.684029,0.014131,-0.029819,0.163483,-0.049853,-0.296766,-0.953647,0.068881,-0.003572,-0.062130,-8.472424,-13.699467,-23.198402,,,,,,,
1512180283.671633,-0.052003,0.302111,0.687562,0.050639,0.096304,0.153790,-0.049625,-0.297536,-0.953419,0.022937,0.009374,0.025349,-8.324078,-14.074253,-23.124855,,,,,,,
1512180283.691622,-0.052404,0.302232,0.691034,-0.000963,-0.013838,0.175049,-0.050005,-0.297652,-0.953364,0.041018,-0.023103,-0.014654,-8.773998,-14.074924,-22.971031,,,,,,,
1512180283.711641,-0.052753,0.302548,0.694464,0.049264,0.061017,0.170704,-0.050334,-0.297953,-0.953252,0.068736,-0.020315,-0.021632,-8.848293,-13.925037,-22.895332,,,,,,,
1512180283.731630,-0.052940,0.303079,0.697845,0.014277,0.025739,0.157282,-0.050503,-0.298460,-0.953084,0.042324,0.003951,0.026037,-8.925762,-14.450153,-23.119926,,,,,,,
1512180283.751619,-0.054019,0.302935,0.701229,0.016356,-0.014854,0.158235,-0.051534,-0.298323,-0.953072,0.036916,0.012023,-0.030815,-8.850323,-14.375034,-22.895531,,,,,,,
1512180283.771608,-0.053524,0.303922,0.704579,0.054908,0.086696,0.152751,-0.051046,-0.299265,-0.952803,0.050756,-0.005224,0.021239,-8.850430,-14.375034,-23.120537,,,,,,,
1512180283.791628,-0.054837,0.303919,0.707937,-0.013501,-0.046939,0.157694,-0.052298,-0.299262,-0.952736,0.020178,-0.002267,-0.001747,-8.775051,-14.299931,-23.046135,,,,,,,
1512180283.811617,-0.055425,0.304475,0.711209,0.077111,0.058937,0.162571,-0.052848,-0.299793,-0.952539,0.029792,-0.008557,-0.004965,-8.850613,-14.375034,-23.495537,,,,,,,
1512180283.831606,-0.055038,0.305362,0.714412,0.015424,0.022544,0.151956,-0.052466,-0.300638,-0.952294,0.054480,0.000040,0.028069,-8.926098,-14.525150,-23.119972,,,,,,,
1512180283.851625,-0.056880,0.305375,0.717734,0.034591,-0.008401,0.152127,-0.054219,-0.300651,-0.952191,0.021687,0.007393,0.007947,-9.150616,-14.375492,-23.492989,,,,,,,
1512180283.871614,-0.056073,0.306634,0.720988,0.057008,0.079223,0.154890,-0.053429,-0.301851,-0.951856,0.009026,-0.001982,0.035413,-9.527050,-14.751057,-22.964973,,,,,,,
1512180283.891603,-0.057356,0.306673,0.724262,0.014168,-0.040499,0.160246,-0.054650,-0.301888,-0.951775,0.035241,-0.000800,-0.021263,-9.225689,-14.450596,-22.967384,,,,,,,
1512180283.911623,-0.056704,0.307995,0.727456,0.087045,0.156192,0.147064,-0.054007,-0.303149,-0.951411,0.039313,-0.011487,0.068309,-9.301403,-14.600712,-23.041817,,,,,,,
1512180283.931612,-0.057661,0.307981,0.730693,-0.024099,-0.114236,0.150911,-0.054918,-0.303135,-0.951363,0.006227,-0.010677,-0.065986,-9.078060,-14.975376,-22.968895,,,,,,,
1512180283.951602,-0.057843,0.309078,0.734021,0.107283,0.179722,0.149572,-0.055071,-0.304180,-0.951021,0.026583,-0.003910,0.077455,-9.377712,-14.900837,-22.966316,,,,,,,
1512180283.971591,-0.057256,0.309845,0.737191,-0.001747,-0.062937,0.155678,-0.054499,-0.304911,-0.950820,0.053691,-0.023580,-0.041688,-9.378323,-15.050831,-22.816383,,,,,,,
1512180283.991609,-0.059016,0.309872,0.740415,0.048538,0.050374,0.149334,-0.056173,-0.304937,-0.950714,0.016592,0.011586,0.037292,-9.829403,-15.276508,-22.962669,,,,,,,
1512180284.011598,-0.057840,0.311113,0.743483,0.056012,0.076019,0.149530,-0.055033,-0.306119,-0.950401,0.052484,-0.007617,0.007331,-9.379147,-15.200825,-23.116447,,,,,,,
1512180284.031587,-0.058812,0.311414,0.746550,0.027288,-0.000919,0.142451,-0.055951,-0.306405,-0.950255,0.037900,-0.023627,-0.014513,-9.604702,-15.351170,-22.889610,,,,,,,
1512180284.051607,-0.058434,0.312186,0.749545,0.034892,0.056792,0.137435,-0.055578,-0.307139,-0.950040,0.037100,0.003917,-0.004230,-9.603573,-15.126163,-22.664513,,,,,,,
1512180284.071596,-0.059327,0.312594,0.752663,0.041117,0.007644,0.144814,-0.056419,-0.307528,-0.949865,0.005622,0.018206,-0.010981,-9.906353,-15.726627,-22.812233,,,,,,,
1512180284.091585,-0.058668,0.313408,0.755621,0.036908,0.073869,0.144985,-0.055778,-0.308303,-0.949651,0.037421,-0.027848,-0.011241,-9.832027,-15.876514,-22.812935,,,,,,,
1512180284.111604,-0.059631,0.313567,0.758616,0.028327,-0.011595,0.144565,-0.056690,-0.308453,-0.949548,0.026859,-0.017368,-0.041953,-9.981701,-15.801731,-22.811623,,,,,,,
1512180284.131593,-0.059359,0.314314,0.761667,0.042236,0.066394,0.143967,-0.056418,-0.309164,-0.949333,0.019324,0.006155,0.001106,-9.829708,-15.351505,-22.887703,,,,,,,
1512180284.151582,-0.059939,0.314157,0.764621,-0.007850,0.002235,0.139820,-0.056971,-0.309015,-0.949349,0.040858,-0.004828,-0.047264,-9.980724,-15.576740,-22.886528,,,,,,,
1512180284.171602,-0.060042,0.314820,0.767744,0.062580,0.077123,0.140038,-0.057057,-0.309645,-0.949138,0.025517,-0.006471,-0.026783,-9.755260,-15.501392,-22.663414,,,,,,,
1512180284.191592,-0.059975,0.315090,0.770777,-0.022802,-0.006332,0.141708,-0.056988,-0.309902,-0.949059,0.014919,-0.027012,-0.006599,-10.283947,-16.327183,-22.584328,,,,,,,
1512180284.211581,-0.061120,0.315069,0.773802,0.057097,0.070684,0.148463,-0.058076,-0.309882,-0.948999,0.034287,-0.002405,0.008280,-10.056286,-15.726841,-22.660973,,,,,,,
1512180284.231570,-0.059802,0.315919,0.776736,0.019827,0.030049,0.144586,-0.056809,-0.310690,-0.948812,0.057267,-0.021769,-0.015666,-10.432034,-15.877415,-22.807838,,,,,,,
1512180284.251588,-0.060983,0.315559,0.779571,-0.005525,0.039648,0.130391,-0.057936,-0.310347,-0.948856,0.026548,-0.024217,0.027713,-10.732830,-16.102863,-22.355400,,,,,,,
1512180284.271578,-0.060460,0.316342,0.782442,0.072340,0.081426,0.129532,-0.057425,-0.311092,-0.948643,0.028510,-0.025333,-0.006313,-10.057598,-16.026844,-22.586098,,,,,,,
1512180284.291533,-0.059644,0.316921,0.785269,-0.003447,0.033237,0.133598,-0.056640,-0.311642,-0.948509,0.030028,-0.042698,0.034233,-10.437466,-17.077427,-22.883400,,,,,,,
1512180284.311552,-0.060830,0.316581,0.788059,0.027399,0.021527,0.137202,-0.057772,-0.311320,-0.948547,0.001222,-0.037374,0.014801,-10.507183,-15.952518,-22.432243,,,,,,,
1512180284.331541,-0.059488,0.317444,0.790886,0.040267,0.068548,0.134352,-0.056483,-0.312139,-0.948355,0.012675,-0.056025,-0.004205,-10.282894,-16.102192,-22.509224,,,,,,,
1512180284.351530,-0.059978,0.317812,0.793864,0.015779,0.065314,0.132922,-0.056941,-0.312488,-0.948213,-0.006093,-0.069561,0.073014,-10.285625,-16.702198,-22.584511,,,,,,,
1512180284.371550,-0.060208,0.317730,0.796783,0.007953,-0.014852,0.150651,-0.057159,-0.312411,-0.948225,0.013443,-0.103727,-0.040209,-10.659283,-16.402760,-22.581184,,,,,,,
1512180284.391539,-0.059455,0.318602,0.799759,0.053153,0.150822,0.132692,-0.056430,-0.313239,-0.947996,-0.012326,-0.088357,0.081693,-10.884212,-16.403095,-22.429268,,,,,,,
1512180284.411528,-0.059702,0.318962,0.802875,0.009154,-0.010565,0.142153,-0.056657,-0.313581,-0.947869,-0.013427,-0.074694,0.024331,-10.510632,-16.702534,-22.582588,,,,,,,
1512180284.431547,-0.058965,0.319517,0.805822,0.044378,0.093104,0.145159,-0.055948,-0.314108,-0.947737,0.025461,-0.102960,0.034773,-10.734631,-16.477863,-22.580574,,,,,,,
1512180284.451536,-0.058743,0.320003,0.808853,0.024155,0.073854,0.142668,-0.055728,-0.314570,-0.947597,0.011890,-0.101797,0.046107,-10.734844,-16.552860,-22.355614,,,,,,,
1512180284.471525,-0.058287,0.320734,0.811910,0.043362,0.081362,0.141907,-0.055283,-0.315263,-0.947392,0.033601,-0.104719,0.032368,-10.511196,-16.852528,-22.357658,,,,,,,
1512180284.491514,-0.058061,0.321164,0.814914,0.018867,0.030061,0.138176,-0.055061,-0.315672,-0.947269,0.037223,-0.075915,0.002872,-10.735867,-16.777866,-22.355721,,,,,,,
1512180284.511534,-0.057821,0.321768,0.818074,0.036894,0.062115,0.144942,-0.054823,-0.316245,-0.947092,0.021376,-0.059244,0.002466,-10.886425,-16.928089,-22.129509,,,,,,,
1512180284.531523,-0.057434,0.322581,0.821099,0.045310,0.085611,0.152607,-0.054442,-0.317016,-0.946856,0.078474,-0.080247,0.037463,-10.964687,-17.603214,-22.579185,,,,,,,
1512180284.551512,-0.057728,0.322766,0.824097,0.005975,-0.007356,0.142122,-0.054717,-0.317191,-0.946781,0.073317,-0.067758,-0.006283,-10.961880,-17.003208,-22.353905,,,,,,,
1512180284.571531,-0.057777,0.323427,0.827290,0.045486,0.076023,0.141918,-0.054751,-0.317818,-0.946569,0.030749,-0.057762,0.037664,-11.108532,-16.253422,-22.427284,,,,,,,
1512180284.591520,-0.057797,0.323799,0.830321,-0.003653,0.020394,0.145276,-0.054763,-0.318170,-0.946450,0.053832,-0.060538,0.027184,-11.185253,-16.628544,-22.501823,,,,,,,
1512180284.611509,-0.058744,0.323989,0.833407,0.036865,0.040752,0.145935,-0.055656,-0.318350,-0.946337,0.038307,-0.034967,0.015887,-11.110226,-16.628422,-22.427452,,,,,,,
1512180284.631529,-0.058116,0.324612,0.836544,0.016429,0.030017,0.156262,-0.055050,-0.318941,-0.946174,0.037502,-0.047499,-0.002084,-11.189007,-17.453541,-22.577202,,,,,,,
1512180284.651518,-0.059102,0.324402,0.839589,0.015497,0.023623,0.147697,-0.055987,-0.318742,-0.946186,0.030550,-0.050170,0.003651,-11.186871,-17.003544,-22.351997,,,,,,,
1512180284.671507,-0.058683,0.325226,0.842871,0.039146,0.073885,0.138621,-0.055575,-0.319523,-0.945947,-0.029172,-0.018779,0.038812,-11.110516,-16.703434,-22.352501,,,,,,,
1512180284.691526,-0.059045,0.324990,0.846104,-0.021057,-0.026670,0.164050,-0.055922,-0.319299,-0.946002,0.013029,-0.061758,-0.017774,-11.411755,-17.003880,-22.125084,,,,,,,
1512180284.711515,-0.059095,0.325387,0.849249,0.044302,0.135818,0.151702,-0.055962,-0.319676,-0.945872,0.029671,-0.061092,0.059810,-11.337780,-17.228779,-22.125832,,,,,,,
1512180284.731504,-0.060192,0.325437,0.852558,-0.004979,-0.073630,0.156658,-0.056998,-0.319723,-0.945795,0.017890,-0.048670,-0.010840,-11.187923,-17.228550,-22.427101,,,,,,,
1512180284.751493,-0.060155,0.325726,0.855720,0.024081,0.093071,0.148064,-0.056957,-0.319997,-0.945704,0.045681,-0.050487,0.049418,-11.412930,-17.228886,-22.425179,,,,,,,
1512180284.771513,-0.061507,0.326001,0.858927,0.020802,-0.010551,0.147655,-0.058231,-0.320257,-0.945539,0.050586,-0.039728,0.050305,-11.336880,-17.003773,-22.350716,,,,,,,
1512180284.791502,-0.062019,0.326161,0.862003,-0.005820,-0.025542,0.145085,-0.058711,-0.320409,-0.945457,0.055110,-0.044352,0.009605,-11.562954,-17.229115,-22.498909,,,,,,,
1512180284.811491,-0.063445,0.326318,0.865021,0.043371,0.040770,0.138564,-0.060057,-0.320557,-0.945323,0.025908,-0.047012,0.046000,-11.788708,-17.379444,-22.647072,,,,,,,
1512180284.831511,-0.063606,0.326936,0.868039,0.005928,-0.020180,0.144208,-0.060197,-0.321143,-0.945115,0.040406,-0.068002,0.001176,-11.786983,-17.004444,-22.571892,,,,,,,
1512180284.851500,-0.065475,0.327045,0.870955,0.032612,0.012974,0.143643,-0.061960,-0.321246,-0.944966,0.036448,-0.046780,0.038960,-12.163296,-17.305012,-22.493843,,,,,,,
1512180284.871489,-0.066068,0.327395,0.873839,0.007126,-0.053274,0.134516,-0.062513,-0.321577,-0.944817,0.013777,-0.052370,-0.035362,-12.316372,-17.980244,-22.567879,,,,,,,
1512180284.891508,-0.067508,0.327890,0.876937,0.047677,0.029039,0.136457,-0.063863,-0.322046,-0.944567,-0.013652,-0.054541,0.027987,-12.237743,-17.155125,-22.718147,,,,,,,
1512180284.911497,-0.068397,0.328196,0.879851,0.003638,-0.069334,0.151467,-0.064696,-0.322336,-0.944411,0.031096,-0.071890,-0.020936,-12.238979,-17.455128,-22.493279,,,,,,,
1512180284.931486,-0.070166,0.328423,0.882852,0.047618,0.022616,0.138562,-0.066361,-0.322551,-0.944222,-0.000030,-0.058919,0.033654,-12.689129,-17.455799,-22.789436,,,,,,,
1512180284.951506,-0.070633,0.329055,0.885849,0.008289,-0.026563,0.129292,-0.066788,-0.323149,-0.943988,-0.010086,-0.066057,0.002551,-12.690029,-17.680805,-22.564552,,,,,,,
1512180284.971495,-0.072291,0.329161,0.888838,0.019893,-0.007331,0.138058,-0.068351,-0.323250,-0.943842,-0.006707,-0.073586,0.027521,-12.692806,-18.280811,-22.714836,,,,,,,
1512180284.991484,-0.073418,0.329678,0.891786,0.033752,-0.012654,0.137171,-0.069401,-0.323739,-0.943597,-0.027294,-0.060615,0.007226,-12.689388,-17.530796,-22.639488,,,,,,,
1512180285.011473,-0.073809,0.330191,0.894537,0.023175,0.042890,0.136151,-0.069759,-0.324224,-0.943404,0.014629,-0.074839,0.046874,-12.689053,-17.455799,-22.639458,,,,,,,
1512180285.031492,-0.075425,0.330352,0.897235,0.028589,-0.034002,0.126363,-0.071279,-0.324376,-0.943238,0.017156,-0.046047,0.011689,-13.065548,-17.756367,-22.936394,,,,,,,
1512180285.051481,-0.075643,0.330914,0.899856,0.027821,0.003419,0.110493,-0.071471,-0.324907,-0.943041,-0.048555,-0.026304,0.016573,-13.065472,-17.756367,-22.786400,,,,,,,
1512180285.071470,-0.075914,0.331471,0.902364,0.036370,0.057907,0.111872,-0.071713,-0.325434,-0.942841,-0.024860,-0.019079,0.075943,-13.140774,-17.831470,-22.710808,,,,,,,
1512180285.091490,-0.076645,0.331706,0.904707,0.026603,-0.043595,0.117776,-0.072396,-0.325656,-0.942712,0.006218,-0.018887,0.001519,-13.067059,-18.131367,-22.561577,,,,,,,
1512180285.111479,-0.076197,0.332086,0.906778,0.018469,0.066451,0.098850,-0.071964,-0.326016,-0.942621,-0.026546,-0.029392,0.044000,-13.365444,-17.756809,-22.708855,,,,,,,
1512180285.131468,-0.076761,0.332482,0.908942,0.038866,0.050478,0.089496,-0.072486,-0.326390,-0.942451,-0.027062,-0.041682,0.032356,-13.367611,-18.206821,-23.009056,,,,,,,
1512180285.151487,-0.076360,0.333201,0.910976,0.018670,0.007730,0.083724,-0.072090,-0.327070,-0.942246,-0.033730,-0.054095,-0.003769,-13.367840,-18.281818,-22.784081,,,,,,,
1512180285.171476,-0.076490,0.333319,0.912871,0.005851,0.044021,0.086861,-0.072210,-0.327181,-0.942198,-0.049723,-0.048185,0.014204,-13.443737,-18.506931,-22.558556,,,,,,,
1512180285.191465,-0.076344,0.334217,0.914726,0.073015,0.086849,0.089051,-0.072049,-0.328029,-0.941915,0.004880,-0.046818,0.018438,-13.594006,-18.507160,-23.082283,,,,,,,
1512180285.211454,-0.075468,0.334808,0.916353,0.002706,0.006643,0.082424,-0.071210,-0.328588,-0.941784,0.029615,-0.068858,-0.010547,-13.592388,-18.207157,-22.557152,,,,,,,
1512180285.231474,-0.075865,0.335096,0.917906,0.048942,0.074046,0.060938,-0.071577,-0.328860,-0.941662,-0.000353,-0.052610,0.027599,-13.592770,-18.282154,-22.632195,,,,,,,
1512180285.251463,-0.074956,0.336166,0.919625,0.029685,0.029147,0.062634,-0.070694,-0.329870,-0.941375,-0.017472,-0.041055,0.003936,-13.669003,-18.582264,-22.406685,,,,,,,
1512180285.271452,-0.075356,0.336292,0.921187,0.021950,-0.000800,0.078411,-0.071067,-0.329989,-0.941305,0.007163,-0.072095,-0.018930,-14.119839,-18.732944,-22.702934,,,,,,,
1512180285.291471,-0.074502,0.337456,0.922779,0.062549,0.102880,0.078295,-0.070235,-0.331088,-0.940982,0.017790,-0.066800,0.059359,-13.822414,-19.332493,-22.480766,,,,,,,
1512180285.311461,-0.075287,0.337558,0.924416,-0.003718,-0.059598,0.079965,-0.070971,-0.331184,-0.940893,0.020938,-0.058480,-0.002055,-13.896328,-19.107609,-22.330009,,,,,,,
1512180285.331450,-0.074819,0.338270,0.925928,0.057371,0.099684,0.068613,-0.070513,-0.331856,-0.940690,0.025148,-0.059395,0.042375,-13.669338,-18.657276,-22.406715,,,,,,,
1512180285.351469,-0.075436,0.338533,0.927535,-0.004536,-0.059569,0.065028,-0.071087,-0.332104,-0.940560,0.009640,-0.006794,-0.007866,-14.123058,-19.482944,-22.403267,,,,,,,
1512180285.371458,-0.075319,0.339368,0.929228,0.068920,0.071904,0.077209,-0.070956,-0.332892,-0.940291,-0.021756,-0.051523,0.030287,-13.671963,-19.257267,-22.256996,,,,,,,
1512180285.391447,-0.075096,0.339684,0.930545,-0.004594,-0.015778,0.071580,-0.070738,-0.333189,-0.940202,0.028151,-0.078172,-0.010222,-13.672756,-19.407276,-22.482063,,,,,,,
1512180285.411467,-0.076181,0.340314,0.932197,0.072312,0.018530,0.063215,-0.071743,-0.333784,-0.939915,-0.028340,-0.015429,0.000370,-13.670803,-19.032276,-21.956902,,,,,,,
1512180285.431456,-0.075545,0.341283,0.933705,0.001652,-0.010451,0.080215,-0.071121,-0.334696,-0.939638,-0.001786,-0.096319,0.027193,-14.045879,-19.032841,-22.103706,,,,,,,
1512180285.451445,-0.077901,0.341038,0.935240,0.019922,-0.020018,0.070851,-0.073340,-0.334465,-0.939549,0.004950,-0.064339,0.033803,-14.121563,-19.182941,-22.103142,,,,,,,
1512180285.471434,-0.078222,0.341968,0.936840,0.041246,-0.059504,0.068892,-0.073617,-0.335341,-0.939215,0.014566,-0.018907,-0.021615,-13.971111,-19.107716,-21.879372,,,,,,,
1512180285.491453,-0.078873,0.342486,0.938165,0.010640,0.061182,0.056076,-0.074215,-0.335830,-0.938994,-0.006717,-0.063706,0.119505,-13.896816,-19.257618,-21.955086,,,,,,,
1512180285.511442,-0.080274,0.342292,0.939312,0.009429,-0.089438,0.057667,-0.075536,-0.335647,-0.938954,0.022420,-0.051484,-0.041790,-13.671474,-19.182270,-21.956963,,,,,,,
1512180285.531431,-0.079813,0.343495,0.940518,0.059834,0.063415,0.047204,-0.075071,-0.336780,-0.938585,0.008542,-0.017179,0.051684,-14.049740,-19.857838,-22.404091,,,,,,,
1512180285.551451,-0.081132,0.343098,0.941513,-0.049940,-0.073473,0.037670,-0.076320,-0.336406,-0.938619,-0.065160,-0.025121,0.028356,-13.822048,-19.332493,-21.730766,,,,,,,
1512180285.571440,-0.081597,0.343269,0.942626,0.046888,0.017449,0.054319,-0.076751,-0.336567,-0.938526,-0.046280,-0.017421,-0.046200,-14.047115,-19.332844,-21.878838,,,,,,,
1512180285.591429,-0.081683,0.344135,0.943691,0.033910,-0.011435,0.063622,-0.076808,-0.337383,-0.938228,0.009913,-0.060398,0.013988,-14.122494,-19.407948,-21.953239,,,,,,,
1512180285.611448,-0.082828,0.343839,0.944611,-0.027434,-0.025360,0.032833,-0.077891,-0.337104,-0.938239,-0.058706,-0.043206,0.028266,-14.348843,-19.708286,-21.951469,,,,,,,
1512180285.631437,-0.083532,0.344090,0.945677,0.042700,-0.025279,0.046643,-0.078544,-0.337340,-0.938100,-0.005089,-0.025209,-0.024837,-14.272945,-19.483173,-22.176994,,,,,,,
1512180285.651426,-0.082822,0.345371,0.946763,0.039647,0.089023,0.043800,-0.077842,-0.338546,-0.937724,-0.002633,-0.044694,0.135081,-14.125637,-20.082951,-22.178551,,,,,,,
1512180285.671446,-0.084403,0.344388,0.947432,-0.059397,-0.131147,0.026672,-0.079353,-0.337621,-0.937931,-0.062401,-0.031626,-0.001568,-13.896099,-19.107609,-21.880013,,,,,,,
1512180285.691435,-0.083026,0.345375,0.948031,0.099727,0.169268,0.024695,-0.078033,-0.338550,-0.937707,-0.024735,-0.014004,0.061928,-14.274136,-19.783176,-21.877129,,,,,,,
1512180285.711424,-0.081983,0.346061,0.948413,-0.020849,-0.012508,0.022314,-0.077036,-0.339195,-0.937556,0.009058,-0.080819,0.021311,-13.746136,-19.107380,-21.956291,,,,,,,
