  time_unix,rotate_x,rotate_y,rotate_z,acc_x,acc_y,acc_z,mag_x,mag_y,mag_z
  1512178327,0.0434,0.0284,0.0052,430.85,-313.84,1123.47,-57,-151,76
  1512178327,0.0380,0.0262,0.0043,427.25,-313.48,1083.80,-57,-151,76
  1512178327,0.0414,0.0332,0.0045,435.18,-316.96,1094.91,-57,-151,76
  1512178327,0.0431,0.0254,0.0039,430.24,-311.52,1102.54,-52,-149,71
  1512178327,0.0386,0.0264,0.0041,423.40,-326.78,1091.25,-52,-149,71
  1512178327,0.0382,0.0269,0.0037,428.71,-317.38,1091.74,-52,-149,71
  1512178327,0.0414,0.0258,0.0039,430.42,-312.19,1099.85,-52,-149,71
  1512178327,0.0364,0.0238,0.0037,423.28,-326.05,1085.51,-52,-149,71
  1512178327,0.0390,0.0266,0.0049,435.18,-320.07,1115.11,-68,-158,69
  1512178327,0.0368,0.0254,0.0029,429.20,-313.23,1087.28,-68,-158,69
  1512178327,0.0368,0.0278,0.0056,426.15,-322.81,1093.75,-68,-158,69
  1512178327,0.0361,0.0249,0.0036,430.30,-321.29,1084.47,-68,-158,69
  1512178327,0.0378,0.0260,0.0028,431.27,-317.44,1078.06,-56,-160,67
  1512178327,0.0382,0.0330,0.0036,433.53,-320.56,1103.09,-56,-160,67
  1512178327,0.0451,0.0284,0.0044,432.86,-311.65,1109.13,-56,-160,67
  1512178327,0.0418,0.0294,0.0025,423.28,-317.81,1093.57,-56,-160,67
  1512178327,0.0413,0.0317,0.0045,437.01,-321.47,1097.66,-56,-160,67
  1512178327,0.0453,0.0265,0.0032,430.97,-310.36,1106.69,-65,-141,79
  1512178327,0.0382,0.0265,0.0039,421.02,-325.32,1093.02,-65,-141,79
  1512178327,0.0386,0.0282,0.0039,427.67,-318.18,1082.58,-65,-141,79
  1512178327,0.0399,0.0272,0.0040,428.83,-313.23,1090.76,-65,-141,79
  1512178327,0.0370,0.0270,0.0037,422.61,-321.59,1086.18,-66,-163,64
  1512178327,0.0418,0.0277,0.0023,430.91,-318.91,1118.16,-66,-163,64
  1512178327,0.0386,0.0253,0.0029,433.96,-315.86,1076.29,-66,-163,64
  1512178327,0.0354,0.0281,0.0048,435.97,-324.58,1095.46,-66,-163,64
  1512178327,0.0450,0.0280,0.0029,433.35,-317.50,1119.81,-66,-163,64
  1512178327,0.0411,0.0278,0.0041,429.08,-319.89,1103.58,-59,-174,67
  1512178327,0.0350,0.0248,0.0036,435.49,-321.66,1084.78,-59,-174,67
  1512178328,0.0361,0.0252,0.0052,399.84,-334.59,1123.72,-59,-174,67
  1512178328,0.0353,0.0261,0.0089,396.12,-356.87,1086.91,-59,-174,67
  1512178328,0.0280,0.0213,0.0089,398.07,-355.65,1077.21,-59,-174,67
  1512178328,0.0354,0.0305,0.0127,404.54,-352.29,1099.00,-65,-144,69
  1512178328,0.0328,0.0345,0.0157,374.76,-366.88,1109.62,-65,-144,69
  1512178328,0.0450,0.0341,0.0148,396.55,-351.68,1126.83,-65,-144,69
  1512178328,0.0372,0.0285,0.0121,374.15,-367.74,1095.95,-65,-144,69
  1512178328,0.0419,0.0277,0.0127,387.45,-364.20,1089.36,-72,-151,76
  1512178328,0.0358,0.0253,0.0107,391.78,-356.81,1119.38,-72,-151,76
  1512178328,0.0372,0.0269,0.0116,383.42,-359.37,1090.45,-72,-151,76
  1512178328,0.0399,0.0274,0.0153,392.03,-363.28,1092.41,-72,-151,76
  1512178328,0.0437,0.0246,0.0160,405.21,-349.61,1104.00,-72,-151,76
  1512178328,0.0394,0.0244,0.0218,390.69,-373.66,1095.52,-66,-153,81
  1512178328,0.0385,0.0240,0.0241,400.45,-370.48,1097.47,-66,-153,81
  1512178328,0.0401,0.0253,0.0241,405.21,-359.62,1095.76,-66,-153,81
  1512178328,0.0410,0.0286,0.0269,383.12,-374.82,1096.62,-66,-153,81
  1512178328,0.0437,0.0288,0.0254,391.85,-368.04,1096.37,-66,-153,81
  1512178328,0.0419,0.0310,0.0270,394.35,-358.89,1101.81,-61,-162,79
  1512178328,0.0391,0.0297,0.0286,373.54,-379.76,1099.91,-61,-162,79
  1512178328,0.0442,0.0292,0.0286,389.28,-358.52,1097.35,-61,-162,79
  1512178328,0.0447,0.0289,0.0300,392.58,-356.38,1088.20,-61,-162,79
  1512178328,0.0443,0.0278,0.0336,369.87,-379.76,1081.36,-80,-163,88
  1512178328,0.0345,0.0281,0.0333,399.84,-371.70,1103.76,-80,-163,88
  1512178328,0.0430,0.0301,0.0364,403.63,-362.73,1081.60,-80,-163,88
  1512178328,0.0336,0.0293,0.0365,385.56,-378.72,1106.14,-80,-163,88
  1512178328,0.0281,0.0274,0.0374,395.20,-363.83,1136.11,-80,-163,88
  1512178328,0.0437,0.0245,0.0402,388.00,-367.74,1063.11,-54,-151,82
  1512178328,0.0373,0.0274,0.0398,382.93,-383.12,1090.94,-54,-151,82
  1512178328,0.0394,0.0293,0.0434,408.39,-367.86,1080.75,-54,-151,82
  1512178328,0.0465,0.0300,0.0446,394.53,-367.19,1110.53,-54,-151,82
  1512178328,0.0321,0.0249,0.0449,380.68,-384.64,1079.71,-54,-151,82
  1512178328,0.0356,0.0277,0.0491,402.47,-362.00,1103.82,-52,-160,54
  1512178328,0.0413,0.0276,0.0485,399.84,-371.34,1097.90,-52,-160,54
  1512178328,0.0386,0.0249,0.0518,386.78,-374.63,1075.07,-52,-160,54
  1512178328,0.0399,0.0269,0.0514,405.27,-366.58,1099.98,-52,-160,54
  1512178328,0.0389,0.0232,0.0515,402.89,-366.94,1115.05,-54,-158,79
  1512178328,0.0401,0.0258,0.0541,397.40,-381.96,1091.06,-54,-158,79
  1512178328,0.0438,0.0282,0.0535,400.94,-364.20,1102.42,-54,-158,79
  1512178329,0.0426,0.0260,0.0538,404.91,-362.61,1116.52,-54,-158,79
  1512178329,0.0381,0.0261,0.0569,392.46,-373.11,1069.03,-54,-158,79
  1512178329,0.0406,0.0273,0.0579,403.14,-358.89,1086.85,-50,-165,72
  1512178329,0.0471,0.0257,0.0609,407.59,-356.14,1116.33,-50,-165,72
  1512178329,0.0383,0.0233,0.0646,396.55,-372.07,1078.00,-50,-165,72
  1512178329,0.0399,0.0265,0.0646,414.00,-361.39,1093.32,-50,-165,72
  1512178329,0.0429,0.0230,0.0668,416.99,-365.05,1129.09,-59,-163,60
  1512178329,0.0423,0.0266,0.0699,401.61,-380.31,1090.82,-59,-163,60
  1512178329,0.0418,0.0264,0.0719,412.17,-367.92,1105.10,-59,-163,60
  1512178329,0.0422,0.0248,0.0716,417.24,-358.46,1123.41,-59,-163,60
  1512178329,0.0407,0.0245,0.0756,398.01,-372.92,1085.94,-59,-163,60
  1512178329,0.0451,0.0276,0.0767,416.93,-369.08,1103.94,-54,-162,72
  1512178329,0.0461,0.0257,0.0824,415.59,-353.15,1114.50,-54,-162,72
  1512178329,0.0463,0.0250,0.0852,405.09,-375.43,1090.70,-54,-162,72
  1512178329,0.0399,0.0257,0.0909,427.80,-384.64,1093.81,-54,-162,72
  1512178329,0.0438,0.0266,0.0940,422.12,-372.38,1111.51,-54,-162,72
  1512178329,0.0430,0.0230,0.0983,411.01,-385.56,1087.83,-45,-171,71
  1512178329,0.0462,0.0265,0.0996,423.28,-381.23,1106.14,-45,-171,71
  1512178329,0.0410,0.0245,0.1047,430.97,-373.72,1121.34,-45,-171,71
  1512178329,0.0410,0.0248,0.1075,418.58,-387.39,1070.86,-45,-171,71
  1512178329,0.0438,0.0293,0.1119,430.24,-377.01,1104.55,-56,-163,67
  1512178329,0.0471,0.0250,0.1153,434.08,-371.70,1114.62,-56,-163,67
  1512178329,0.0466,0.0250,0.1213,431.52,-378.60,1075.93,-56,-163,67
  1512178329,0.0449,0.0284,0.1252,437.93,-379.33,1113.40,-56,-163,67
  1512178329,0.0505,0.0252,0.1330,431.21,-362.18,1114.93,-56,-163,67
  1512178329,0.0514,0.0277,0.1366,413.27,-374.27,1084.11,-50,-176,76
  1512178329,0.0522,0.0304,0.1405,435.79,-375.55,1104.37,-50,-176,76
  1512178329,0.0521,0.0257,0.1455,434.63,-365.72,1112.24,-50,-176,76
  1512178329,0.0517,0.0297,0.1469,433.90,-371.03,1093.44,-50,-176,76
  1512178329,0.0486,0.0305,0.1499,438.54,-375.92,1085.08,-50,-176,76
  1512178329,0.0495,0.0294,0.1525,447.51,-364.14,1106.99,-40,-158,76
  1512178329,0.0515,0.0313,0.1594,429.26,-367.49,1100.89,-40,-158,76
  1512178329,0.0474,0.0321,0.1630,427.80,-376.16,1110.35,-40,-158,76
  1512178329,0.0547,0.0306,0.1676,433.29,-356.69,1125.49,-40,-158,76
  1512178329,0.0445,0.0305,0.1756,433.41,-386.35,1078.92,-50,-172,76
  1512178329,0.0519,0.0310,0.1812,451.42,-377.56,1093.38,-50,-172,76
  1512178329,0.0490,0.0273,0.1823,441.41,-374.33,1111.94,-50,-172,76
  1512178329,0.0427,0.0289,0.1855,434.75,-386.60,1085.08,-50,-172,76
  1512178330,0.0389,0.0312,0.1883,440.00,-386.54,1078.55,-50,-172,76
  1512178330,0.0543,0.0312,0.1901,445.19,-360.05,1141.30,-31,-188,77
  1512178330,0.0586,0.0289,0.1957,425.66,-357.06,1098.33,-31,-188,77
  1512178330,0.0465,0.0284,0.2004,423.65,-367.86,1102.29,-31,-188,77
  1512178330,0.0477,0.0272,0.2045,438.84,-369.20,1106.08,-31,-188,77
  1512178330,0.0499,0.0280,0.2143,439.51,-380.74,1068.05,-36,-179,79
  1512178330,0.0434,0.0336,0.2265,445.07,-373.11,1099.98,-36,-179,79
  1512178330,0.0495,0.0326,0.2360,467.41,-369.38,1106.63,-36,-179,79
  1512178330,0.0594,0.0356,0.2407,456.18,-382.20,1099.37,-36,-179,79
  1512178330,0.0519,0.0383,0.2202,445.37,-385.86,1097.05,-36,-179,79
  1512178330,0.0547,0.0362,0.2242,455.08,-378.23,1107.42,-36,-176,76
  1512178330,0.0494,0.0361,0.2273,448.61,-381.90,1101.26,-36,-176,76
  1512178330,0.0513,0.0362,0.2342,434.81,-375.73,1069.76,-36,-176,76
  1512178330,0.0465,0.0369,0.2358,440.00,-389.40,1113.10,-36,-176,76
  1512178330,0.0587,0.0317,0.2406,440.37,-363.95,1103.82,-36,-176,76
  1512178330,0.0583,0.0360,0.2446,424.38,-377.08,1061.65,-35,-185,74
  1512178330,0.0585,0.0414,0.2442,439.15,-372.68,1083.92,-35,-185,74
  1512178330,0.0583,0.0372,0.2450,437.26,-364.62,1107.60,-35,-185,74
  1512178330,0.0579,0.0348,0.2497,437.26,-366.46,1089.84,-35,-185,74
  1512178330,0.0431,0.0356,0.2479,442.26,-396.24,1090.94,-14,-167,74
  1512178330,0.0595,0.0414,0.2494,457.03,-369.14,1116.82,-14,-167,74
  1512178330,0.0554,0.0387,0.2521,445.01,-370.54,1116.09,-14,-167,74
  1512178330,0.0473,0.0410,0.2545,440.31,-393.13,1082.52,-14,-167,74
  1512178330,0.0539,0.0389,0.2585,454.35,-373.35,1103.09,-14,-167,74
  1512178330,0.0567,0.0386,0.2613,460.33,-365.42,1086.73,-14,-192,91
  1512178330,0.0478,0.0369,0.2629,443.91,-391.05,1095.52,-14,-192,91
  1512178330,0.0422,0.0402,0.2668,443.05,-387.33,1096.50,-14,-192,91
  1512178330,0.0658,0.0403,0.2712,461.55,-348.69,1112.00,-14,-192,91
  1512178330,0.0602,0.0475,0.2711,462.65,-388.31,1083.19,-14,-192,91
  1512178330,0.0610,0.0465,0.2748,470.76,-371.40,1086.61,1,-179,82
  1512178330,0.0648,0.0495,0.2756,467.41,-362.98,1136.84,1,-179,82
  1512178330,0.0562,0.0431,0.2796,450.50,-356.87,1127.38,1,-179,82
  1512178330,0.0656,0.0503,0.2819,442.02,-346.98,1103.64,1,-179,82
  1512178330,0.0728,0.0473,0.2859,462.77,-360.47,1125.06,-14,-192,94
  1512178330,0.0658,0.0482,0.2886,463.81,-362.49,1098.94,-14,-192,94
  1512178330,0.0621,0.0505,0.2912,443.36,-378.17,1073.18,-14,-192,94
  1512178330,0.0557,0.0431,0.2924,469.67,-374.08,1088.87,-14,-192,94
  1512178331,0.0525,0.0411,0.3024,463.50,-363.34,1060.85,-14,-192,94
  1512178331,0.0502,0.0466,0.3132,442.44,-377.32,1043.27,-3,-206,88
  1512178331,0.0385,0.0522,0.3623,459.59,-367.37,1080.44,-3,-206,88
  1512178331,0.0886,0.0493,0.3755,470.09,-361.08,1185.36,-3,-206,88
  1512178331,0.0750,0.0495,0.3814,466.49,-355.29,1088.32,-3,-206,88
  1512178331,0.0467,0.0545,0.3278,457.28,-395.87,1068.79,-3,-206,88
  1512178331,0.0638,0.0543,0.3141,424.68,-355.41,1055.91,15,-200,82
  1512178331,0.0790,0.0585,0.3115,446.47,-343.93,1088.68,15,-200,82
  1512178331,0.0602,0.0491,0.3149,442.57,-357.06,1140.63,15,-200,82
  1512178331,0.1084,0.0434,0.3176,438.96,-339.84,1107.85,15,-200,82
  1512178331,0.0542,0.0377,0.3165,468.02,-356.51,1141.91,19,-208,86
  1512178331,0.0011,0.0372,0.3124,450.32,-390.01,1093.57,19,-208,86
  1512178331,0.0380,0.0455,0.3149,477.78,-359.31,1105.53,19,-208,86
  1512178331,0.0621,0.0433,0.3178,484.50,-370.91,1126.04,19,-208,86
  1512178331,0.0437,0.0394,0.3210,457.40,-363.22,1047.06,19,-208,86
  1512178331,0.0458,0.0419,0.3213,488.53,-364.38,1071.47,31,-213,71
  1512178331,0.0551,0.0304,0.3190,477.48,-358.22,1118.84,31,-213,71
  1512178331,0.0511,0.0249,0.3225,470.70,-351.62,1078.86,31,-213,71
  1512178331,0.0409,0.0302,0.3261,453.00,-360.47,1049.50,31,-213,71
  1512178331,0.0383,0.0314,0.3305,467.41,-357.85,1083.13,52,-192,101
  1512178331,0.0430,0.0348,0.3297,469.24,-370.48,1055.18,52,-192,101
  1512178331,0.0105,0.0419,0.3300,472.96,-383.48,1027.22,52,-192,101
  1512178331,0.0325,0.0326,0.3302,470.03,-389.95,1091.74,52,-192,101
  1512178331,0.0449,0.0266,0.3354,485.29,-405.46,1115.36,52,-192,101
  1512178331,0.0165,0.0345,0.3357,478.15,-400.94,1075.13,50,-197,86
  1512178331,0.0260,0.0340,0.3346,433.65,-386.60,1034.36,50,-197,86
  1512178331,0.0449,0.0288,0.3358,457.64,-355.10,1113.04,50,-197,86
  1512178331,0.0764,0.0341,0.3345,457.52,-360.47,1141.48,50,-197,86
  1512178331,0.0663,0.0413,0.3409,475.59,-372.50,1068.73,49,-206,74
  1512178331,0.0734,0.0422,0.3342,478.33,-355.22,1098.39,49,-206,74
  1512178331,0.0455,0.0252,0.3366,501.10,-372.38,1101.07,49,-206,74
  1512178331,0.0535,0.0304,0.3404,501.95,-347.23,1087.28,49,-206,74
  1512178331,0.0372,0.0306,0.3429,461.79,-375.67,1069.52,49,-206,74
  1512178331,0.0378,0.0346,0.3438,466.43,-363.16,1076.97,66,-202,84
  1512178331,0.0478,0.0433,0.3437,463.32,-386.29,1083.80,66,-202,84
  1512178331,0.0525,0.0419,0.3437,492.43,-366.64,1105.04,66,-202,84
  1512178331,0.0336,0.0415,0.3429,484.07,-389.95,1111.21,66,-202,84
  1512178331,0.0429,0.0383,0.3409,483.89,-394.59,1118.53,66,-202,84
  1512178332,0.0514,0.0409,0.3406,497.50,-373.29,1127.44,70,-199,81
  1512178332,0.0409,0.0350,0.3427,460.27,-380.31,1091.61,70,-199,81
  1512178332,0.0650,0.0357,0.3412,492.00,-348.08,1128.54,70,-199,81
  1512178332,0.0551,0.0330,0.3482,496.03,-354.43,1093.87,70,-199,81
  1512178332,0.0430,0.0336,0.3470,477.11,-369.57,1051.03,75,-211,79
  1512178332,0.0573,0.0360,0.3515,463.01,-341.80,1088.32,75,-211,79
  1512178332,0.1071,0.0334,0.3461,477.72,-364.99,1138.00,75,-211,79
  1512178332,0.1185,0.0290,0.3485,495.18,-353.27,1148.44,75,-211,79
  1512178332,0.0659,0.0353,0.3531,477.78,-360.90,1058.11,75,-211,79
  1512178332,0.0313,0.0353,0.3518,476.20,-379.21,1045.59,75,-208,66
  1512178332,0.0490,0.0372,0.3489,507.51,-356.69,1112.73,75,-208,66
  1512178332,0.0690,0.0329,0.3515,477.72,-365.48,1096.68,75,-208,66
  1512178332,0.0376,0.0360,0.3521,469.12,-368.47,1043.15,75,-208,66
  1512178332,0.0699,0.0293,0.3487,457.28,-351.75,1111.88,75,-208,66
  1512178332,0.0664,0.0277,0.3493,469.97,-376.16,1144.65,103,-211,82
  1512178332,0.0360,0.0286,0.3506,494.69,-379.70,1052.31,103,-211,82
  1512178332,0.0383,0.0358,0.3506,464.90,-362.92,1047.36,103,-211,82
  1512178332,0.0599,0.0415,0.3462,481.87,-370.42,1117.43,103,-211,82
  1512178332,0.0707,0.0313,0.3470,467.59,-365.36,1149.11,98,-195,71
  1512178332,0.0707,0.0397,0.3446,475.34,-366.70,1098.82,98,-195,71
  1512178332,0.0314,0.0421,0.3470,481.81,-383.85,1062.81,98,-195,71
  1512178332,0.0473,0.0302,0.3459,490.78,-365.05,1059.51,98,-195,71
  1512178332,0.0397,0.0241,0.3431,482.67,-377.20,1059.57,98,-195,71
  1512178332,0.0294,0.0301,0.3443,465.39,-351.99,1081.42,108,-206,84
  1512178332,0.0320,0.0405,0.3453,469.97,-350.83,1087.34,108,-206,84
  1512178332,0.0699,0.0422,0.3425,468.69,-342.04,1098.88,108,-206,84
  1512178332,0.0644,0.0450,0.3386,448.55,-377.69,1098.57,108,-206,84
  1512178332,0.0158,0.0471,0.3338,491.82,-380.49,1081.42,108,-206,84
  1512178332,0.0590,0.0409,0.3337,476.38,-354.61,1090.45,117,-215,72
  1512178332,0.0703,0.0393,0.3330,455.87,-338.01,1076.35,117,-215,72
  1512178332,0.0599,0.0418,0.3309,459.78,-345.34,1080.14,117,-215,72
  1512178332,0.0718,0.0459,0.3328,428.28,-346.86,1068.66,117,-215,72
  1512178332,0.0779,0.0414,0.3277,441.47,-354.25,1123.66,121,-218,82
  1512178332,0.0601,0.0401,0.3233,474.79,-360.41,1078.00,121,-218,82
  1512178332,0.0502,0.0466,0.3176,461.61,-370.85,1045.84,121,-218,82
  1512178332,0.0593,0.0433,0.3128,441.35,-362.73,1046.08,121,-218,82
  1512178332,0.0589,0.0330,0.3083,446.90,-350.89,1113.34,121,-218,82
  1512178332,0.0583,0.0393,0.3072,461.85,-368.23,1073.73,138,-211,76
  1512178333,0.0670,0.0433,0.2989,464.48,-368.29,1072.27,138,-211,76
  1512178333,0.0523,0.0447,0.2972,462.10,-370.24,1132.93,138,-211,76
  1512178333,0.0609,0.0364,0.2992,468.87,-341.74,1120.18,138,-211,76
  1512178333,0.0664,0.0293,0.2989,455.63,-321.96,1093.44,138,-204,79
  1512178333,0.0344,0.0415,0.2887,477.72,-387.27,1086.61,138,-204,79
  1512178333,0.0209,0.0415,0.2925,456.05,-372.13,1006.47,138,-204,79
  1512178333,0.0398,0.0462,0.2859,467.16,-356.14,1115.66,138,-204,79
  1512178333,0.0879,0.0342,0.2794,483.28,-350.71,1128.85,138,-204,79
  1512178333,0.0964,0.0409,0.2770,461.61,-351.75,1084.90,144,-199,67
  1512178333,0.0561,0.0482,0.2715,465.39,-370.61,1028.32,144,-199,67
  1512178333,0.0776,0.0415,0.2688,459.78,-334.72,1121.52,144,-199,67
  1512178333,0.1141,0.0320,0.2615,446.78,-338.20,1152.89,144,-199,67
  1512178333,0.0951,0.0313,0.2627,436.40,-340.64,1053.96,144,-199,67
  1512178333,0.0561,0.0433,0.2605,452.27,-352.54,1045.23,152,-200,93
  1512178333,0.0807,0.0446,0.2574,456.12,-336.00,1112.98,152,-200,93
  1512178333,0.1376,0.0297,0.2543,457.34,-335.27,1160.22,152,-200,93
  1512178333,0.1039,0.0352,0.2555,442.99,-337.16,1066.10,152,-200,93
  1512178333,0.0553,0.0377,0.2491,437.13,-352.36,1046.75,165,-202,98
  1512178333,0.0644,0.0398,0.2445,439.45,-364.44,1090.76,165,-202,98
  1512178333,0.0896,0.0380,0.2442,472.66,-311.65,1157.35,165,-202,98
  1512178333,0.0497,0.0324,0.2450,471.37,-363.53,1095.03,165,-202,98
  1512178333,0.0157,0.0391,0.2439,480.90,-345.52,1044.98,165,-202,98
  1512178333,0.0188,0.0421,0.2445,469.97,-353.94,1129.88,161,-192,77
  1512178333,0.0625,0.0411,0.2414,469.36,-356.32,1162.54,161,-192,77
  1512178333,0.0586,0.0442,0.2341,488.10,-353.03,1118.10,161,-192,77
  1512178333,0.0372,0.0419,0.2361,454.83,-348.63,1041.75,161,-192,77
  1512178333,0.0362,0.0383,0.2328,447.75,-341.37,1094.79,177,-193,89
  1512178333,0.0449,0.0268,0.2314,485.11,-338.62,1099.37,177,-193,89
  1512178333,0.0045,0.0300,0.2329,458.31,-352.11,1037.96,177,-193,89
  1512178333,-0.0557,0.0376,0.2306,463.38,-377.93,1017.46,177,-193,89
  1512178333,-0.0312,0.0298,0.2321,454.28,-338.07,1041.20,177,-193,89
  1512178333,0.0190,0.0148,0.2280,461.73,-350.46,1135.68,175,-185,67
  1512178333,0.0306,0.0044,0.2256,464.78,-337.71,1156.07,175,-185,67
  1512178333,0.0132,0.0152,0.2220,470.09,-363.95,1034.42,175,-185,67
  1512178333,-0.0076,0.0158,0.2137,474.73,-397.09,1077.33,175,-185,67
  1512178333,0.0200,0.0134,0.2170,471.56,-358.58,1107.97,175,-185,67
  1512178333,0.0374,0.0095,0.2148,477.78,-353.39,1108.34,186,-192,74
  1512178334,0.0282,0.0201,0.2128,476.01,-368.35,1038.82,186,-192,74
  1512178334,0.0224,0.0245,0.2107,472.47,-368.35,1044.56,186,-192,74
  1512178334,0.0304,0.0282,0.2158,459.23,-369.08,1078.49,186,-192,74
  1512178334,0.0670,0.0177,0.2093,486.88,-354.55,1123.66,173,-186,89
  1512178334,0.0421,0.0285,0.2105,476.26,-371.64,1068.05,173,-186,89
  1512178334,0.0280,0.0312,0.2060,452.70,-376.95,1054.20,173,-186,89
  1512178334,0.0212,0.0312,0.2033,437.68,-368.84,1021.06,173,-186,89
  1512178334,0.0747,0.0410,0.1951,462.16,-340.52,1128.72,173,-186,89
  1512178334,0.0712,0.0377,0.1913,467.41,-344.24,1128.54,182,-185,71
  1512178334,0.0471,0.0372,0.1899,448.36,-333.92,1037.17,182,-185,71
  1512178334,0.0509,0.0341,0.1891,440.73,-324.28,1103.58,182,-185,71
  1512178334,0.0550,0.0288,0.1815,461.24,-324.95,1127.44,182,-185,71
  1512178334,0.0630,0.0278,0.1774,451.05,-344.12,1127.75,200,-185,81
  1512178334,0.0304,0.0324,0.1775,462.65,-345.95,1098.02,200,-185,81
  1512178334,0.0105,0.0330,0.1720,451.11,-365.11,1073.61,200,-185,81
  1512178334,0.0387,0.0391,0.1688,447.94,-346.13,1076.66,200,-185,81
  1512178334,0.0618,0.0387,0.1658,477.36,-340.21,1126.10,200,-185,81
  1512178334,0.0236,0.0403,0.1589,468.02,-381.41,1093.69,210,-171,84
  1512178334,0.0130,0.0470,0.1582,498.96,-362.37,1131.47,210,-171,84
  1512178334,0.0292,0.0567,0.1545,481.93,-369.75,1154.72,210,-171,84
  1512178334,0.0501,0.0582,0.1535,477.42,-371.34,1093.75,210,-171,84
  1512178334,0.0478,0.0581,0.1482,476.07,-375.00,1051.27,210,-171,84
  1512178334,0.0217,0.0635,0.1463,480.29,-359.19,1106.69,202,-186,76
  1512178334,0.0603,0.0655,0.1467,441.22,-341.86,1082.70,202,-186,76
  1512178334,0.0727,0.0703,0.1429,456.05,-320.31,1092.83,202,-186,76
  1512178334,0.0631,0.0703,0.1372,456.30,-335.88,1090.33,202,-186,76
  1512178334,0.0534,0.0644,0.1402,444.15,-340.88,1048.83,216,-169,93
  1512178334,0.0487,0.0535,0.1346,434.14,-343.75,1074.52,216,-169,93
  1512178334,0.0233,0.0407,0.1348,436.71,-331.54,1042.48,216,-169,93
  1512178334,0.0162,0.0409,0.1353,440.12,-354.55,1096.37,216,-169,93
  1512178334,-0.0280,0.0445,0.1317,473.45,-366.15,1034.79,216,-169,93
  1512178334,0.0330,0.0495,0.1253,451.42,-370.00,1070.25,196,-171,98
  1512178334,0.0417,0.0381,0.1182,465.27,-353.33,1167.97,196,-171,98
  1512178334,0.0691,0.0383,0.1249,474.00,-306.52,1159.61,196,-171,98
  1512178334,0.0526,0.0320,0.1237,455.93,-330.87,1145.51,196,-171,98
  1512178334,0.0479,0.0184,0.1272,437.01,-324.52,1086.49,196,-171,98
  1512178334,0.0415,0.0213,0.1301,437.26,-321.35,1068.91,212,-172,76
  1512178334,0.0503,0.0120,0.1274,441.10,-338.07,1133.06,212,-172,76
  1512178335,0.0545,0.0121,0.1242,463.87,-341.06,1086.06,212,-172,76
  1512178335,0.0433,0.0192,0.1184,455.02,-331.12,1064.64,212,-172,76
  1512178335,0.0438,0.0124,0.1192,433.47,-334.05,1083.80,221,-156,91
  1512178335,0.0242,0.0051,0.1140,455.51,-315.37,1102.60,221,-156,91
  1512178335,0.0208,-0.0004,0.1160,454.96,-334.29,1113.46,221,-156,91
  1512178335,-0.0204,-0.0080,0.1149,468.99,-360.11,1078.37,221,-156,91
  1512178335,-0.0300,0.0032,0.1198,464.05,-357.85,1040.83,221,-156,91
  1512178335,-0.0481,0.0053,0.1172,465.21,-374.08,1060.30,231,-171,67
  1512178335,-0.0144,0.0013,0.1162,476.75,-374.88,1147.46,231,-171,67
  1512178335,0.0056,0.0019,0.1188,498.60,-348.33,1139.77,231,-171,67
  1512178335,-0.0011,0.0012,0.1144,478.82,-360.47,1074.77,231,-171,67
  1512178335,0.0005,0.0027,0.1129,474.73,-342.10,1077.15,228,-181,74
  1512178335,0.0141,0.0001,0.1137,469.12,-348.75,1138.98,228,-181,74
  1512178335,0.0462,-0.0016,0.1157,458.50,-323.36,1185.36,228,-181,74
  1512178335,0.0643,-0.0045,0.1168,482.54,-295.59,1119.87,228,-181,74
  1512178335,0.0354,0.0004,0.1158,411.13,-351.68,1093.99,228,-181,74
  1512178335,0.0277,-0.0033,0.1153,444.34,-350.71,1105.41,249,-163,81
  1512178335,0.0735,-0.0037,0.1166,454.41,-326.11,1128.66,249,-163,81
  1512178335,0.0888,-0.0059,0.1168,460.88,-348.51,1116.88,249,-163,81
  1512178335,0.0079,0.0138,0.1180,510.99,-352.23,1001.83,249,-163,81
  1512178335,0.0368,0.0103,0.1217,484.07,-352.91,1091.55,249,-163,81
  1512178335,0.0549,0.0019,0.1229,514.04,-361.15,1128.48,240,-165,62
  1512178335,0.0619,-0.0039,0.1202,494.81,-343.63,1102.36,240,-165,62
  1512178335,0.0774,0.0037,0.1181,454.90,-367.61,1096.31,240,-165,62
  1512178335,0.0262,0.0176,0.1192,487.37,-381.23,1049.62,240,-165,62
  1512178335,0.0513,0.0214,0.1201,465.09,-359.31,1126.16,254,-183,62
  1512178335,0.0746,0.0180,0.1181,499.33,-350.83,1125.06,254,-183,62
  1512178335,0.0896,0.0350,0.1149,496.58,-367.61,1139.22,254,-183,62
  1512178335,0.0546,0.0455,0.1188,493.35,-371.83,1076.66,254,-183,62
  1512178335,0.0345,0.0450,0.1204,499.82,-380.68,1084.90,254,-183,62
  1512178335,0.0597,0.0489,0.1254,513.12,-327.76,1113.34,226,-172,79
  1512178335,0.0597,0.0461,0.1234,487.12,-393.07,1161.44,226,-172,79
  1512178335,0.0202,0.0529,0.1308,500.92,-381.41,1069.58,226,-172,79
  1512178335,0.0276,0.0614,0.1320,472.66,-379.39,1070.68,226,-172,79
  1512178335,0.0614,0.0507,0.1301,484.86,-361.45,1114.44,226,-172,79
  1512178335,0.0828,0.0511,0.1294,482.36,-336.36,1083.56,231,-156,84
  1512178335,0.0635,0.0509,0.1277,459.35,-377.99,1112.61,231,-156,84
  1512178335,0.0711,0.0443,0.1265,471.50,-329.71,1066.65,231,-156,84
  1512178336,0.1059,0.0405,0.1278,452.51,-335.88,1149.29,231,-156,84
  1512178336,0.0695,0.0338,0.1237,480.16,-350.65,1128.66,242,-160,91
  1512178336,0.0614,0.0372,0.1280,478.21,-326.90,1054.44,242,-160,91
  1512178336,0.0353,0.0369,0.1224,482.85,-379.27,1093.26,242,-160,91
  1512178336,0.0294,0.0346,0.1213,473.75,-354.92,1076.35,242,-160,91
  1512178336,0.0475,0.0290,0.1244,492.00,-304.99,1103.94,242,-160,91
  1512178336,0.0607,0.0276,0.1181,455.99,-368.10,1149.17,254,-162,76
  1512178336,0.0321,0.0434,0.1204,461.43,-387.51,1024.29,254,-162,76
  1512178336,0.0643,0.0619,0.1242,498.78,-347.35,1036.19,254,-162,76
  1512178336,0.1036,0.0679,0.1258,458.25,-355.96,1128.85,254,-162,76
  1512178336,0.0965,0.0680,0.1305,514.40,-395.87,1070.43,254,-162,76
  1512178336,0.0790,0.0273,0.1369,456.54,-366.52,1040.77,247,-144,79
  1512178336,-0.0069,0.0065,0.1377,416.02,-331.91,993.90,247,-144,79
  1512178336,-0.0186,0.0217,0.1450,446.23,-316.41,1090.39,247,-144,79
  1512178336,0.0205,0.0160,0.1353,434.27,-322.45,1137.02,247,-144,79
  1512178336,0.0407,0.0149,0.1309,467.71,-350.77,1154.54,240,-148,79
  1512178336,0.0153,0.0025,0.1296,466.86,-400.02,1041.87,240,-148,79
  1512178336,0.0206,-0.0113,0.1249,476.62,-393.80,1080.81,240,-148,79
  1512178336,0.0368,-0.0253,0.1338,500.73,-361.39,1119.75,240,-148,79
  1512178336,0.0209,-0.0302,0.1297,497.92,-368.96,1106.20,240,-148,79
  1512178336,0.0277,-0.0324,0.1353,468.51,-376.95,1149.17,253,-146,77
  1512178336,-0.0314,-0.0249,0.1415,501.16,-356.63,1042.66,253,-146,77
  1512178336,-0.0158,-0.0208,0.1494,462.52,-378.66,1082.09,253,-146,77
  1512178336,-0.0039,-0.0296,0.1477,474.18,-378.78,1078.37,253,-146,77
  1512178336,-0.0229,-0.0278,0.1438,515.62,-385.01,1124.08,256,-160,88
  1512178336,-0.0557,-0.0288,0.1386,522.77,-411.19,1103.52,256,-160,88
  1512178336,-0.0774,-0.0228,0.1441,508.36,-417.91,1088.62,256,-160,88
  1512178336,-0.0863,-0.0081,0.1654,500.00,-417.05,1069.40,256,-160,88
  1512178336,-0.0349,-0.0172,0.1939,494.45,-400.27,1084.05,256,-160,88
  1512178336,-0.0214,-0.0194,0.1718,498.54,-397.09,1065.73,258,-151,89
  1512178336,-0.0089,-0.0063,0.1676,508.61,-398.50,1050.05,258,-151,89
  1512178336,-0.0076,-0.0103,0.1527,504.58,-440.12,1139.89,258,-151,89
  1512178336,0.0257,-0.0144,0.1714,495.97,-414.25,1104.61,258,-151,89
  1512178336,0.0265,-0.0121,0.1646,505.74,-413.51,1142.70,258,-151,89
  1512178336,0.0266,0.0033,0.1463,497.68,-394.78,1138.92,270,-135,57
  1512178336,0.0852,0.0044,0.1590,511.96,-402.04,1154.85,270,-135,57
  1512178336,0.0863,0.0107,0.1451,482.24,-397.03,1157.23,270,-135,57
  1512178337,0.0687,0.0198,0.1539,503.36,-394.29,1094.12,270,-135,57
  1512178337,0.1031,0.0333,0.1458,503.85,-378.97,1125.92,267,-149,84
  1512178337,0.1075,0.0352,0.1714,542.24,-398.99,1146.67,267,-149,84
  1512178337,0.1008,0.0593,0.1840,529.79,-361.69,1107.30,267,-149,84
  1512178337,0.1253,0.0947,0.1959,528.63,-398.01,1176.76,267,-149,84
  1512178337,0.1023,0.1131,0.1852,496.95,-394.96,1122.31,267,-149,84
  1512178337,-0.0482,0.1088,0.2386,471.07,-398.32,1095.15,303,-123,66
  1512178337,-0.0189,0.0803,0.2968,441.77,-406.98,963.93,303,-123,66
  1512178337,0.0115,0.0451,0.2999,448.79,-372.31,1011.05,303,-123,66
  1512178337,0.1431,0.0128,0.2583,423.52,-343.38,1041.93,303,-123,66
  1512178337,0.1641,-0.0039,0.2182,439.51,-332.15,1089.42,295,-107,54
  1512178337,0.0170,0.0109,0.1816,447.20,-387.02,1046.20,295,-107,54
  1512178337,-0.0350,-0.0136,0.2197,437.38,-363.71,1103.70,295,-107,54
  1512178337,-0.0178,-0.0386,0.2312,466.37,-411.56,1103.15,295,-107,54
  1512178337,0.0929,-0.0450,0.2910,437.68,-388.06,1061.95,295,-107,54
  1512178337,-0.0186,-0.0044,0.3788,434.94,-398.13,1063.11,316,-96,37
  1512178337,-0.1104,0.0172,0.5048,427.73,-398.80,989.14,316,-96,37
  1512178337,-0.1302,0.0101,0.5735,426.21,-399.35,1099.24,316,-96,37
  1512178337,0.3527,-0.0629,0.6302,485.72,-396.30,1237.43,316,-96,37
  1512178337,0.0427,-0.0019,0.5485,491.76,-413.88,1191.35,316,-96,37
  1512178337,-0.1659,0.0633,0.5040,500.00,-409.24,1107.54,358,40,-101
  1512178337,-0.4451,0.1963,0.4981,457.15,-418.82,955.26,358,40,-101
  1512178337,0.4051,-0.0666,0.5161,385.80,-362.55,608.64,358,40,-101
  1512178337,1.5474,1.5582,0.8631,735.17,-626.95,1046.88,358,40,-101
  1512178337,1.0943,1.0643,1.1185,561.95,-665.16,1826.78,337,37,-639
  1512178337,-0.3577,-0.0832,0.7462,344.60,-331.67,396.06,337,37,-639
  1512178337,0.5647,-0.2202,0.4876,467.71,-314.51,1779.79,337,37,-639
  1512178337,-0.0864,-0.5690,0.2063,305.30,-379.58,988.59,337,37,-639
  1512178337,-0.0627,-0.4802,0.1278,466.25,-423.89,987.00,337,37,-639
  1512178337,0.4087,0.5892,0.1901,399.05,-312.50,1191.10,333,47,-605
  1512178337,0.1659,-0.0080,0.1334,416.93,-359.68,1009.83,333,47,-605
  1512178337,-0.1574,-0.3633,0.1539,430.66,-438.90,1187.68,333,47,-605
  1512178337,0.0051,-0.0209,0.1637,468.99,-471.62,996.95,333,47,-605
  1512178337,0.0469,0.2063,0.1586,476.50,-440.80,1130.19,333,47,-605
  1512178337,-0.0895,-0.0304,0.1434,452.94,-453.55,1049.87,356,38,-577
  1512178337,-0.0755,-0.0919,0.1490,488.16,-419.74,1072.33,356,38,-577
  1512178337,-0.0613,0.1362,0.1565,475.04,-440.31,1086.67,356,38,-577
  1512178337,-0.0405,0.0172,0.1678,451.72,-457.46,1103.76,356,38,-577
  1512178338,-0.0241,-0.0425,0.1931,505.31,-401.25,1103.21,360,45,-590
  1512178338,0.0309,0.0526,0.1655,478.88,-470.64,1124.27,360,45,-590
  1512178338,0.0599,0.0334,0.1659,488.28,-418.70,1143.13,360,45,-590
  1512178338,0.0332,-0.0121,0.1610,509.40,-423.34,1155.76,360,45,-590
  1512178338,0.0819,0.0236,0.1667,461.73,-410.89,1076.29,360,45,-590
  1512178338,0.0985,0.0498,0.1601,446.84,-418.40,1093.32,353,56,-573
  1512178338,0.1181,-0.0248,0.1550,518.31,-386.96,1133.24,353,56,-573
  1512178338,0.0963,0.0168,0.1614,505.31,-443.60,1125.79,353,56,-573
  1512178338,0.2072,0.0965,0.1426,503.42,-391.42,1265.14,353,56,-573
  1512178338,0.1272,0.0190,0.1450,487.30,-414.31,1068.42,339,45,-567
  1512178338,0.0835,-0.0035,0.1623,471.44,-388.31,1068.36,339,45,-567
  1512178338,0.0581,0.0803,0.1666,446.66,-383.36,1065.25,339,45,-567
  1512178338,0.0642,0.0336,0.1728,440.31,-341.55,1021.73,339,45,-567
  1512178338,0.0670,0.0272,0.1692,444.15,-357.54,1080.57,339,45,-567
  1512178338,-0.0168,0.0736,0.1747,405.64,-401.37,1074.40,361,61,-575
  1512178338,-0.0266,0.0427,0.1711,468.99,-362.85,1054.26,361,61,-575
  1512178338,0.0109,0.0338,0.1756,452.03,-420.23,1082.76,361,61,-575
  1512178338,-0.0228,0.0449,0.1676,458.19,-414.25,1065.43,361,61,-575
  1512178338,0.0216,0.0430,0.1634,444.09,-393.49,1143.19,361,61,-575
  1512178338,0.0438,0.0019,0.1633,392.03,-420.78,1078.61,363,49,-580
  1512178338,0.1349,0.0296,0.1613,463.32,-382.26,1120.79,363,49,-580
  1512178338,0.2342,0.0115,0.1667,453.80,-385.74,1145.02,363,49,-580
  1512178338,0.2025,-0.0064,0.1716,464.17,-380.98,1102.78,363,49,-580
  1512178338,0.1529,0.0210,0.1743,526.18,-365.54,1154.17,358,61,-595
  1512178338,0.1908,0.0241,0.1732,489.62,-389.22,1157.41,358,61,-595
  1512178338,0.1794,0.0100,0.1751,516.05,-364.69,1134.28,358,61,-595
  1512178338,0.0454,0.0514,0.1730,471.31,-374.82,1120.79,358,61,-595
  1512178338,-0.0093,0.0434,0.1706,437.87,-392.82,1095.15,358,61,-595
  1512178338,-0.0004,0.0554,0.1654,514.10,-399.17,1100.59,361,65,-595
  1512178338,0.0521,0.0551,0.1586,479.98,-421.45,1134.22,361,65,-595
  1512178338,-0.0217,0.0687,0.1631,462.77,-391.24,1090.45,361,65,-595
  1512178338,0.0325,0.0630,0.1641,464.66,-378.48,1130.80,361,65,-595
  1512178338,0.0349,0.0473,0.1594,422.97,-367.00,1083.44,361,65,-595
  1512178338,-0.0212,0.0266,0.1595,439.09,-397.09,1094.12,360,74,-577
  1512178338,0.0113,0.0469,0.1627,457.52,-376.10,1075.20,360,74,-577
  1512178338,0.1276,0.0063,0.1553,480.16,-411.25,1109.68,360,74,-577
  1512178338,0.0332,0.0640,0.1734,473.63,-346.37,1150.02,360,74,-577
  1512178338,-0.0011,0.0329,0.1666,432.80,-403.81,1178.16,365,68,-592
  1512178339,0.0395,-0.0501,0.1700,480.04,-389.65,1087.16,365,68,-592
  1512178339,-0.0047,-0.0037,0.1778,443.97,-437.87,1029.54,365,68,-592
  1512178339,-0.0346,-0.0128,0.1664,500.92,-457.34,1034.36,365,68,-592
  1512178339,-0.0543,-0.0015,0.1812,490.97,-458.98,987.18,365,68,-592
  1512178339,0.0081,0.0435,0.1651,483.22,-466.92,1113.34,351,75,-575
  1512178339,0.0193,0.0085,0.1585,491.58,-435.00,1060.30,351,75,-575
  1512178339,-0.0418,0.0241,0.1866,448.00,-496.15,1040.71,351,75,-575
  1512178339,0.0044,0.0719,0.1534,479.98,-450.93,1043.33,351,75,-575
  1512178339,0.0372,0.0246,0.1734,446.29,-450.20,1112.85,351,75,-575
  1512178339,-0.0056,0.0481,0.1626,452.51,-428.28,1058.47,365,75,-578
  1512178339,0.0739,0.0639,0.1621,465.64,-434.39,1138.61,365,75,-578
  1512178339,0.0690,0.0491,0.1566,474.91,-458.62,1076.60,365,75,-578
  1512178339,0.0318,0.0417,0.1563,484.86,-430.97,1102.91,365,75,-578
  1512178339,0.0916,0.0521,0.1594,460.75,-424.80,1116.58,361,89,-582
  1512178339,0.0418,0.0294,0.1490,423.52,-430.97,1048.40,361,89,-582
  1512178339,0.0346,0.0631,0.1479,471.37,-417.91,1116.46,361,89,-582
  1512178339,0.0402,0.0756,0.1450,427.67,-438.29,1071.84,361,89,-582
  1512178339,-0.0092,0.0467,0.1493,453.80,-449.77,1088.20,361,89,-582
  1512178339,-0.0454,0.0650,0.1586,407.41,-438.11,1105.29,358,93,-599
  1512178339,-0.0132,0.0427,0.1526,454.16,-444.58,1093.81,358,93,-599
  1512178339,0.0240,0.0682,0.1537,427.25,-441.65,1099.79,358,93,-599
  1512178339,-0.0409,0.0694,0.1470,412.90,-478.76,1038.15,358,93,-599
  1512178339,0.0076,0.0573,0.1502,457.40,-416.99,1106.87,358,93,-599
  1512178339,0.0880,0.0734,0.1571,436.34,-439.27,1143.37,356,84,-590
  1512178339,0.0406,0.0706,0.1465,439.88,-426.88,1062.07,356,84,-590
  1512178339,0.0648,0.0521,0.1546,443.12,-424.74,1138.67,356,84,-590
  1512178339,0.0802,0.0763,0.1442,422.55,-413.82,1114.32,356,84,-590
  1512178339,0.0726,0.0792,0.1449,443.48,-436.77,1090.94,361,89,-592
  1512178339,0.0117,0.0719,0.1494,404.91,-440.25,1066.04,361,89,-592
  1512178339,0.0298,0.0680,0.1358,391.24,-427.86,1070.37,361,89,-592
  1512178339,0.0979,0.0517,0.1437,398.56,-406.92,1116.27,361,89,-592
  1512178339,0.0274,0.0664,0.1455,409.48,-413.94,1081.85,361,89,-592
  1512178339,0.0383,0.0498,0.1438,410.22,-382.93,1130.49,349,105,-573
  1512178339,0.0887,0.0378,0.1417,401.98,-412.60,1165.22,349,105,-573
  1512178339,0.0266,0.0497,0.1388,405.33,-427.55,1092.77,349,105,-573
  1512178339,0.0446,0.0387,0.1421,430.11,-430.11,1138.12,349,105,-573
  1512178339,0.0644,0.0166,0.1426,432.13,-438.42,1079.71,349,105,-573
  1512178339,0.0529,0.0676,0.1423,458.74,-457.28,1099.18,344,100,-575
  1512178340,0.0874,0.0551,0.1395,420.04,-462.10,1129.21,344,100,-575
  1512178340,0.0256,0.0329,0.1393,392.03,-429.38,1038.64,344,100,-575
  1512178340,0.0631,0.0505,0.1450,389.47,-414.18,1094.18,344,100,-575
  1512178340,0.0751,0.0525,0.1369,414.92,-411.99,1103.58,356,112,-567
  1512178340,0.0393,0.0667,0.1413,415.22,-424.07,1074.77,356,112,-567
  1512178340,0.0811,0.0519,0.1366,397.40,-419.07,1137.33,356,112,-567
  1512178340,0.0350,0.0294,0.1377,422.30,-433.65,1096.25,356,112,-567
  1512178340,0.0522,0.0511,0.1330,399.35,-412.96,1120.67,356,112,-567
  1512178340,0.0193,0.0312,0.1270,407.04,-400.02,1041.50,351,107,-568
  1512178340,0.0430,0.0244,0.1254,395.14,-421.39,1082.64,351,107,-568
  1512178340,0.0124,0.0313,0.1244,384.46,-387.02,1130.00,351,107,-568
  1512178340,0.0668,0.0274,0.1244,394.53,-397.58,1139.04,351,107,-568
  1512178340,0.0296,0.0313,0.1245,407.04,-416.75,1077.27,351,107,-568
  1512178340,-0.0265,0.0547,0.1204,414.25,-421.02,1137.63,351,125,-572
  1512178340,0.0346,0.0326,0.1213,404.24,-419.74,1114.01,351,125,-572
  1512178340,0.0302,0.0373,0.1197,396.36,-410.58,1078.19,351,125,-572
  1512178340,0.0314,0.0675,0.1158,422.85,-428.77,1085.33,351,125,-572
  1512178340,0.0736,0.0325,0.1136,405.76,-415.65,1132.26,376,128,-582
  1512178340,0.0668,0.0585,0.1178,395.45,-406.19,1198.00,376,128,-582
  1512178340,0.0521,0.0872,0.1103,373.60,-417.97,1070.13,376,128,-582
  1512178340,-0.0322,0.0154,0.0996,398.74,-431.46,1025.82,376,128,-582
  1512178340,0.1060,0.0550,0.1023,381.47,-427.37,1112.30,376,128,-582
  1512178340,0.0758,0.1236,0.0920,391.42,-434.57,1047.24,372,125,-578
  1512178340,0.0206,0.0192,0.0955,361.51,-400.33,1137.88,372,125,-578
  1512178340,0.0599,0.0308,0.0915,385.93,-362.43,1082.28,372,125,-578
  1512178340,0.1233,0.0983,0.0880,387.08,-381.53,1168.40,372,125,-578
  1512178340,0.0101,0.0734,0.0889,370.00,-414.86,1057.92,361,125,-561
  1512178340,0.0354,0.0700,0.0899,367.19,-383.42,1086.55,361,125,-561
  1512178340,0.0939,0.0089,0.0835,374.21,-335.88,1127.26,361,125,-561
  1512178340,0.0993,0.0567,0.0832,353.88,-340.76,1131.65,361,125,-561
  1512178340,0.1100,0.0483,0.0728,369.08,-389.77,1083.80,361,125,-561
  1512178340,0.0288,0.0127,0.0738,420.23,-411.38,1192.08,372,135,-589
  1512178340,0.0622,0.0349,0.0723,369.69,-429.20,1082.52,372,135,-589
  1512178340,0.0901,0.0530,0.0692,396.18,-415.34,1137.08,372,135,-589
  1512178340,0.0915,0.0646,0.0700,407.04,-399.17,1085.45,372,135,-589
  1512178340,0.1270,0.0635,0.0618,385.07,-394.53,1153.32,372,135,-589
  1512178340,0.0824,0.0462,0.0654,354.25,-409.48,1056.03,365,149,-572
  1512178341,0.0767,0.0780,0.0690,395.57,-385.25,1121.09,365,149,-572
  1512178341,0.1220,0.0609,0.0683,411.19,-342.16,1158.81,365,149,-572
  1512178341,0.0874,0.0787,0.0619,388.12,-416.26,1058.72,365,149,-572
  1512178341,0.0932,0.0843,0.0619,394.41,-388.43,1111.33,361,135,-582
  1512178341,0.1059,0.0546,0.0567,382.87,-390.08,1113.46,361,135,-582
  1512178341,0.1245,0.0644,0.0490,351.44,-366.82,1099.85,361,135,-582
  1512178341,0.0562,0.0595,0.0409,376.59,-386.84,1074.58,361,135,-582
  1512178341,0.0547,0.0650,0.0510,364.50,-365.23,1162.84,361,135,-582
  1512178341,0.0655,0.0565,0.0450,335.69,-390.38,1048.34,368,142,-578
  1512178341,0.1459,0.0246,0.0427,352.78,-344.54,1053.22,368,142,-578
  1512178341,0.0734,0.0648,0.0623,443.36,-432.13,1251.59,368,142,-578
  1512178341,-0.0458,0.0659,0.0370,322.75,-391.72,934.45,368,142,-578
  1512178341,0.1394,-0.0806,0.0562,330.14,-396.97,1093.99,368,142,-578
  1512178341,0.0009,0.1509,0.0439,375.31,-373.17,1252.38,361,139,-599
  1512178341,-0.0563,0.0225,-0.0205,345.70,-469.48,898.32,361,139,-599
  1512178341,-0.1324,0.0300,0.0959,352.48,-381.71,1228.03,361,139,-599
  1512178341,-0.0977,0.0531,0.0156,385.31,-399.48,926.82,361,139,-599
  1512178341,0.0172,0.0342,0.0475,371.46,-411.25,1109.92,356,119,-594
  1512178341,-0.0079,0.1193,0.0325,398.74,-387.57,1052.12,356,119,-594
  1512178341,0.0554,0.0218,-0.0064,392.15,-383.36,1210.69,356,119,-594
  1512178341,-0.0027,0.0125,0.0459,353.09,-431.21,1070.68,356,119,-594
  1512178341,0.0728,0.0860,0.0244,411.38,-389.83,1125.55,356,119,-594
  1512178341,0.0796,0.0123,0.0265,381.84,-381.23,977.29,358,135,-592
  1512178341,0.0463,0.0172,0.0276,385.86,-392.27,1109.62,358,135,-592
  1512178341,0.0707,0.0374,0.0208,334.59,-394.10,1108.34,358,135,-592
  1512178341,0.0043,0.0971,0.0241,378.91,-374.51,1093.63,358,135,-592
  1512178341,0.0316,-0.0198,0.0087,325.44,-374.51,1107.06,358,135,-592
  1512178341,0.0435,0.0136,0.0360,345.40,-382.26,1083.01,365,146,-602
  1512178341,0.1033,0.0462,0.0136,356.99,-370.91,1151.00,365,146,-602
  1512178341,0.0041,-0.0282,0.0154,362.98,-405.21,1031.07,365,146,-602
  1512178341,0.0589,0.0421,0.0157,356.14,-375.00,1075.68,365,146,-602
  1512178341,0.0481,0.0383,0.0079,391.97,-438.05,1099.91,353,130,-594
  1512178341,0.0221,-0.0084,0.0138,387.94,-423.52,1089.48,353,130,-594
  1512178341,0.0403,0.0366,0.0145,371.28,-404.42,1151.37,353,130,-594
  1512178341,0.0113,0.0441,0.0096,364.14,-385.01,1044.86,353,130,-594
  1512178341,0.0467,0.0145,0.0145,297.00,-391.11,1104.86,353,130,-594
  1512178341,0.0222,0.0344,0.0056,334.11,-383.85,1030.21,351,132,-592
  1512178341,0.0348,0.0372,0.0099,377.08,-377.99,1088.38,351,132,-592
  1512178342,-0.0146,0.0413,0.0032,353.76,-416.50,1081.60,351,132,-592
  1512178342,-0.0631,0.0314,0.0057,359.19,-371.70,1001.46,351,132,-592
  1512178342,0.0509,0.0708,0.0019,389.77,-395.08,988.34,356,130,-587
  1512178342,0.0526,0.0449,0.0120,331.48,-409.06,1145.75,356,130,-587
  1512178342,0.0015,0.0924,0.0048,372.99,-363.71,1153.81,356,130,-587
  1512178342,0.0839,-0.0763,-0.0124,314.82,-373.35,1020.75,356,130,-587
  1512178342,0.0474,0.1127,0.0005,354.86,-332.95,1161.62,356,130,-587
  1512178342,0.0557,0.0373,-0.0240,294.49,-338.81,988.59,358,128,-585
  1512178342,0.0730,-0.0479,0.0091,335.08,-371.15,1117.55,358,128,-585
  1512178342,0.0507,0.0407,-0.0044,376.46,-387.88,1006.35,358,128,-585
  1512178342,0.0150,0.0421,-0.0103,350.22,-392.70,1109.01,358,128,-585
  1512178342,0.0663,-0.0527,-0.0041,325.44,-362.98,1056.70,358,128,-585
  1512178342,0.1164,0.0301,-0.0092,361.02,-321.04,1122.01,361,135,-599
  1512178342,0.1084,0.0137,-0.0088,328.31,-374.45,1098.33,361,135,-599
  1512178342,0.0554,-0.0041,-0.0165,342.29,-367.31,1044.68,361,135,-599
  1512178342,0.1630,0.0093,-0.0129,355.04,-343.87,1144.10,361,135,-599
  1512178342,0.1599,0.0260,-0.0158,314.94,-362.18,1086.85,354,128,-589
  1512178342,0.0900,0.0173,-0.0154,342.83,-346.19,1100.95,354,128,-589
  1512178342,0.1308,0.0075,-0.0170,359.44,-346.13,1114.87,354,128,-589
  1512178342,0.1306,0.0242,-0.0204,339.29,-351.20,1071.96,354,128,-589
  1512178342,0.1057,-0.0184,-0.0152,356.02,-314.09,1142.58,354,128,-589
  1512178342,0.1814,-0.0045,-0.0160,320.98,-310.36,1128.11,372,142,-589
  1512178342,0.1647,0.0142,-0.0170,369.75,-357.97,1085.39,372,142,-589
  1512178342,0.1067,0.0119,-0.0196,343.99,-369.20,1089.48,372,142,-589
  1512178342,0.0746,0.0048,-0.0232,367.37,-374.08,1133.12,372,142,-589
  1512178342,0.0459,0.0330,-0.0237,332.03,-344.60,1078.74,351,135,-592
  1512178342,0.0036,-0.0117,-0.0233,327.64,-358.64,1080.14,351,135,-592
  1512178342,0.0513,0.0095,-0.0237,347.23,-338.01,1107.91,351,135,-592
  1512178342,0.0671,0.0007,-0.0262,353.27,-361.88,1104.98,351,135,-592
  1512178342,0.0495,-0.0372,-0.0249,343.51,-374.63,1074.22,351,135,-592
  1512178342,-0.0057,0.0325,-0.0306,349.98,-389.83,1088.20,361,135,-585
  1512178342,0.0244,0.0103,-0.0313,350.89,-373.41,1099.98,361,135,-585
  1512178342,-0.0130,-0.0068,-0.0353,346.19,-378.17,1044.68,361,135,-585
  1512178342,0.0338,0.0119,-0.0397,366.39,-348.27,1098.88,361,135,-585
  1512178342,0.0459,0.0019,-0.0346,341.98,-349.98,1124.69,361,135,-585
  1512178342,0.0334,0.0111,-0.0357,340.45,-373.66,1084.84,358,125,-592
  1512178342,0.0531,0.0015,-0.0369,346.62,-362.67,1088.68,358,125,-592
  1512178342,0.0000,0.0107,-0.0364,363.71,-345.40,1030.09,358,125,-592
  1512178343,0.0362,0.0088,-0.0364,357.12,-335.69,1085.02,358,125,-592
  1512178343,0.0381,0.0261,-0.0431,310.61,-324.52,1087.46,342,109,-587
  1512178343,0.0562,0.0164,-0.0439,330.63,-334.29,1151.86,342,109,-587
  1512178343,0.0425,0.0028,-0.0421,343.02,-351.32,1116.52,342,109,-587
  1512178343,0.0487,0.0061,-0.0475,332.46,-333.62,1058.53,342,109,-587
  1512178343,0.0401,-0.0169,-0.0442,347.90,-348.45,1056.34,342,109,-587
  1512178343,0.0780,0.0345,-0.0503,372.74,-322.57,1128.05,365,121,-592
  1512178343,0.1449,0.0000,-0.0537,362.73,-324.04,1126.40,365,121,-592
  1512178343,0.0618,-0.0085,-0.0569,350.65,-363.53,1059.63,365,121,-592
  1512178343,0.0574,0.0414,-0.0593,373.29,-350.16,1105.77,365,121,-592
  1512178343,0.0333,0.0152,-0.0630,373.05,-370.67,1041.26,365,121,-592
  1512178343,0.0246,0.0154,-0.0587,352.05,-323.12,1084.35,360,119,-597
  1512178343,-0.0338,0.0322,-0.0647,333.56,-370.30,1005.49,360,119,-597
  1512178343,-0.0185,0.0292,-0.0609,359.19,-350.04,1123.78,360,119,-597
  1512178343,-0.0638,0.0326,-0.0716,333.37,-361.69,1051.51,360,119,-597
  1512178343,0.0241,0.0085,-0.0712,366.64,-329.53,1063.60,356,109,-583
  1512178343,0.0565,0.0257,-0.0763,324.16,-329.41,1081.05,356,109,-583
  1512178343,0.1003,0.0145,-0.0812,294.86,-319.70,1131.53,356,109,-583
  1512178343,0.1354,-0.0111,-0.0850,319.58,-275.02,1090.94,356,109,-583
  1512178343,0.2272,-0.0061,-0.0828,327.88,-278.44,1134.40,356,109,-583
  1512178343,0.0897,0.0021,-0.0956,360.66,-317.87,1107.67,363,102,-583
  1512178343,0.1127,-0.0208,-0.0917,353.03,-289.06,1108.52,363,102,-583
  1512178343,0.1137,-0.0064,-0.0960,378.36,-307.80,1078.92,363,102,-583
  1512178343,-0.0457,0.0213,-0.0872,343.81,-291.93,1096.86,363,102,-583
  1512178343,-0.0145,0.0069,-0.0916,381.96,-343.02,1093.57,363,102,-583
  1512178343,-0.0152,0.0210,-0.0872,319.21,-334.11,1076.11,367,98,-573
  1512178343,0.0225,0.0117,-0.0983,345.15,-332.76,1060.79,367,98,-573
  1512178343,0.0378,-0.0154,-0.0964,339.11,-328.98,1078.49,367,98,-573
  1512178343,-0.0638,0.0226,-0.0933,313.35,-340.39,1086.43,367,98,-573
  1512178343,0.0758,0.0101,-0.1035,326.48,-319.21,1086.49,368,107,-572
  1512178343,0.0656,-0.0021,-0.1083,332.09,-325.44,1081.05,368,107,-572
  1512178343,-0.0053,-0.0232,-0.1096,319.34,-344.48,1029.79,368,107,-572
  1512178343,0.0036,0.0101,-0.1152,325.68,-303.16,1038.64,368,107,-572
  1512178343,-0.0252,0.0156,-0.1216,319.09,-339.84,1133.54,368,107,-572
  1512178343,-0.0517,0.0064,-0.1292,315.12,-299.44,1135.80,342,116,-567
  1512178343,0.0063,0.0258,-0.1346,359.99,-315.80,1149.41,342,116,-567
  1512178343,0.0157,0.0166,-0.1326,335.39,-295.72,1105.47,342,116,-567
  1512178344,0.0182,0.0313,-0.1357,373.17,-358.70,1094.48,342,116,-567
  1512178344,0.0485,0.0473,-0.1356,365.23,-318.85,1088.26,368,89,-545
  1512178344,0.0198,0.0419,-0.1378,330.26,-317.50,1094.67,368,89,-545
  1512178344,0.0013,0.0208,-0.1393,371.77,-332.28,1080.02,368,89,-545
  1512178344,-0.0057,0.0389,-0.1433,359.80,-344.42,1065.43,368,89,-545
  1512178344,-0.0405,0.0547,-0.1419,350.28,-319.34,1081.85,368,89,-545
  1512178344,-0.1131,0.0144,-0.1443,346.68,-329.77,1035.34,360,98,-539
  1512178344,-0.1063,0.0413,-0.1431,303.96,-314.51,1073.18,360,98,-539
  1512178344,-0.0899,0.0286,-0.1473,304.75,-272.83,1074.22,360,98,-539
  1512178344,-0.0722,0.0027,-0.1549,295.84,-279.05,1084.59,360,98,-539
  1512178344,-0.0605,0.0221,-0.1542,302.37,-272.46,1044.07,360,98,-539
  1512178344,-0.0246,0.0429,-0.1555,363.10,-287.54,1068.85,370,123,-546
  1512178344,0.0077,0.0109,-0.1570,320.86,-322.02,1039.49,370,123,-546
  1512178344,0.0791,0.0381,-0.1691,342.29,-328.80,1081.24,370,123,-546
  1512178344,0.0429,0.0470,-0.1670,320.43,-296.02,1081.91,370,123,-546
  1512178344,-0.0073,0.0282,-0.1714,337.10,-335.51,1061.46,370,119,-553
  1512178344,0.0746,0.0157,-0.1639,304.93,-287.78,1103.82,370,119,-553
  1512178344,0.0647,0.0431,-0.1687,330.63,-308.72,1072.08,370,119,-553
  1512178344,0.0169,-0.0063,-0.1698,325.74,-345.83,1031.31,370,119,-553
  1512178344,0.1095,0.0197,-0.1700,357.79,-299.68,1118.35,370,119,-553
  1512178344,0.0654,0.0370,-0.1663,292.18,-256.90,1042.91,377,98,-570
  1512178344,0.0264,-0.0357,-0.1582,284.61,-254.88,1124.33,377,98,-570
  1512178344,0.0790,0.0061,-0.1680,340.39,-278.38,1134.40,377,98,-570
  1512178344,0.1421,-0.0011,-0.1716,363.28,-338.99,1101.26,377,98,-570
  1512178344,-0.0072,0.0297,-0.1654,365.17,-386.35,1130.37,377,98,-570
  1512178344,-0.0538,0.0107,-0.1786,342.96,-343.75,1104.98,367,105,-570
  1512178344,-0.0980,0.0047,-0.1800,358.58,-343.38,1078.31,367,105,-570
  1512178344,-0.0880,0.0360,-0.1811,328.98,-320.25,1041.87,367,105,-570
  1512178344,-0.0285,0.0133,-0.1859,344.85,-330.51,1036.74,367,105,-570
  1512178344,-0.0827,0.0321,-0.1798,342.59,-328.12,1038.45,367,98,-567
  1512178344,-0.1025,0.0439,-0.1832,333.50,-298.40,1034.55,367,98,-567
  1512178344,-0.1028,0.0366,-0.1822,302.61,-232.67,1094.24,367,98,-567
  1512178344,-0.0265,0.0080,-0.1863,292.91,-275.09,1057.43,367,98,-567
  1512178344,-0.0551,0.0065,-0.1850,306.09,-289.73,1085.51,367,98,-567
  1512178344,-0.0554,0.0695,-0.1779,333.56,-283.39,1088.56,372,96,-572
  1512178344,-0.0394,0.0003,-0.1804,335.45,-282.90,1104.31,372,96,-572
  1512178344,0.0256,-0.0044,-0.1823,407.29,-284.00,1055.91,372,96,-572
  1512178344,0.1139,0.0284,-0.1931,359.07,-280.03,1098.51,372,96,-572
  1512178345,0.0911,0.0093,-0.1919,388.61,-270.14,1083.86,372,96,-572
  1512178345,0.0609,0.0190,-0.1927,383.12,-295.23,1111.15,358,86,-578
  1512178345,0.0426,0.0112,-0.1850,391.54,-282.65,1043.15,358,86,-578
  1512178345,0.0675,0.0336,-0.1839,418.70,-310.85,1093.44,358,86,-578
  1512178345,0.0366,0.0553,-0.1855,398.38,-311.22,1107.97,358,86,-578
  1512178345,-0.0057,-0.0108,-0.1819,353.82,-312.87,1029.79,381,70,-563
  1512178345,-0.0378,0.0224,-0.1832,386.96,-297.30,1071.23,381,70,-563
  1512178345,-0.0868,0.0249,-0.1838,338.32,-304.93,1078.31,381,70,-563
  1512178345,0.0116,0.0443,-0.1864,385.74,-305.11,1084.53,381,70,-563
  1512178345,-0.0678,0.0340,-0.1879,328.06,-359.07,1068.73,381,70,-563
  1512178345,-0.0806,0.0280,-0.1851,388.12,-301.94,1130.19,356,70,-587
  1512178345,0.0170,0.0461,-0.1919,377.87,-277.34,1120.30,356,70,-587
  1512178345,0.0326,0.0418,-0.1912,318.79,-252.93,1086.79,356,70,-587
  1512178345,0.0688,0.0383,-0.1898,375.37,-240.30,1190.49,356,70,-587
  1512178345,0.0278,0.0506,-0.1971,403.56,-280.70,1103.88,356,70,-587
  1512178345,-0.0294,0.0409,-0.1949,332.70,-281.37,1079.65,339,74,-573
  1512178345,0.0292,0.0403,-0.1953,351.62,-244.81,1088.75,339,74,-573
  1512178345,0.0004,0.0451,-0.2000,410.46,-321.59,1089.84,339,74,-573
  1512178345,-0.0370,0.0699,-0.2023,405.46,-263.49,1043.82,339,74,-573
  1512178345,-0.0659,0.0622,-0.2012,408.57,-276.67,1155.76,347,58,-589
  1512178345,-0.0807,0.0487,-0.2100,390.08,-270.81,1007.14,347,58,-589
  1512178345,-0.0589,0.0643,-0.2073,394.17,-243.59,1080.08,347,58,-589
  1512178345,-0.0780,0.0787,-0.2112,414.18,-274.66,1080.57,347,58,-589
  1512178345,-0.1154,0.0618,-0.2097,376.04,-309.33,1086.12,347,58,-589
  1512178345,-0.0573,0.0434,-0.2099,405.76,-270.75,1068.36,361,51,-568
  1512178345,-0.0678,0.0991,-0.2043,400.57,-279.54,1080.99,361,51,-568
  1512178345,-0.0736,0.0531,-0.2072,364.99,-287.90,1111.33,361,51,-568
  1512178345,-0.0409,0.0720,-0.2097,401.12,-246.03,1125.24,361,51,-568
  1512178345,0.0008,0.0783,-0.2162,403.32,-288.76,1142.70,354,68,-568
  1512178345,-0.0334,0.0659,-0.2112,403.69,-259.58,1108.83,354,68,-568
  1512178345,0.0064,0.0880,-0.2097,400.82,-305.11,1126.10,354,68,-568
  1512178345,0.0075,0.1119,-0.2097,398.74,-312.68,1096.13,354,68,-568
  1512178345,0.0802,0.0987,-0.2079,412.17,-283.26,1192.26,354,68,-568
  1512178345,-0.0758,0.0836,-0.2073,360.11,-315.73,1120.30,347,68,-578
  1512178345,-0.0250,0.1040,-0.2076,394.84,-245.12,1117.61,347,68,-578
  1512178345,0.0284,0.0864,-0.2161,412.54,-251.28,1098.21,347,68,-578
  1512178345,-0.1158,0.0847,-0.1991,361.15,-257.14,1087.16,347,68,-578
  1512178345,-0.1119,0.0590,-0.2001,363.59,-266.66,1063.42,347,68,-578
  1512178346,-0.0650,0.0571,-0.1989,364.20,-230.53,1108.22,347,54,-585
  1512178346,-0.0079,0.0485,-0.2037,275.82,-227.66,1056.40,347,54,-585
  1512178346,-0.0204,-0.0028,-0.2069,350.22,-231.69,1040.53,347,54,-585
  1512178346,-0.0132,0.0281,-0.2032,358.76,-252.14,1055.66,347,54,-585
  1512178346,0.1634,0.0534,-0.2092,344.18,-219.36,1126.22,349,45,-577
  1512178346,0.0557,-0.0083,-0.1976,322.02,-260.07,1054.69,349,45,-577
  1512178346,-0.0553,0.0140,-0.1816,385.74,-316.59,1028.44,349,45,-577
  1512178346,-0.0629,0.0618,-0.1979,331.67,-269.84,1074.10,349,45,-577
  1512178346,0.1041,0.0274,-0.1949,347.23,-265.26,1047.73,349,45,-577
  1512178346,0.0907,0.0008,-0.2011,351.75,-291.20,1099.00,342,45,-580
  1512178346,0.0932,0.0627,-0.2019,379.46,-270.63,1109.31,342,45,-580
  1512178346,0.1699,0.0443,-0.1973,375.06,-218.63,1108.40,342,45,-580
  1512178346,0.0941,0.0113,-0.1907,333.50,-288.70,1114.99,342,45,-580
  1512178346,0.0261,0.0477,-0.1874,394.04,-280.15,1003.17,356,28,-567
  1512178346,0.0736,0.0246,-0.1964,385.93,-252.38,1091.98,356,28,-567
  1512178346,-0.0289,0.0209,-0.1915,313.11,-298.89,1035.40,356,28,-567
  1512178346,-0.0807,0.0563,-0.2009,373.29,-298.40,1097.35,356,28,-567
  1512178346,-0.0205,0.0308,-0.1985,357.36,-327.94,1076.54,356,28,-567
  1512178346,-0.1256,0.0844,-0.1828,373.90,-306.64,1064.88,340,26,-582
  1512178346,-0.0358,0.0353,-0.2170,369.51,-313.23,1126.59,340,26,-582
  1512178346,-0.0985,0.0174,-0.1826,372.74,-295.10,1042.54,340,26,-582
  1512178346,-0.0134,0.0510,-0.1933,377.56,-297.97,1118.41,340,26,-582
  1512178346,-0.0304,0.0257,-0.1937,351.44,-312.19,1054.20,340,26,-582
  1512178346,-0.0032,-0.0137,-0.1827,368.23,-258.73,1061.95,337,26,-572
  1512178346,-0.0334,0.0495,-0.1816,396.67,-274.11,1129.76,337,26,-572
  1512178346,0.0250,0.0314,-0.1674,322.75,-265.08,1069.95,337,26,-572
  1512178346,0.0096,-0.0154,-0.1714,375.92,-232.91,1118.47,337,26,-572
  1512178346,0.1381,-0.0123,-0.1688,377.32,-219.73,1154.42,351,26,-585
  1512178346,0.0570,0.0410,-0.1756,376.04,-298.52,1103.39,351,26,-585
  1512178346,0.0972,-0.0055,-0.1704,427.61,-244.69,1145.57,351,26,-585
  1512178346,0.1603,0.0149,-0.1655,371.52,-242.31,1095.58,351,26,-585
  1512178346,0.1028,0.0153,-0.1629,362.43,-278.38,1124.88,351,26,-585
  1512178346,0.0876,-0.0176,-0.1578,412.60,-240.66,1081.24,333,22,-585
  1512178346,0.0999,0.0138,-0.1529,421.26,-269.84,1185.85,333,22,-585
  1512178346,0.0750,0.0341,-0.1470,372.68,-295.17,1009.95,333,22,-585
  1512178346,0.0860,0.0190,-0.1430,378.23,-282.53,1152.28,333,22,-585
  1512178346,0.0972,-0.0055,-0.1364,364.32,-305.66,1047.00,333,22,-585
  1512178346,0.0204,0.0682,-0.1352,333.74,-316.28,1010.25,335,10,-580
  1512178347,0.1362,-0.0551,-0.1276,332.52,-181.27,1056.34,335,10,-580
  1512178347,-0.0233,0.0290,-0.1193,386.35,-299.56,1265.44,335,10,-580
  1512178347,-0.0684,-0.0397,-0.1322,320.86,-292.54,827.76,335,10,-580
  1512178347,0.0015,0.0502,-0.0826,458.50,-317.26,1396.24,330,5,-595
  1512178347,-0.0827,-0.0406,-0.1008,365.17,-316.41,931.09,330,5,-595
  1512178347,0.0682,-0.0229,-0.0791,385.56,-339.90,1071.53,330,5,-595
  1512178347,0.0280,0.1250,-0.1019,426.76,-300.05,1086.85,330,5,-595
  1512178347,-0.0072,-0.0372,-0.0933,372.31,-336.06,1048.10,330,5,-595
  1512178347,-0.0893,-0.0409,-0.0905,386.47,-299.99,1076.60,340,5,-565
  1512178347,0.0168,0.0684,-0.0831,408.08,-284.97,1173.22,340,5,-565
  1512178347,-0.0012,-0.0209,-0.0955,436.58,-321.35,1035.46,340,5,-565
  1512178347,0.0542,-0.0401,-0.0707,437.01,-320.31,1182.25,340,5,-565
  1512178347,0.0324,0.0455,-0.0635,417.11,-349.49,1152.71,340,5,-565
  1512178347,0.0443,0.0089,-0.0664,449.34,-322.08,1111.21,323,5,-582
  1512178347,0.0254,-0.0293,-0.0565,434.69,-310.55,1144.23,323,5,-582
  1512178347,0.1067,0.0719,-0.0491,409.79,-318.18,1098.94,323,5,-582
  1512178347,0.0968,0.0454,-0.0483,405.09,-319.82,1102.97,323,5,-582
  1512178347,0.1467,0.0172,-0.0380,429.69,-335.08,1109.86,314,-10,-587
  1512178347,0.2012,0.0694,-0.0421,458.13,-318.05,1193.18,314,-10,-587
  1512178347,0.0648,0.0445,-0.0330,424.26,-389.22,1009.03,314,-10,-587
  1512178347,0.1037,0.0514,-0.0276,409.24,-293.64,1200.38,314,-10,-587
  1512178347,-0.0001,0.0654,-0.0406,439.45,-372.68,1036.19,314,-10,-587
  1512178347,0.0353,0.0230,-0.0298,423.28,-317.75,1093.26,333,-1,-561
  1512178347,0.0583,0.0493,-0.0334,420.65,-332.28,1002.93,333,-1,-561
  1512178347,0.0758,0.0450,-0.0333,442.44,-288.51,1199.28,333,-1,-561
  1512178347,-0.0378,0.0570,-0.0300,393.01,-373.29,981.57,333,-1,-561
  1512178347,0.0972,0.0425,-0.0341,332.52,-276.61,1045.04,333,-1,-561
  1512178347,0.0652,0.0776,-0.0120,408.02,-265.93,1032.04,312,5,-582
  1512178347,0.1152,-0.0310,-0.0206,369.14,-372.86,1149.60,312,5,-582
  1512178347,0.1270,0.0917,-0.0028,508.61,-343.57,1172.00,312,5,-582
  1512178347,-0.0204,0.0518,-0.0120,354.80,-426.51,1065.00,312,5,-582
  1512178347,-0.0523,0.0209,-0.0025,463.99,-328.25,1187.13,311,3,-577
  1512178347,0.0534,0.0839,-0.0052,384.46,-322.63,1167.85,311,3,-577
  1512178347,0.0293,0.0957,-0.0173,415.28,-326.97,1150.76,311,3,-577
  1512178347,0.0308,0.0060,-0.0079,439.39,-309.08,905.15,311,3,-577
  1512178347,0.0272,0.0884,0.0282,368.47,-314.27,1135.13,311,3,-577
  1512178347,-0.0815,0.0569,-0.0109,409.55,-306.76,1022.46,311,-10,-567
  1512178347,0.0386,-0.0129,0.0249,445.56,-379.09,1169.49,311,-10,-567
  1512178348,0.0017,0.0629,0.0168,385.56,-385.74,1052.86,311,-10,-567
  1512178348,0.1696,-0.0088,0.0076,495.85,-348.08,1268.37,311,-10,-567
  1512178348,0.1639,-0.0140,0.0197,516.72,-349.30,1312.19,311,-10,-567
  1512178348,0.2929,0.0292,0.0152,457.89,-386.17,1121.58,314,10,-567
  1512178348,0.1925,0.0240,0.0162,488.71,-312.38,1240.60,314,10,-567
  1512178348,0.1350,0.0031,0.0481,456.48,-330.20,1073.97,314,10,-567
  1512178348,0.1980,0.0015,0.0294,457.21,-363.53,1001.16,314,10,-567
  1512178348,0.1531,0.1075,0.0538,448.43,-368.41,1199.77,316,-5,-582
  1512178348,0.1449,-0.0083,0.0522,460.63,-372.07,1058.17,316,-5,-582
  1512178348,0.1575,0.0190,0.0684,451.72,-354.25,1116.64,316,-5,-582
  1512178348,0.2068,0.0707,0.0670,478.88,-400.51,1078.86,316,-5,-582
  1512178348,0.0144,0.0507,0.0786,453.86,-413.15,1070.19,316,-5,-582
  1512178348,-0.0029,-0.0099,0.0771,436.22,-393.86,897.28,323,-5,-555
  1512178348,0.0236,0.1336,0.0921,500.85,-398.99,1394.47,323,-5,-555
  1512178348,-0.0716,0.0519,0.0370,447.69,-319.89,1093.14,323,-5,-555
  1512178348,0.1001,-0.0591,0.0900,379.58,-361.27,1033.81,323,-5,-555
  1512178348,0.1292,0.1372,0.0815,494.45,-337.04,1281.07,323,-5,-555
  1512178348,0.0108,0.0696,0.0949,430.79,-381.04,945.56,307,0,-560
  1512178348,0.1182,-0.0202,0.0915,463.81,-292.24,1150.39,307,0,-560
  1512178348,0.1912,0.1189,0.0968,483.40,-352.11,1224.79,307,0,-560
  1512178348,0.0537,0.0682,0.0949,461.73,-433.47,1011.90,307,0,-560
  1512178348,0.0217,0.0330,0.0980,483.03,-390.50,1224.30,305,22,-575
  1512178348,-0.0513,0.0652,0.1040,462.10,-421.08,1165.95,305,22,-575
  1512178348,-0.0410,0.0727,0.1258,461.00,-382.45,953.92,305,22,-575
  1512178348,-0.0611,0.0210,0.1011,424.07,-369.93,1059.88,305,22,-575
  1512178348,-0.1285,0.0783,0.1417,377.62,-371.52,1065.25,305,22,-575
  1512178348,-0.1583,0.0687,0.0814,460.51,-357.48,1027.53,314,7,-560
  1512178348,-0.1190,0.0358,0.1510,410.10,-375.61,986.33,314,7,-560
  1512178348,0.0410,0.0401,0.1105,472.35,-280.33,1209.23,314,7,-560
  1512178348,0.1185,0.0521,0.1201,489.20,-449.65,1280.64,314,7,-560
  1512178348,-0.0477,0.0523,0.1341,586.24,-374.76,1149.90,314,7,-560
  1512178348,0.1067,-0.0445,0.1281,409.85,-420.78,1038.82,314,7,-583
  1512178348,0.1232,0.0314,0.1712,520.63,-345.52,1246.77,314,7,-583
  1512178348,-0.0282,0.0486,0.1507,445.74,-393.49,1076.60,314,7,-583
  1512178348,-0.0292,-0.0204,0.1558,488.28,-354.92,1133.42,314,7,-583
  1512178348,-0.0507,0.0786,0.1619,491.33,-406.92,1083.19,316,37,-595
  1512178348,-0.0823,0.0631,0.1589,412.29,-443.30,1049.19,316,37,-595
  1512178348,-0.1619,0.0237,0.1679,504.15,-431.46,976.07,316,37,-595
  1512178349,-0.0646,0.0478,0.1708,428.41,-410.03,1015.93,316,37,-595
  1512178349,0.0021,0.1224,0.1598,442.87,-401.98,1078.61,316,37,-595
  1512178349,0.0806,0.0088,0.1666,461.24,-308.29,991.39,312,29,-582
  1512178349,0.1253,0.0342,0.1675,406.19,-370.36,1161.01,312,29,-582
  1512178349,0.0346,0.0603,0.1611,436.34,-363.83,1126.59,312,29,-582
  1512178349,0.0971,0.0156,0.1790,430.60,-391.54,1194.03,312,29,-582
  1512178349,0.0407,-0.0087,0.1786,471.68,-391.91,1127.62,312,29,-582
  1512178349,0.0435,0.0065,0.1907,469.91,-387.82,1087.77,321,45,-580
  1512178349,-0.0346,0.0228,0.1816,447.69,-393.31,1085.94,321,45,-580
  1512178349,-0.0767,-0.0150,0.1828,488.04,-435.49,1053.53,321,45,-580
  1512178349,0.0245,0.0225,0.1912,514.47,-419.68,1132.39,321,45,-580
  1512178349,0.0362,0.0607,0.1907,473.75,-377.87,1084.84,318,35,-587
  1512178349,-0.0768,-0.0162,0.2035,501.89,-447.57,1097.35,318,35,-587
  1512178349,-0.0594,0.0244,0.2124,505.19,-383.42,1064.82,318,35,-587
  1512178349,0.0049,0.0499,0.2101,467.59,-385.74,1093.02,318,35,-587
  1512178349,0.0083,0.0088,0.2148,485.66,-400.82,1030.52,318,35,-587
  1512178349,0.0072,0.0455,0.2123,499.39,-395.32,1093.57,312,44,-582
  1512178349,0.0357,0.0248,0.2188,463.32,-381.71,1122.62,312,44,-582
  1512178349,0.0009,0.0242,0.2214,427.00,-363.65,1097.05,312,44,-582
  1512178349,0.0513,-0.0138,0.2260,479.49,-330.93,1077.64,312,44,-582
  1512178349,0.1262,0.0394,0.2210,468.38,-365.42,1118.65,333,61,-578
  1512178349,0.1152,0.0153,0.2281,472.23,-363.34,1067.32,333,61,-578
  1512178349,0.0718,0.0128,0.2312,483.95,-371.89,1090.58,333,61,-578
  1512178349,0.0905,0.0293,0.2288,483.64,-351.01,1095.64,333,61,-578
  1512178349,0.1318,0.0152,0.2378,493.96,-372.80,1057.92,333,61,-578
  1512178349,0.0471,0.0302,0.2360,438.42,-363.22,1085.88,318,52,-580
  1512178349,0.0784,0.0016,0.2332,456.12,-359.25,1056.27,318,52,-580
  1512178349,0.1071,0.0059,0.2346,491.39,-365.05,1109.31,318,52,-580
  1512178349,0.0947,0.0182,0.2342,457.46,-382.75,1054.93,318,52,-580
  1512178349,0.0308,0.0218,0.2365,441.77,-367.43,1090.94,318,52,-580
  1512178349,0.0931,0.0095,0.2340,459.23,-354.43,1110.72,330,51,-578
  1512178349,0.0896,0.0325,0.2304,479.19,-362.55,1120.48,330,51,-578
  1512178349,0.0811,0.0317,0.2316,458.56,-351.50,1090.21,330,51,-578
  1512178349,0.0376,0.0469,0.2328,509.28,-402.28,1144.04,330,51,-578
  1512178349,0.0368,0.0446,0.2358,448.30,-398.19,1125.06,330,51,-578
  1512178349,-0.0048,0.0338,0.2316,433.35,-380.13,1133.97,337,54,-582
  1512178349,-0.0352,0.0354,0.2340,434.75,-336.73,1115.72,337,54,-582
  1512178349,0.0246,0.0559,0.2298,430.54,-339.97,1096.62,337,54,-582
  1512178350,-0.0254,0.0224,0.2252,505.62,-386.23,1060.73,337,54,-582
  1512178350,-0.0168,0.0824,0.2286,427.73,-339.29,1160.89,332,59,-573
  1512178350,0.1273,0.0031,0.2237,467.53,-371.95,1049.32,332,59,-573
  1512178350,0.0357,0.0192,0.2281,470.95,-370.00,1140.93,332,59,-573
  1512178350,0.0491,0.0454,0.2261,497.80,-354.86,1108.70,332,59,-573
  1512178350,0.1750,0.0108,0.2385,470.95,-324.04,1137.08,332,59,-573
  1512178350,0.0571,0.0541,0.2386,480.35,-374.15,1103.70,335,70,-577
  1512178350,0.0799,0.0683,0.2336,494.38,-417.48,1109.80,335,70,-577
  1512178350,0.0594,0.0186,0.2422,462.10,-392.82,1027.59,335,70,-577
  1512178350,-0.0144,0.0550,0.2534,470.83,-397.64,1012.51,335,70,-577
  1512178350,0.0261,0.0321,0.2365,454.83,-333.31,1021.79,340,93,-572
  1512178350,0.0146,0.0310,0.2422,457.76,-406.01,1041.75,340,93,-572
  1512178350,-0.0510,0.0391,0.2434,434.69,-340.15,1083.07,340,93,-572
  1512178350,0.0848,0.0338,0.2465,521.00,-404.60,1108.83,340,93,-572
  1512178350,0.0250,0.0316,0.2539,492.92,-419.07,1049.44,340,93,-572
  1512178350,-0.0834,0.0160,0.2597,500.00,-407.47,1111.02,337,86,-585
  1512178350,-0.0196,0.0294,0.2622,459.84,-404.30,1108.83,337,86,-585
  1512178350,-0.0422,0.0308,0.2553,447.14,-410.83,1117.55,337,86,-585
  1512178350,-0.0521,0.0097,0.2643,536.13,-419.19,1153.44,337,86,-585
  1512178350,-0.0622,0.0569,0.2642,499.33,-455.32,1070.92,337,86,-585
  1512178350,-0.0439,0.0372,0.2803,493.29,-372.62,1124.63,349,95,-587
  1512178350,-0.0846,0.0446,0.2747,536.68,-402.34,1144.35,349,95,-587
  1512178350,-0.0246,0.0033,0.2786,456.18,-400.21,1036.19,349,95,-587
  1512178350,0.0075,0.0967,0.2955,502.01,-400.51,1134.03,349,95,-587
  1512178350,0.0387,0.0009,0.2886,565.61,-409.12,1089.42,342,112,-587
  1512178350,-0.1221,0.0107,0.3233,498.78,-441.47,1016.17,342,112,-587
  1512178350,-0.0800,0.0656,0.2864,473.39,-410.10,1058.17,342,112,-587
  1512178350,-0.1057,0.0754,0.3076,539.49,-405.15,1150.21,342,112,-587
  1512178350,-0.1105,0.0380,0.3033,518.80,-482.73,1033.63,342,112,-587
  1512178350,-0.0663,0.0811,0.3289,571.41,-429.75,1185.97,351,118,-592
  1512178350,-0.1021,0.0635,0.3152,495.12,-438.05,1047.85,351,118,-592
  1512178350,-0.0621,0.0366,0.3176,568.97,-428.77,1140.44,351,118,-592
  1512178350,0.0250,0.1097,0.3105,520.63,-444.52,990.60,351,118,-592
  1512178350,0.0449,0.0949,0.3254,504.94,-369.51,1168.64,351,118,-592
  1512178350,-0.0124,0.0880,0.3286,552.67,-366.21,1153.81,344,118,-585
  1512178350,-0.0329,0.0828,0.3423,489.26,-403.56,1189.76,344,118,-585
  1512178350,-0.0633,0.0526,0.3396,525.39,-395.32,1149.05,344,118,-585
  1512178351,-0.0491,0.0510,0.3501,526.73,-451.23,1070.19,344,118,-585
  1512178351,-0.0854,0.0479,0.3401,437.56,-408.14,1072.63,340,121,-578
  1512178351,-0.0111,0.0763,0.3467,562.87,-389.77,1151.73,340,121,-578
  1512178351,0.0261,0.0686,0.3366,432.37,-332.28,1035.71,340,121,-578
  1512178351,-0.0158,-0.0013,0.3439,500.98,-394.41,1144.90,340,121,-578
  1512178351,0.0150,0.0426,0.3521,462.34,-358.52,1105.96,340,121,-578
  1512178351,0.0121,0.0361,0.3547,503.72,-428.71,1076.78,347,135,-589
  1512178351,-0.0220,0.0242,0.3585,480.71,-366.27,1051.94,347,135,-589
  1512178351,0.0111,0.0269,0.3487,421.94,-348.57,1058.90,347,135,-589
  1512178351,0.0973,0.0357,0.3498,441.41,-326.60,1059.88,347,135,-589
  1512178351,-0.0020,0.0422,0.3465,484.50,-378.60,1011.96,346,137,-583
  1512178351,0.0406,0.0430,0.3582,457.95,-296.69,1173.52,346,137,-583
  1512178351,0.1140,0.0353,0.3629,505.07,-369.45,1081.30,346,137,-583
  1512178351,0.1529,0.0304,0.3665,483.28,-354.25,1169.01,346,137,-583
  1512178351,0.0630,0.0296,0.3744,472.11,-375.37,1061.28,346,137,-583
  1512178351,0.0325,0.0489,0.3886,508.48,-348.82,1112.37,340,163,-592
  1512178351,0.0754,0.0550,0.3679,502.75,-402.71,1117.86,340,163,-592
  1512178351,-0.0069,0.0710,0.3794,484.50,-404.72,1020.51,340,163,-592
  1512178351,0.0646,0.0450,0.3790,446.11,-364.50,1103.52,340,163,-592
  1512178351,0.1023,0.0622,0.3836,437.50,-379.27,1099.67,340,163,-592
  1512178351,0.0506,0.0676,0.3894,476.26,-379.94,1019.17,346,169,-583
  1512178351,0.1072,0.0461,0.3908,499.39,-410.40,1124.39,346,169,-583
  1512178351,0.0909,0.0840,0.3969,523.07,-394.53,1140.50,346,169,-583
  1512178351,0.0901,0.0687,0.3985,443.05,-389.53,1123.66,346,169,-583
  1512178351,0.0739,0.0282,0.3995,504.09,-373.66,1089.48,340,174,-592
  1512178351,0.0985,0.0940,0.4161,499.82,-409.12,1066.22,340,174,-592
  1512178351,0.0293,0.0349,0.4025,441.83,-370.42,1086.30,340,174,-592
  1512178351,0.0458,0.0498,0.4105,469.30,-380.25,1086.61,340,174,-592
  1512178351,0.0728,0.0932,0.4103,478.76,-395.08,1124.63,340,174,-592
  1512178351,-0.0130,0.0418,0.4192,493.16,-366.82,1034.91,328,169,-580
  1512178351,0.0172,0.0587,0.4248,479.19,-402.95,1131.96,328,169,-580
  1512178351,0.0676,0.0822,0.4164,476.14,-349.00,1144.47,328,169,-580
  1512178351,0.0349,0.0361,0.4272,462.65,-361.27,1121.28,328,169,-580
  1512178351,-0.0166,0.0415,0.4276,470.95,-366.27,1084.29,328,169,-580
  1512178351,0.0192,0.0640,0.4273,477.84,-421.33,1130.43,328,193,-570
  1512178351,0.0473,0.0619,0.4321,477.11,-376.28,1134.70,328,193,-570
  1512178351,0.0988,0.0373,0.4182,485.05,-380.80,1114.69,328,193,-570
  1512178351,-0.0491,0.0622,0.4316,471.44,-399.66,1038.76,328,193,-570
  1512178352,0.0594,0.0521,0.4301,400.88,-385.01,1155.76,319,202,-575
  1512178352,0.0465,0.0192,0.4420,365.84,-367.55,1023.19,319,202,-575
  1512178352,0.0296,0.0691,0.4384,401.67,-414.06,1188.42,319,202,-575
  1512178352,0.0337,0.0589,0.4372,472.96,-449.46,1042.79,319,202,-575
  1512178352,0.0383,0.0394,0.4502,467.35,-395.69,1178.47,319,202,-575
  1512178352,0.0748,0.0607,0.4459,435.36,-376.46,1124.94,311,200,-573
  1512178352,0.1730,0.0176,0.4467,416.93,-375.98,1145.87,311,200,-573
  1512178352,0.1583,0.0273,0.4421,387.63,-363.59,1073.97,311,200,-573
  1512178352,0.1738,0.0306,0.4454,400.45,-372.86,1094.85,311,200,-573
  1512178352,0.1593,0.0312,0.4453,403.02,-402.71,1109.25,311,200,-573
  1512178352,0.0979,0.0426,0.4535,407.65,-386.84,1120.24,314,218,-573
  1512178352,0.0136,0.0309,0.4606,402.83,-380.98,1067.87,314,218,-573
  1512178352,0.0093,0.0486,0.4577,442.81,-372.07,1120.79,314,218,-573
  1512178352,-0.0296,0.0320,0.4503,394.47,-361.94,1127.87,314,218,-573
  1512178352,-0.0923,0.0218,0.4441,395.51,-347.29,1144.23,311,236,-563
  1512178352,-0.1120,0.0422,0.4422,444.03,-348.88,1194.52,311,236,-563
  1512178352,-0.1142,0.0214,0.4305,444.34,-374.21,1121.03,311,236,-563
  1512178352,-0.1932,0.0101,0.4346,444.40,-367.13,1180.66,311,236,-563
  1512178352,-0.1450,0.0399,0.4393,468.38,-359.25,1146.97,311,236,-563
  1512178352,-0.1874,0.0213,0.4393,400.45,-398.93,1142.15,318,243,-590
  1512178352,-0.1402,0.0123,0.4369,375.55,-336.30,1135.19,318,243,-590
  1512178352,-0.1798,0.0136,0.4417,437.62,-409.73,1051.15,318,243,-590
  1512178352,-0.1406,0.0184,0.4396,471.01,-436.58,1160.89,318,243,-590
  1512178352,-0.1079,0.0196,0.4332,421.14,-416.50,1068.12,318,243,-590
  1512178352,-0.1627,0.0020,0.4408,513.61,-465.58,1121.09,328,246,-573
  1512178352,-0.1850,0.0185,0.4400,446.66,-438.84,1061.71,328,246,-573
  1512178352,-0.0851,-0.0095,0.4288,443.18,-458.07,1113.10,328,246,-573
  1512178352,-0.2521,0.0172,0.4392,434.51,-495.97,1067.87,328,246,-573
  1512178352,-0.2346,0.0060,0.4294,445.37,-512.21,1012.63,319,262,-568
  1512178352,-0.2107,0.0146,0.4443,431.82,-464.48,1063.66,319,262,-568
  1512178352,-0.1314,-0.0172,0.4302,392.03,-489.44,1027.83,319,262,-568
  1512178352,-0.1486,0.0344,0.4389,443.60,-492.68,1088.13,319,262,-568
  1512178352,-0.0920,0.0130,0.4277,494.63,-483.83,1093.51,319,262,-568
  1512178352,-0.1798,0.0015,0.4352,479.25,-508.12,1067.26,312,269,-585
  1512178352,-0.0712,0.0285,0.4402,401.31,-458.07,1118.77,312,269,-585
  1512178352,0.0076,0.0370,0.4382,396.06,-424.93,1151.67,312,269,-585
  1512178352,0.0221,0.0434,0.4348,420.17,-491.82,1138.24,312,269,-585
  1512178352,0.0254,0.0963,0.4414,468.26,-463.44,1187.62,288,269,-585
  1512178353,0.0095,0.1052,0.4325,520.63,-487.49,1188.72,288,269,-585
  1512178353,-0.0273,0.1348,0.4494,539.86,-457.89,1178.47,288,269,-585
  1512178353,0.0266,0.1937,0.4230,520.14,-478.15,1131.23,288,269,-585
  1512178353,0.0322,0.1943,0.4238,560.12,-402.83,1157.65,288,269,-585
  1512178353,0.0262,0.2027,0.4262,475.65,-412.48,1094.24,289,278,-611
  1512178353,0.0955,0.2136,0.4322,509.77,-359.07,1116.52,289,278,-611
  1512178353,0.0963,0.2004,0.4382,417.18,-384.83,1029.66,289,278,-611
  1512178353,0.0514,0.1683,0.4349,333.68,-435.97,1024.17,289,278,-611
  1512178353,-0.0427,0.1896,0.4280,382.93,-399.17,968.51,289,278,-611
  1512178353,0.0226,0.1418,0.4435,305.24,-399.35,1013.85,270,294,-592
  1512178353,-0.1001,0.1248,0.4326,362.37,-446.53,945.50,270,294,-592
  1512178353,-0.1495,0.1017,0.4432,303.28,-414.79,1071.90,270,294,-592
  1512178353,-0.0449,0.0599,0.4381,274.48,-401.73,1029.11,270,294,-592
  1512178353,-0.1346,0.0759,0.4390,373.29,-442.75,1077.21,288,304,-599
  1512178353,-0.0979,0.0678,0.4361,365.17,-442.75,1050.66,288,304,-599
  1512178353,-0.1842,0.0712,0.4481,362.12,-500.98,1057.37,288,304,-599
  1512178353,-0.0429,0.0273,0.4340,367.25,-480.47,1064.64,288,304,-599
  1512178353,-0.0517,0.0554,0.4485,361.57,-437.44,1119.02,288,304,-599
  1512178353,-0.0475,0.0382,0.4402,354.98,-481.75,1050.17,265,313,-600
  1512178353,-0.1320,0.0487,0.4450,359.62,-440.67,1074.89,265,313,-600
  1512178353,-0.0553,0.0360,0.4554,388.55,-419.25,1156.86,265,313,-600
  1512178353,-0.1724,0.0431,0.4716,380.19,-426.76,1131.47,265,313,-600
  1512178353,-0.1479,0.0088,0.4746,460.45,-432.01,1198.49,265,313,-600
  1512178353,-0.0961,-0.0461,0.4847,432.43,-442.75,1151.00,258,306,-614
  1512178353,-0.0377,-0.0453,0.4771,427.12,-409.48,1191.47,258,306,-614
  1512178353,-0.1549,-0.0481,0.4575,396.30,-465.82,1164.43,258,306,-614
  1512178353,-0.1431,-0.0574,0.4424,429.38,-478.76,1097.23,258,306,-614
  1512178353,-0.0679,-0.0296,0.4497,419.86,-417.05,1171.88,244,331,-604
  1512178353,-0.0391,-0.0666,0.4498,366.03,-407.90,1126.53,244,331,-604
  1512178353,-0.0329,-0.0330,0.4549,394.71,-422.12,1080.20,244,331,-604
  1512178353,-0.0244,-0.0425,0.4613,405.94,-440.37,1042.36,244,331,-604
  1512178353,-0.1421,-0.0397,0.4685,409.30,-513.12,1017.58,244,331,-604
  1512178353,-0.0483,-0.0174,0.4539,438.48,-502.62,1043.95,244,313,-597
  1512178353,-0.0419,-0.0166,0.4547,431.70,-496.28,1076.84,244,313,-597
  1512178353,-0.0562,0.0089,0.4589,411.62,-460.51,1011.11,244,313,-597
  1512178353,-0.0920,0.0260,0.4537,436.10,-486.15,1025.63,244,313,-597
  1512178353,-0.0775,0.0032,0.4519,390.38,-503.30,1068.42,244,313,-597
  1512178353,-0.0764,0.0368,0.4521,452.64,-465.52,1207.64,242,319,-605
  1512178354,0.0422,0.0385,0.4425,394.71,-446.59,1184.88,242,319,-605
  1512178354,-0.0360,0.0061,0.4221,385.68,-516.42,1183.59,242,319,-605
  1512178354,0.0236,0.0132,0.4108,380.00,-488.28,1199.34,242,319,-605
  1512178354,0.0091,0.0008,0.4024,371.34,-508.97,1164.37,230,324,-604
  1512178354,0.1029,0.0154,0.3923,329.28,-452.94,1085.39,230,324,-604
  1512178354,0.1703,0.0077,0.3746,379.82,-462.34,1078.74,230,324,-604
  1512178354,0.1933,0.0127,0.3771,367.55,-454.35,1027.71,230,324,-604
  1512178354,0.1534,0.0353,0.3759,344.60,-460.39,1049.26,230,324,-604
  1512178354,0.1503,0.0489,0.3896,357.12,-467.59,1064.94,221,322,-602
  1512178354,0.1900,0.0268,0.3899,337.22,-424.32,1089.29,221,322,-602
  1512178354,0.0818,0.0530,0.3876,373.17,-427.80,1004.03,221,322,-602
  1512178354,0.0889,0.0443,0.3892,359.50,-442.87,1106.20,221,322,-602
  1512178354,0.0479,0.0421,0.3846,341.37,-457.40,1022.16,221,322,-602
  1512178354,0.0895,0.0298,0.3907,341.00,-404.48,1088.50,193,322,-602
  1512178354,0.0164,0.0549,0.3798,322.20,-475.65,1056.95,193,322,-602
  1512178354,-0.0383,0.0644,0.3804,387.94,-423.52,1019.90,193,322,-602
  1512178354,0.0417,0.0636,0.3823,351.62,-453.06,1173.52,193,322,-602
  1512178354,-0.0198,0.0549,0.3663,389.71,-442.26,993.41,186,333,-589
  1512178354,0.0236,0.0280,0.3815,386.90,-450.07,1178.65,186,333,-589
  1512178354,0.0257,0.0570,0.3770,349.00,-420.78,1019.47,186,333,-589
  1512178354,-0.0533,0.0511,0.3838,340.64,-452.58,1111.82,186,333,-589
  1512178354,-0.0501,0.0419,0.3780,367.19,-480.22,1034.18,186,333,-589
  1512178354,-0.0863,0.0511,0.3790,389.53,-483.52,1114.20,163,331,-597
  1512178354,-0.0481,0.0591,0.3807,355.16,-446.96,1086.30,163,331,-597
  1512178354,-0.0603,0.0441,0.3779,317.32,-472.72,1033.57,163,331,-597
  1512178354,0.0071,0.0324,0.3748,342.53,-437.81,1103.21,163,331,-597
  1512178354,-0.0140,0.0354,0.3752,351.20,-470.52,1073.67,163,331,-597
  1512178354,0.0522,0.0383,0.3795,345.58,-440.19,1091.98,158,336,-602
  1512178354,0.0197,0.0395,0.3767,350.16,-468.99,1071.78,158,336,-602
  1512178354,-0.0245,0.0328,0.3764,362.61,-487.67,1131.16,158,336,-602
  1512178354,-0.0113,0.0381,0.3746,322.51,-476.07,1083.31,158,336,-602
  1512178354,-0.0702,0.0334,0.3732,330.87,-458.01,1069.03,161,322,-609
  1512178354,0.0376,0.0435,0.3672,365.78,-454.35,1144.17,161,322,-609
  1512178354,0.0557,0.0405,0.3666,336.55,-470.15,1098.94,161,322,-609
  1512178354,0.0473,0.0174,0.3732,323.67,-431.82,1063.29,161,322,-609
  1512178354,0.1435,0.0373,0.3665,290.41,-405.27,1067.44,161,322,-609
  1512178354,0.0775,0.0336,0.3687,263.55,-427.67,1054.14,135,334,-597
  1512178354,0.1033,0.0266,0.3642,337.04,-415.59,1058.35,135,334,-597
  1512178355,0.1843,0.0334,0.3696,327.15,-412.48,1110.96,135,334,-597
  1512178355,0.1298,0.0358,0.3684,342.65,-428.16,1058.96,135,334,-597
  1512178355,0.1392,0.0373,0.3722,328.12,-439.70,1131.84,135,334,-597
  1512178355,0.1485,0.0362,0.3708,339.29,-442.50,1113.34,119,329,-599
  1512178355,0.0824,0.0168,0.3762,331.18,-436.16,1070.50,119,329,-599
  1512178355,0.0634,0.0317,0.3778,333.19,-429.44,1113.77,119,329,-599
  1512178355,0.0891,0.0104,0.3690,332.46,-446.47,1116.94,119,329,-599
  1512178355,0.1084,0.0004,0.3780,334.35,-417.36,1094.48,130,326,-592
  1512178355,0.1001,0.0382,0.3727,354.13,-443.97,1040.89,130,326,-592
  1512178355,0.0463,0.0116,0.3740,340.21,-433.17,1134.89,130,326,-592
  1512178355,0.0470,0.0184,0.3752,341.37,-439.45,1092.41,130,326,-592
  1512178355,0.0093,0.0281,0.3702,357.48,-474.18,1092.22,130,326,-592
  1512178355,0.0242,0.0254,0.3750,350.83,-449.34,1085.39,107,327,-614
  1512178355,-0.0165,0.0117,0.3690,289.61,-480.10,1044.01,107,327,-614
  1512178355,-0.0538,0.0119,0.3678,313.78,-479.61,1076.23,107,327,-614
  1512178355,0.0606,0.0209,0.3726,352.78,-461.00,1102.05,107,327,-614
  1512178355,0.0099,0.0474,0.3678,388.31,-473.51,1018.49,107,327,-614
  1512178355,0.0760,0.0245,0.3735,325.01,-452.58,1130.98,110,320,-607
  1512178355,0.0394,0.0414,0.3708,317.75,-451.17,1057.43,110,320,-607
  1512178355,0.0056,0.0365,0.3675,297.55,-460.63,1056.09,110,320,-607
  1512178355,0.0257,0.0427,0.3691,322.57,-470.70,1091.67,110,320,-607
  1512178355,-0.0125,0.0427,0.3615,363.28,-472.72,1064.82,94,326,-609
  1512178355,0.0788,0.0297,0.3750,312.87,-436.10,1151.67,94,326,-609
  1512178355,0.0711,0.0579,0.3638,305.11,-466.55,1095.28,94,326,-609
  1512178355,0.1300,0.0260,0.3679,354.80,-459.41,1151.79,94,326,-609
  1512178355,0.1064,0.0144,0.3669,328.06,-455.57,1099.98,94,326,-609
  1512178355,0.0517,0.0519,0.3646,334.17,-470.52,1122.01,86,320,-624
  1512178355,0.0660,0.0328,0.3665,314.58,-425.42,1117.92,86,320,-624
  1512178355,0.0325,0.0527,0.3618,344.48,-453.12,1117.25,86,320,-624
  1512178355,0.0876,0.0422,0.3551,354.31,-459.53,1131.53,86,320,-624
  1512178355,0.0702,0.0666,0.3666,325.07,-460.69,1131.04,86,320,-624
  1512178355,0.0044,0.0546,0.3577,363.34,-450.32,1096.01,82,317,-611
  1512178355,0.0168,0.0581,0.3661,334.05,-473.69,1156.92,82,317,-611
  1512178355,-0.0036,0.0566,0.3581,302.61,-420.84,1040.53,82,317,-611
  1512178355,-0.0181,0.0252,0.3521,324.95,-445.37,1116.39,82,317,-611
  1512178355,0.0079,0.0626,0.3490,319.46,-475.34,1096.56,63,304,-605
  1512178355,0.0176,0.0257,0.3545,324.22,-433.96,1086.36,63,304,-605
  1512178355,0.0027,0.0228,0.3535,315.25,-426.27,1078.67,63,304,-605
  1512178356,-0.0210,0.0353,0.3421,335.33,-462.22,1084.41,63,304,-605
  1512178356,-0.0012,0.0477,0.3423,318.79,-434.02,1077.94,63,304,-605
  1512178356,0.0402,0.0252,0.3401,319.95,-459.59,1073.67,54,320,-594
  1512178356,0.0160,0.0514,0.3325,324.52,-459.41,1036.32,54,320,-594
  1512178356,0.0403,0.0415,0.3328,320.07,-441.28,1066.65,54,320,-594
  1512178356,0.0640,0.0439,0.3250,318.73,-451.35,1070.31,54,320,-594
  1512178356,0.0272,0.0418,0.3261,344.12,-439.58,1074.40,35,315,-602
  1512178356,0.0471,0.0447,0.3174,333.31,-432.43,1103.52,35,315,-602
  1512178356,0.0136,0.0289,0.3197,322.14,-426.64,1076.84,35,315,-602
  1512178356,0.0188,0.0326,0.3135,246.28,-415.53,1072.39,35,315,-602
  1512178356,-0.0212,0.0188,0.3099,245.18,-395.20,1079.90,35,315,-602
  1512178356,0.0028,0.0266,0.2932,318.30,-455.99,1112.85,33,306,-594
  1512178356,-0.0019,0.0033,0.2944,298.34,-437.93,1114.50,33,306,-594
  1512178356,-0.0356,0.0300,0.2890,313.78,-438.72,1084.05,33,306,-594
  1512178356,-0.0321,0.0260,0.2838,283.81,-466.06,1100.34,33,306,-594
  1512178356,-0.0222,0.0140,0.2812,306.21,-447.69,1083.56,33,306,-594
  1512178356,-0.0023,0.0418,0.2771,285.03,-457.82,1090.76,43,296,-597
  1512178356,-0.0314,0.0081,0.2752,272.71,-433.35,1019.23,43,296,-597
  1512178356,0.0031,0.0181,0.2716,288.76,-426.94,1144.29,43,296,-597
  1512178356,0.0478,0.0230,0.2591,282.78,-448.43,1150.76,43,296,-597
  1512178356,-0.0119,-0.0009,0.2595,327.58,-425.23,1078.49,31,312,-602
  1512178356,0.0643,0.0180,0.2503,283.45,-442.57,1167.18,31,312,-602
  1512178356,-0.0160,-0.0105,0.2411,312.01,-429.57,1046.88,31,312,-602
  1512178356,0.1152,0.0397,0.2421,337.34,-433.47,1185.91,31,312,-602
  1512178356,0.0690,0.0262,0.2204,280.88,-456.79,1162.41,31,312,-602
  1512178356,0.0676,0.0169,0.2222,327.94,-431.82,1065.67,14,304,-599
  1512178356,0.1081,0.0506,0.2131,258.85,-390.26,1102.42,14,304,-599
  1512178356,0.0667,0.0369,0.2121,248.11,-361.57,1036.99,14,304,-599
  1512178356,0.1157,0.0450,0.2019,295.78,-366.70,1132.14,14,304,-599
  1512178356,0.1613,0.0232,0.2011,277.89,-369.81,1111.27,14,304,-599
  1512178356,0.0828,0.0278,0.1999,300.42,-391.48,1066.04,21,294,-605
  1512178356,0.1410,0.0270,0.1921,280.88,-350.22,1090.09,21,294,-605
  1512178356,0.0453,0.0537,0.1780,309.51,-423.22,1075.38,21,294,-605
  1512178356,0.0314,0.0353,0.1772,265.81,-376.77,1068.73,21,294,-605
  1512178356,0.0720,0.0561,0.1652,284.85,-370.18,1025.88,10,280,-592
  1512178356,0.0209,0.0209,0.1623,233.83,-397.71,1076.66,10,280,-592
  1512178356,0.0035,0.0642,0.1549,259.70,-355.83,1046.39,10,280,-592
  1512178356,0.0913,0.0318,0.1558,278.44,-383.36,1091.00,10,280,-592
  1512178357,0.0462,0.0288,0.1517,330.69,-376.28,1078.25,10,280,-592
  1512178357,0.1061,0.0425,0.1486,306.64,-420.17,1086.85,3,294,-592
  1512178357,0.1236,-0.0049,0.1366,281.25,-382.45,1088.07,3,294,-592
  1512178357,0.1174,0.0141,0.1406,271.06,-372.50,1096.92,3,294,-592
  1512178357,0.0545,0.0134,0.1346,247.74,-400.45,1038.57,3,294,-592
  1512178357,0.0659,0.0087,0.1305,288.82,-367.43,1069.64,3,294,-592
  1512178357,0.0554,0.0138,0.1246,305.60,-382.75,1103.64,5,285,-600
  1512178357,0.0387,0.0103,0.1208,263.92,-363.95,1070.80,5,285,-600
  1512178357,0.0686,0.0272,0.1186,238.95,-364.20,1094.54,5,285,-600
  1512178357,-0.0317,0.0120,0.1060,251.71,-398.38,1090.27,5,285,-600
  1512178357,-0.0011,0.0049,0.1091,286.25,-389.28,1109.56,10,287,-602
  1512178357,-0.0140,0.0109,0.0989,228.52,-398.07,1187.68,10,287,-602
  1512178357,0.0462,0.0117,0.0908,301.27,-349.37,1083.86,10,287,-602
  1512178357,0.0377,0.0141,0.0941,252.32,-390.08,1175.96,10,287,-602
  1512178357,0.0214,0.0225,0.0798,251.71,-386.11,1089.97,10,287,-602
  1512178357,0.0730,-0.0103,0.0897,307.01,-352.36,1140.14,1,296,-600
  1512178357,0.0120,0.0320,0.0722,227.78,-345.83,1054.50,1,296,-600
  1512178357,0.0931,0.0128,0.0714,277.10,-320.62,1087.22,1,296,-600
  1512178357,0.0772,-0.0084,0.0684,294.31,-378.54,1103.76,1,296,-600
  1512178357,0.0967,0.0451,0.0606,340.21,-376.53,1118.84,1,296,-600
  1512178357,0.1115,0.0242,0.0579,273.99,-372.38,1041.87,3,283,-602
  1512178357,0.0583,0.0204,0.0599,346.62,-337.46,1085.69,3,283,-602
  1512178357,0.0687,0.0442,0.0462,286.38,-337.71,1084.11,3,283,-602
  1512178357,0.0696,0.0551,0.0437,260.80,-332.28,1065.25,3,283,-602
  1512178357,0.1156,0.0369,0.0407,288.82,-297.24,1073.30,-22,275,-604
  1512178357,0.1245,0.0067,0.0415,286.80,-309.39,1098.02,-22,275,-604
  1512178357,0.1236,0.0277,0.0333,240.97,-281.56,1114.93,-22,275,-604
  1512178357,0.1846,0.0466,0.0385,288.57,-270.75,1086.91,-22,275,-604
  1512178357,0.1700,0.0136,0.0374,277.10,-306.58,1176.33,-22,275,-604
  1512178357,0.1165,0.0156,0.0389,318.66,-365.42,1109.25,-1,282,-611
  1512178357,0.1393,0.0216,0.0334,322.63,-314.33,1120.00,-1,282,-611
  1512178357,0.1474,0.0142,0.0273,310.30,-356.08,1093.57,-1,282,-611
  1512178357,0.1093,0.0289,0.0230,308.65,-342.22,1067.99,-1,282,-611
  1512178357,0.1533,0.0092,0.0200,277.77,-360.66,1107.85,-1,282,-611
  1512178357,0.1177,0.0340,0.0252,300.54,-302.43,1112.55,-21,280,-582
  1512178357,0.0011,0.0402,0.0202,325.62,-330.81,1083.80,-21,280,-582
  1512178357,0.0141,0.0499,0.0180,222.11,-312.81,1090.70,-21,280,-582
  1512178357,0.0397,0.0288,0.0162,276.92,-326.66,1097.35,-21,280,-582
  1512178358,0.0318,0.0374,0.0136,268.62,-315.43,1092.65,-21,280,-582
  1512178358,0.0280,0.0546,0.0071,276.31,-353.52,1105.83,-5,271,-597
  1512178358,0.0157,0.0334,0.0133,288.88,-322.75,1069.09,-5,271,-597
  1512178358,0.1131,0.0096,0.0120,254.27,-325.20,1121.22,-5,271,-597
  1512178358,-0.0100,0.0173,0.0097,275.21,-321.35,1106.93,-5,271,-597
  1512178358,0.0103,0.0233,0.0164,267.52,-313.54,1059.94,-19,271,-604
  1512178358,-0.0124,0.0513,0.0095,271.06,-362.85,1035.22,-19,271,-604
  1512178358,-0.0032,0.0067,0.0023,290.65,-340.33,1067.87,-19,271,-604
  1512178358,-0.0318,0.0302,0.0115,351.99,-376.53,1071.11,-19,271,-604
  1512178358,0.0238,0.0550,0.0072,273.25,-356.08,1125.55,-19,271,-604
  1512178358,-0.0344,0.0253,-0.0055,261.35,-379.88,1062.38,-26,275,-614
  1512178358,-0.0137,0.0007,-0.0003,276.06,-320.43,1160.10,-26,275,-614
  1512178358,-0.1135,0.0433,-0.0012,303.16,-336.91,1061.89,-26,275,-614
  1512178358,-0.0594,0.0019,-0.0077,374.08,-260.93,1074.34,-26,275,-614
  1512178358,-0.0447,-0.0138,0.0011,368.77,-284.55,1101.50,-7,276,-599
  1512178358,-0.0285,0.0265,-0.0107,414.55,-353.88,1056.21,-7,276,-599
  1512178358,-0.0337,0.0185,-0.0048,374.02,-364.26,1081.73,-7,276,-599
  1512178358,-0.0352,0.0061,-0.0060,322.88,-337.59,1105.65,-7,276,-599
  1512178358,-0.1172,0.0301,-0.0065,316.41,-368.23,1015.20,-7,276,-599
  1512178358,-0.0807,0.0380,-0.0047,307.07,-352.36,1170.47,-17,280,-599
  1512178358,-0.0087,-0.0021,-0.0164,346.19,-260.86,1037.11,-17,280,-599
  1512178358,0.1214,-0.0182,-0.0064,359.31,-270.14,1176.64,-17,280,-599
  1512178358,0.0125,0.0178,-0.0130,270.57,-288.57,1055.85,-17,280,-599
  1512178358,0.0714,-0.0152,-0.0079,307.13,-251.34,1138.00,-17,280,-599
  1512178358,0.0446,-0.0328,-0.0091,286.80,-280.46,1062.62,-24,280,-595
  1512178358,0.0557,0.0200,-0.0043,323.55,-292.18,1129.76,-24,280,-595
  1512178358,0.0558,0.0186,-0.0071,344.60,-238.34,1067.50,-24,280,-595
  1512178358,0.1671,-0.0352,-0.0028,383.30,-259.70,1137.15,-24,280,-595
  1512178358,0.1856,0.0201,-0.0190,362.30,-271.42,1088.38,-21,266,-612
  1512178358,0.1961,-0.0092,-0.0071,317.75,-292.72,1077.51,-21,266,-612
  1512178358,0.0905,0.0224,0.0055,346.68,-293.27,1115.60,-21,266,-612
  1512178358,0.1154,0.0173,-0.0016,309.20,-263.24,1045.29,-21,266,-612
  1512178358,-0.0268,-0.0104,-0.0016,366.94,-285.58,1042.85,-21,266,-612
  1512178358,-0.0393,0.0446,-0.0003,356.20,-285.83,1064.76,-7,259,-609
  1512178358,-0.0732,0.0547,-0.0039,316.83,-297.55,1095.95,-7,259,-609
  1512178358,-0.1546,0.0285,-0.0080,369.93,-320.13,1011.47,-7,259,-609
  1512178358,-0.0398,0.0005,0.0039,297.24,-261.29,966.19,-7,259,-609
  1512178358,-0.1222,0.0703,-0.0028,386.17,-358.52,1087.71,-7,259,-609
  1512178359,-0.1656,0.0374,-0.0099,310.49,-318.24,1033.57,-8,243,-607
  1512178359,-0.1300,0.0409,-0.0077,433.59,-364.01,1062.99,-8,243,-607
  1512178359,-0.1715,0.0807,-0.0055,394.96,-376.34,1140.75,-8,243,-607
  1512178359,-0.1707,0.0300,-0.0027,412.17,-324.10,1027.59,-8,243,-607
  1512178359,-0.0116,0.0522,-0.0095,416.50,-229.43,1247.31,-29,264,-600
  1512178359,-0.0338,0.0417,-0.0241,381.29,-278.14,1059.27,-29,264,-600
  1512178359,0.0684,0.0184,-0.0012,366.15,-241.27,1184.75,-29,264,-600
  1512178359,0.0491,0.0338,-0.0075,360.90,-273.80,1092.04,-29,264,-600
  1512178359,0.0621,0.0158,-0.0009,418.46,-286.25,1171.75,-29,264,-600
  1512178359,0.0288,0.0252,0.0013,370.73,-292.97,1101.81,-15,271,-577
  1512178359,0.0154,0.0164,0.0069,373.60,-338.50,1013.55,-15,271,-577
  1512178359,0.0778,0.0389,0.0064,377.75,-294.92,1114.14,-15,271,-577
  1512178359,-0.0262,0.0626,0.0045,440.31,-347.11,1074.65,-15,271,-577
  1512178359,-0.0668,0.0072,0.0080,355.35,-347.66,1108.34,-15,271,-577
  1512178359,0.0387,0.0469,0.0109,423.10,-340.58,1021.97,1,278,-600
  1512178359,0.0149,0.0623,0.0152,410.64,-337.89,1120.97,1,278,-600
  1512178359,-0.0903,0.0124,0.0165,415.89,-344.24,1033.39,1,278,-600
  1512178359,-0.0527,0.0423,0.0305,375.55,-293.95,1056.58,1,278,-600
  1512178359,0.0226,0.0425,0.0141,406.92,-315.25,1099.49,-7,280,-599
  1512178359,-0.0055,0.0246,0.0256,384.46,-298.16,1091.06,-7,280,-599
  1512178359,0.1100,0.0655,0.0294,445.80,-295.29,1108.52,-7,280,-599
  1512178359,0.1256,0.0073,0.0301,415.77,-288.45,1169.62,-7,280,-599
  1512178359,0.1205,-0.0096,0.0341,460.51,-339.78,1095.15,-7,280,-599
  1512178359,0.1605,0.0542,0.0270,436.28,-318.12,1182.74,-5,282,-604
  1512178359,-0.0321,0.0288,0.0368,415.47,-314.82,1065.73,-5,282,-604
  1512178359,0.0210,-0.0023,0.0566,420.59,-335.27,1141.72,-5,282,-604
  1512178359,-0.0293,0.0406,0.0479,419.19,-363.04,1079.96,-5,282,-604
  1512178359,-0.0406,0.0119,0.0534,386.54,-353.45,1107.30,1,260,-617
  1512178359,-0.0419,0.0352,0.0527,427.12,-348.82,1086.06,1,260,-617
  1512178359,0.0013,0.0186,0.0619,383.85,-399.72,1113.10,1,260,-617
  1512178359,-0.1744,0.0306,0.0751,432.13,-382.57,1111.21,1,260,-617
  1512178359,-0.1426,0.0346,0.0716,471.56,-360.17,1087.10,1,260,-617
  1512178359,-0.1060,0.0356,0.0800,432.98,-374.63,1126.40,7,266,-616
  1512178359,-0.1205,0.0449,0.0776,391.05,-363.83,1092.53,7,266,-616
  1512178359,-0.1479,0.0068,0.0889,468.26,-386.05,1072.14,7,266,-616
  1512178359,-0.0824,0.0714,0.0948,457.21,-360.05,1151.79,7,266,-616
  1512178359,-0.0667,0.0360,0.0895,484.99,-347.41,1124.94,7,266,-616
  1512178360,-0.0281,0.0096,0.1016,515.20,-347.05,1114.20,-7,252,-616
  1512178360,0.0372,0.0395,0.1017,425.90,-327.33,1148.86,-7,252,-616
  1512178360,0.0439,0.0395,0.1004,480.71,-280.03,1081.24,-7,252,-616
  1512178360,0.0386,0.0370,0.1001,494.32,-308.47,1150.82,-7,252,-616
  1512178360,0.0477,0.0374,0.0956,489.20,-276.31,1115.17,-15,260,-607
  1512178360,0.0280,0.0284,0.1087,508.61,-264.10,1090.88,-15,260,-607
  1512178360,0.0703,0.0261,0.0980,457.21,-254.27,1017.52,-15,260,-607
  1512178360,0.0249,0.0309,0.0943,508.85,-333.98,1064.51,-15,260,-607
  1512178360,-0.0442,0.0546,0.1286,502.26,-390.26,1045.04,-15,260,-607
  1512178360,-0.1672,0.0405,0.0969,518.80,-349.49,1031.68,-7,262,-616
  1512178360,-0.0760,0.0322,0.1087,488.34,-374.57,985.29,-7,262,-616
  1512178360,-0.1395,0.0603,0.1031,467.04,-341.55,1010.93,-7,262,-616
  1512178360,-0.1364,0.0494,0.1020,435.18,-336.18,1090.70,-7,262,-616
  1512178360,-0.0427,0.0127,0.1048,486.63,-341.19,1047.36,-14,262,-622
  1512178360,-0.0562,0.0391,0.1075,538.70,-323.85,1151.86,-14,262,-622
  1512178360,-0.0429,0.0249,0.0995,498.47,-324.10,1094.12,-14,262,-622
  1512178360,-0.0201,0.0065,0.1081,529.48,-319.34,1099.55,-14,262,-622
  1512178360,-0.0306,0.0325,0.1065,460.33,-323.73,1089.05,-14,262,-622
  1512178360,-0.0389,0.0264,0.0992,499.51,-308.29,1073.61,-17,252,-622
  1512178360,-0.0409,0.0248,0.0981,511.90,-351.20,1072.63,-17,252,-622
  1512178360,0.0329,0.0422,0.1037,465.27,-297.30,1105.35,-17,252,-622
  1512178360,-0.0104,0.0012,0.0897,507.57,-322.75,1080.63,-17,252,-622
  1512178360,0.0545,0.0069,0.0995,470.28,-304.08,1139.47,-17,252,-622
  1512178360,0.0326,0.0402,0.0866,509.09,-336.91,1097.11,-19,243,-631
  1512178360,-0.0206,0.0158,0.0961,526.43,-346.44,1096.62,-19,243,-631
  1512178360,-0.0337,0.0668,0.0923,563.78,-351.87,1068.30,-19,243,-631
  1512178360,0.0162,0.0583,0.1083,520.94,-338.68,1147.40,-19,243,-631
  1512178360,-0.0494,0.0330,0.1008,490.05,-304.32,1053.22,-19,243,-631
  1512178360,-0.0136,0.0702,0.1064,493.77,-336.12,1142.40,-19,225,-611
  1512178360,-0.0041,0.0613,0.0965,508.48,-298.58,1048.95,-19,225,-611
  1512178360,0.0008,0.0546,0.1142,514.77,-299.56,1050.05,-19,225,-611
  1512178360,0.0244,0.0294,0.1015,480.35,-308.78,996.70,-19,225,-611
  1512178360,-0.0186,0.0627,0.1080,473.94,-305.91,1067.75,-31,237,-622
  1512178360,-0.0141,0.0329,0.1085,435.55,-300.60,1009.40,-31,237,-622
  1512178360,0.0642,0.0091,0.1160,474.24,-311.46,1147.16,-31,237,-622
  1512178360,0.0597,0.0423,0.1083,484.92,-339.36,1072.20,-31,237,-622
  1512178360,0.0357,0.0116,0.1149,511.84,-351.44,1095.58,-31,237,-622
  1512178360,-0.0394,0.0268,0.1240,516.60,-344.24,1073.18,-35,237,-616
  1512178361,0.0469,0.0406,0.1245,525.70,-320.68,1127.50,-35,237,-616
  1512178361,0.0332,0.0305,0.1273,485.41,-374.88,1113.04,-35,237,-616
  1512178361,0.0071,0.0158,0.1302,508.67,-345.34,1133.85,-35,237,-616
  1512178361,-0.0246,0.0333,0.1284,496.58,-332.64,1105.41,-35,252,-609
  1512178361,0.0075,-0.0071,0.1256,477.60,-343.75,1089.78,-35,252,-609
  1512178361,-0.0186,0.0248,0.1322,509.46,-314.76,1114.26,-35,252,-609
  1512178361,0.0289,0.0150,0.1442,456.54,-341.80,1137.88,-35,252,-609
  1512178361,-0.1182,0.0402,0.1418,534.97,-339.11,1048.77,-35,252,-609
  1512178361,-0.0924,0.0197,0.1374,529.11,-377.01,1149.84,-28,227,-602
  1512178361,-0.1069,0.0473,0.1423,529.48,-331.30,1112.55,-28,227,-602
  1512178361,-0.1240,0.0382,0.1491,438.72,-367.43,1044.62,-28,227,-602
  1512178361,-0.1655,0.0065,0.1495,495.06,-362.37,1067.81,-28,227,-602
  1512178361,-0.1766,0.0743,0.1425,513.18,-389.10,1093.02,-28,227,-602
  1512178361,-0.0427,0.0249,0.1531,418.09,-344.42,1072.14,-21,237,-595
  1512178361,-0.1830,0.0482,0.1637,501.53,-370.36,1007.20,-21,237,-595
  1512178361,-0.1473,0.0477,0.1489,512.51,-332.89,1101.56,-21,237,-595
  1512178361,-0.1007,0.0858,0.1670,519.78,-322.57,1136.23,-21,237,-595
  1512178361,0.0514,0.0593,0.1473,472.35,-343.51,1079.35,-35,220,-595
  1512178361,0.0084,0.0738,0.1523,465.39,-312.19,1175.54,-35,220,-595
  1512178361,0.0683,0.0895,0.1489,441.65,-272.34,1026.55,-35,220,-595
  1512178361,0.1517,0.0635,0.1475,478.09,-262.15,1118.10,-35,220,-595
  1512178361,0.1643,0.0827,0.1438,503.30,-233.64,987.85,-35,220,-595
  1512178361,0.1217,0.0675,0.1461,469.91,-259.77,960.51,-31,216,-602
  1512178361,0.0722,0.0383,0.1450,413.15,-261.29,1050.35,-31,216,-602
  1512178361,0.1232,0.0174,0.1435,462.40,-251.89,1070.50,-31,216,-602
  1512178361,0.1103,0.0011,0.1376,446.29,-260.01,1017.27,-31,216,-602
  1512178361,0.1257,-0.0029,0.1466,448.91,-273.07,1103.88,-31,216,-602
  1512178361,0.0768,0.0132,0.1393,488.65,-297.00,1105.90,-56,220,-622
  1512178361,0.1067,-0.0282,0.1380,496.03,-293.21,1096.80,-56,220,-622
  1512178361,0.1240,0.0250,0.1429,504.27,-265.14,1103.45,-56,220,-622
  1512178361,0.1246,0.0242,0.1423,452.88,-282.65,1123.54,-56,220,-622
  1512178361,0.0490,0.0031,0.1430,520.75,-297.24,1085.45,-47,204,-607
  1512178361,0.1144,0.0389,0.1526,490.23,-250.67,1143.68,-47,204,-607
  1512178361,0.0597,0.0224,0.1519,474.06,-331.48,1069.03,-47,204,-607
  1512178361,-0.0125,0.0423,0.1648,476.99,-304.69,1044.01,-47,204,-607
  1512178361,-0.0092,0.0148,0.1506,448.36,-333.37,1091.67,-47,204,-607
  1512178361,0.0583,0.0333,0.1478,429.32,-315.55,1069.15,-45,213,-612
  1512178361,0.1052,0.0583,0.1394,459.17,-307.56,1089.23,-45,213,-612
  1512178362,0.1043,0.0083,0.1372,450.07,-329.65,1096.50,-45,213,-612
  1512178362,0.1322,0.0513,0.1325,445.98,-305.24,1080.57,-45,213,-612
  1512178362,0.1501,0.0321,0.1326,390.69,-277.65,1129.27,-47,218,-627
  1512178362,0.0656,0.0129,0.1389,439.27,-292.66,1059.27,-47,218,-627
  1512178362,0.1057,0.0402,0.1360,426.33,-297.61,1162.29,-47,218,-627
  1512178362,0.1119,-0.0013,0.1392,413.39,-292.85,1089.17,-47,218,-627
  1512178362,0.0668,0.0348,0.1361,422.12,-302.25,1118.96,-47,218,-627
  1512178362,0.0815,0.0138,0.1397,425.05,-310.30,1103.76,-57,211,-611
  1512178362,0.1189,0.0162,0.1382,446.59,-298.22,1095.46,-57,211,-611
  1512178362,0.1517,0.0250,0.1352,424.68,-288.51,1102.78,-57,211,-611
  1512178362,0.0726,0.0127,0.1349,473.82,-321.66,1013.00,-57,211,-611
  1512178362,0.0386,0.0397,0.1329,466.49,-330.93,1165.71,-57,211,-611
  1512178362,0.0783,0.0127,0.1281,465.76,-322.51,1189.03,-63,202,-609
  1512178362,0.0844,0.0310,0.1258,469.73,-278.63,1126.10,-63,202,-609
  1512178362,0.1004,0.0418,0.1273,433.04,-321.29,1090.33,-63,202,-609
  1512178362,0.0024,0.0212,0.1246,454.28,-334.11,1033.69,-63,202,-609
  1512178362,0.0286,0.0483,0.1300,451.05,-311.77,1132.20,-54,200,-604
  1512178362,0.0481,0.0519,0.1336,427.98,-293.33,1073.12,-54,200,-604
  1512178362,0.0814,0.0435,0.1350,443.54,-265.44,1050.17,-54,200,-604
  1512178362,0.0613,0.0684,0.1411,397.71,-290.77,1042.54,-54,200,-604
  1512178362,0.0546,0.0475,0.1380,419.01,-303.34,1058.41,-54,200,-604
  1512178362,0.0434,0.0274,0.1377,424.93,-313.11,1091.13,-54,197,-600
  1512178362,0.0617,0.0447,0.1321,401.55,-298.89,1057.25,-54,197,-600
  1512178362,0.0622,0.0482,0.1296,409.06,-307.62,1067.81,-54,197,-600
  1512178362,0.0417,0.0003,0.1280,420.47,-331.36,1094.73,-54,197,-600
  1512178362,0.0358,0.0441,0.1198,434.45,-333.74,1133.61,-54,197,-600
  1512178362,0.0625,0.0350,0.1290,437.81,-350.59,1111.02,-70,202,-592
  1512178362,-0.0145,0.0435,0.1320,443.48,-336.49,1047.42,-70,202,-592
  1512178362,0.0521,0.0250,0.1385,416.38,-335.88,1122.68,-70,202,-592
  1512178362,0.0514,0.0389,0.1446,405.76,-344.60,1044.07,-70,202,-592
  1512178362,0.0870,0.0441,0.1470,409.24,-310.73,1135.99,-61,186,-614
  1512178362,0.0124,0.0249,0.1499,396.85,-352.91,1025.27,-61,186,-614
  1512178362,0.0639,0.0370,0.1519,450.20,-318.91,1123.17,-61,186,-614
  1512178362,0.1328,0.0461,0.1477,399.05,-336.06,1108.64,-61,186,-614
  1512178362,0.0694,0.0272,0.1447,418.76,-325.20,1101.87,-61,186,-614
  1512178362,0.1233,0.0273,0.1425,446.29,-317.02,1141.42,-61,193,-600
  1512178362,0.0598,0.0429,0.1447,419.98,-327.94,1077.45,-61,193,-600
  1512178362,0.0233,0.0399,0.1409,420.35,-334.17,1102.29,-61,193,-600
  1512178363,0.0442,0.0413,0.1402,407.35,-326.97,1121.89,-61,193,-600
  1512178363,0.0585,0.0365,0.1370,411.50,-293.76,1128.54,-61,193,-600
  1512178363,0.0495,0.0308,0.1434,430.73,-337.71,1097.53,-59,192,-602
  1512178363,0.0003,0.0362,0.1438,409.79,-336.36,1089.05,-59,192,-602
  1512178363,0.0294,0.0579,0.1458,439.15,-319.70,1117.07,-59,192,-602
  1512178363,-0.0189,0.0445,0.1422,437.13,-362.30,1112.98,-59,192,-602
  1512178363,-0.0099,0.0466,0.1463,424.74,-348.21,1138.18,-84,192,-595
  1512178363,0.0245,0.0324,0.1458,413.82,-355.65,1069.52,-84,192,-595
  1512178363,-0.0473,0.0459,0.1473,414.06,-353.58,1059.39,-84,192,-595
  1512178363,-0.0048,0.0353,0.1482,420.47,-327.27,1070.43,-84,192,-595
  1512178363,-0.0300,0.0402,0.1454,381.10,-345.21,1033.33,-84,192,-595
  1512178363,-0.0125,0.0550,0.1471,400.70,-337.77,1103.03,-75,176,-580
  1512178363,-0.0190,0.0280,0.1445,389.47,-331.73,1055.66,-75,176,-580
  1512178363,-0.0217,0.0330,0.1506,399.29,-342.41,1116.70,-75,176,-580
  1512178363,-0.0511,0.0511,0.1422,406.13,-349.98,1084.47,-75,176,-580
  1512178363,-0.0722,0.0435,0.1422,380.92,-392.21,1122.86,-75,176,-580
  1512178363,-0.0069,0.0220,0.1380,406.01,-376.04,1084.05,-75,176,-587
  1512178363,-0.0216,0.0394,0.1389,385.99,-401.49,1074.89,-75,176,-587
  1512178363,-0.0557,0.0479,0.1399,364.32,-420.78,1072.57,-75,176,-587
  1512178363,0.0256,0.0232,0.1431,351.62,-383.91,1032.65,-75,176,-587
  1512178363,-0.0189,0.0268,0.1465,328.12,-393.80,1110.11,-82,190,-594
  1512178363,-0.0397,0.0246,0.1481,330.02,-379.39,1067.81,-82,190,-594
  1512178363,-0.0390,0.0065,0.1521,321.04,-395.32,1058.35,-82,190,-594
  1512178363,-0.0096,0.0270,0.1513,349.85,-405.58,1074.28,-82,190,-594
  1512178363,-0.0138,0.0208,0.1479,367.74,-404.66,1095.15,-82,190,-594
  1512178363,0.0043,-0.0088,0.1503,337.22,-378.78,1120.97,-63,163,-595
  1512178363,0.0401,0.0158,0.1431,354.61,-369.08,1102.05,-63,163,-595
  1512178363,0.0465,0.0064,0.1437,354.80,-355.83,1091.74,-63,163,-595
  1512178363,0.0997,0.0041,0.1429,385.93,-355.04,1081.12,-63,163,-595
  1512178363,0.1060,0.0212,0.1405,365.54,-377.75,1090.39,-73,178,-568
  1512178363,0.1158,0.0041,0.1425,385.19,-357.18,1108.58,-73,178,-568
  1512178363,0.1482,0.0166,0.1426,361.69,-356.87,1118.41,-73,178,-568
  1512178363,0.1003,0.0252,0.1441,377.87,-341.67,1075.81,-73,178,-568
  1512178363,0.1099,0.0305,0.1462,357.54,-356.14,1109.01,-73,178,-568
  1512178363,0.0212,0.0150,0.1495,353.09,-366.94,1103.82,-63,156,-595
  1512178363,0.0727,0.0510,0.1530,403.69,-346.25,1166.56,-63,156,-595
  1512178363,0.1088,0.0434,0.1509,370.18,-349.67,1119.69,-63,156,-595
  1512178364,0.0296,0.0305,0.1513,368.35,-358.28,1099.24,-63,156,-595
  1512178364,0.0380,0.0352,0.1473,371.15,-351.56,1093.69,-63,156,-595
  1512178364,0.0316,0.0292,0.1474,339.97,-356.81,1086.91,-82,169,-587
  1512178364,0.0555,0.0296,0.1431,371.83,-365.05,1117.61,-82,169,-587
  1512178364,0.0350,0.0380,0.1479,345.34,-363.16,1120.61,-82,169,-587
  1512178364,-0.0245,0.0369,0.1498,344.42,-365.78,1076.78,-82,169,-587
  1512178364,0.0254,0.0011,0.1497,364.50,-382.32,1128.48,-72,162,-590
  1512178364,-0.0073,0.0068,0.1517,359.25,-383.36,1070.07,-72,162,-590
  1512178364,-0.0181,0.0374,0.1519,343.63,-387.02,1047.67,-72,162,-590
  1512178364,-0.0330,0.0174,0.1525,344.48,-393.31,1054.93,-72,162,-590
  1512178364,-0.0170,0.0362,0.1557,348.14,-411.74,1083.86,-72,162,-590
  1512178364,0.0289,0.0574,0.1574,364.56,-409.18,1140.99,-89,155,-604
  1512178364,-0.0041,0.0494,0.1609,321.84,-428.47,1075.81,-89,155,-604
  1512178364,0.0057,0.0410,0.1517,350.83,-405.15,1105.83,-89,155,-604
  1512178364,-0.0172,0.0756,0.1566,311.34,-412.96,1065.12,-89,155,-604
  1512178364,-0.0374,0.0571,0.1601,317.44,-419.98,1109.86,-89,155,-604
  1512178364,-0.0407,0.0434,0.1603,340.58,-421.33,1100.40,-73,160,-599
  1512178364,0.0505,0.0449,0.1678,295.65,-406.92,1128.30,-73,160,-599
  1512178364,0.0071,0.0246,0.1690,276.18,-436.22,1066.10,-73,160,-599
  1512178364,-0.0061,0.0320,0.1683,273.86,-412.72,1124.82,-73,160,-599
  1512178364,0.0550,0.0277,0.1712,315.37,-454.22,1132.81,-77,146,-592
  1512178364,0.0172,0.0284,0.1746,259.16,-437.32,1096.44,-77,146,-592
  1512178364,-0.0232,0.0190,0.1708,289.92,-463.99,1081.12,-77,146,-592
  1512178364,0.0248,0.0446,0.1712,304.32,-481.32,1080.75,-77,146,-592
  1512178364,0.0182,0.0907,0.1747,285.77,-481.20,1116.03,-77,146,-592
  1512178364,0.0374,0.0446,0.1723,305.05,-485.05,1078.92,-75,148,-594
  1512178364,-0.0352,0.0842,0.1831,325.01,-470.76,1118.41,-75,148,-594
  1512178364,-0.0146,0.0594,0.1835,286.50,-461.67,1049.19,-75,148,-594
  1512178364,-0.0146,0.0574,0.1911,276.18,-476.01,1144.96,-75,148,-594
  1512178364,-0.0192,0.0591,0.1838,290.71,-471.19,1044.80,-68,151,-580
  1512178364,0.0040,0.0465,0.1899,267.40,-485.66,1129.70,-68,151,-580
  1512178364,0.0023,0.0521,0.1888,272.83,-454.16,1077.45,-68,151,-580
  1512178364,0.0213,0.0490,0.1905,263.49,-469.60,1097.66,-68,151,-580
  1512178364,0.0088,0.0280,0.1879,237.00,-473.51,1075.44,-68,151,-580
  1512178364,-0.0209,0.0461,0.1912,279.97,-438.48,1090.27,-59,153,-592
  1512178364,0.0613,0.0285,0.1935,271.48,-443.91,1115.05,-59,153,-592
  1512178364,0.0441,0.0257,0.1971,279.05,-506.23,1093.32,-59,153,-592
  1512178364,-0.0364,0.0437,0.1989,295.10,-511.41,1049.07,-59,153,-592
  1512178365,-0.0558,0.0471,0.2072,310.85,-555.97,1110.41,-59,153,-592
  1512178365,-0.0313,0.0300,0.2124,291.08,-556.27,1082.64,-72,162,-604
  1512178365,-0.1285,0.0626,0.2128,279.30,-510.19,1084.05,-72,162,-604
  1512178365,-0.0786,0.0486,0.2044,307.07,-497.68,1106.08,-72,162,-604
  1512178365,-0.0535,0.0293,0.2143,267.15,-486.76,1107.24,-72,162,-604
  1512178365,0.0121,0.0414,0.2069,300.35,-473.63,1093.81,-75,141,-600
  1512178365,0.0261,0.0141,0.2125,228.94,-487.92,1122.80,-75,141,-600
  1512178365,0.0153,0.0184,0.2144,262.70,-447.27,1059.94,-75,141,-600
  1512178365,0.0866,0.0121,0.2097,270.57,-474.24,1144.84,-75,141,-600
  1512178365,0.0933,0.0100,0.2200,306.82,-467.59,1099.24,-75,141,-600
  1512178365,0.0730,0.0196,0.2233,263.00,-477.54,1090.45,-68,144,-600
  1512178365,0.0932,0.0055,0.2205,307.31,-474.73,1094.48,-68,144,-600
  1512178365,0.1479,0.0260,0.2212,282.84,-490.17,1147.40,-68,144,-600
  1512178365,0.1027,0.0071,0.2162,281.37,-484.62,1124.51,-68,144,-600
  1512178365,0.0980,0.0205,0.2228,362.43,-505.74,1089.90,-68,144,-600
  1512178365,0.0336,0.0446,0.2147,341.25,-514.83,1141.97,-73,135,-592
  1512178365,0.0274,0.0304,0.2200,273.07,-486.76,1043.70,-73,135,-592
  1512178365,0.0149,0.0578,0.2196,277.34,-495.91,1103.76,-73,135,-592
  1512178365,0.0124,0.0534,0.2192,304.32,-468.81,1096.44,-73,135,-592
  1512178365,0.0080,0.0399,0.2213,293.58,-502.87,1082.34,-73,121,-592
  1512178365,0.0091,0.0486,0.2189,289.06,-484.86,1099.55,-73,121,-592
  1512178365,0.0306,0.0320,0.2210,262.33,-500.12,1129.46,-73,121,-592
  1512178365,0.0961,0.0498,0.2218,326.54,-475.10,1089.84,-73,121,-592
  1512178365,0.1224,0.0209,0.2148,277.77,-470.70,1135.25,-73,121,-592
  1512178365,0.0838,0.0415,0.2154,292.36,-496.15,1130.98,-75,133,-600
  1512178365,0.0411,0.0373,0.2072,309.63,-472.47,1069.15,-75,133,-600
  1512178365,-0.0087,0.0423,0.2131,267.58,-458.31,1068.05,-75,133,-600
  1512178365,0.0302,0.0289,0.2131,252.56,-454.53,1105.41,-75,133,-600
  1512178365,0.0565,0.0184,0.2120,276.61,-471.31,1078.06,-66,135,-605
  1512178365,0.1261,0.0330,0.2136,297.24,-483.15,1104.55,-66,135,-605
  1512178365,0.0535,0.0285,0.2100,317.26,-472.29,1116.94,-66,135,-605
  1512178365,0.0815,0.0341,0.2133,350.22,-496.52,1096.19,-66,135,-605
  1512178365,0.1040,0.0457,0.2044,322.14,-466.00,1087.71,-66,135,-605
  1512178365,0.1057,0.0236,0.2051,302.67,-472.90,1131.41,-66,132,-599
  1512178365,0.0924,0.0328,0.2064,306.82,-453.61,1052.86,-66,132,-599
  1512178365,0.0988,0.0308,0.2032,300.96,-485.72,1128.85,-66,132,-599
  1512178365,0.1069,0.0281,0.2031,343.38,-485.35,1084.05,-66,132,-599
  1512178365,0.1435,0.0186,0.2000,308.53,-448.06,1100.34,-66,132,-599
  1512178366,0.1851,0.0045,0.1937,291.93,-437.38,1103.03,-65,119,-587
  1512178366,0.1261,0.0244,0.1856,272.64,-422.73,1110.23,-65,119,-587
  1512178366,0.1150,0.0077,0.1784,281.13,-452.64,1102.72,-65,119,-587
  1512178366,0.0752,0.0052,0.1883,254.94,-438.72,1116.58,-65,119,-587
  1512178366,0.0767,0.0075,0.1822,253.11,-431.40,1081.05,-66,121,-585
  1512178366,0.0838,0.0317,0.1831,329.71,-465.33,1149.66,-66,121,-585
  1512178366,0.0941,0.0189,0.1831,309.20,-481.69,1021.42,-66,121,-585
  1512178366,0.0897,0.0089,0.1776,328.12,-496.70,1115.91,-66,121,-585
  1512178366,0.1039,0.0305,0.1815,316.89,-451.23,1091.92,-66,121,-585
  1512178366,0.0763,0.0201,0.1786,320.80,-490.30,1064.33,-52,86,-592
  1512178366,0.1285,-0.0079,0.1703,284.42,-460.33,1104.74,-52,86,-592
  1512178366,0.0523,0.0360,0.1678,288.09,-414.12,1104.19,-52,86,-592
  1512178366,0.0206,0.0097,0.1641,340.27,-442.81,1136.96,-52,86,-592
  1512178366,0.0605,-0.0077,0.1566,360.35,-423.58,1098.88,-61,105,-597
  1512178366,0.0490,-0.0095,0.1509,320.25,-397.52,1124.82,-61,105,-597
  1512178366,0.0724,-0.0158,0.1531,325.13,-404.24,1140.20,-61,105,-597
  1512178366,0.0971,0.0049,0.1579,312.56,-393.55,1086.06,-61,105,-597
  1512178366,0.0446,0.0121,0.1453,370.06,-433.96,1139.89,-61,105,-597
  1512178366,0.0401,-0.0340,0.1513,355.04,-461.30,1012.15,-45,100,-609
  1512178366,0.0060,0.0466,0.1429,367.31,-460.69,1067.75,-45,100,-609
  1512178366,0.0417,0.0324,0.1417,333.13,-438.90,1072.39,-45,100,-609
  1512178366,-0.0317,0.0442,0.1501,352.84,-457.09,1029.17,-45,100,-609
  1512178366,-0.0559,0.0695,0.1326,369.08,-481.45,1113.28,-45,100,-609
  1512178366,-0.0228,0.0598,0.1378,368.29,-410.03,1168.15,-72,95,-600
  1512178366,-0.1012,0.0261,0.1272,450.38,-385.86,1071.90,-72,95,-600
  1512178366,0.0053,-0.0189,0.1269,425.66,-381.16,1105.96,-72,95,-600
  1512178366,0.0332,0.1040,0.1344,447.45,-416.44,1071.59,-72,95,-600
  1512178366,0.0774,0.0341,0.1302,433.53,-445.74,1047.67,-49,86,-589
  1512178366,0.0200,0.0170,0.1322,331.79,-417.24,1077.21,-49,86,-589
  1512178366,0.0882,-0.0084,0.1318,318.97,-353.94,1104.92,-49,86,-589
  1512178366,0.0489,0.0321,0.1337,390.75,-365.78,1206.48,-49,86,-589
  1512178366,-0.0904,-0.0382,0.1310,353.15,-402.77,1092.83,-49,86,-589
  1512178366,0.0310,-0.0134,0.1329,414.92,-386.05,1122.38,-45,96,-599
  1512178366,0.0694,-0.0111,0.1228,357.24,-454.59,1046.75,-45,96,-599
  1512178366,0.0029,0.0085,0.1185,426.51,-452.82,1001.65,-45,96,-599
  1512178366,0.0567,0.0238,0.1202,429.32,-404.30,1084.11,-45,96,-599
  1512178366,0.0258,0.0245,0.1157,413.51,-401.61,1134.34,-45,96,-599
  1512178367,-0.0099,-0.0153,0.1178,365.54,-371.03,1075.44,-49,89,-599
  1512178367,0.1437,0.0198,0.1264,397.22,-367.80,1135.07,-49,89,-599
  1512178367,0.1679,0.0553,0.1180,381.84,-394.23,1088.38,-49,89,-599
  1512178367,0.1029,0.0007,0.1232,474.91,-395.32,1119.14,-49,89,-599
  1512178367,0.0802,0.0433,0.1325,450.26,-358.15,1146.97,-40,77,-607
  1512178367,0.0493,-0.0125,0.1268,465.64,-421.94,1042.85,-40,77,-607
  1512178367,-0.0427,0.0099,0.1242,474.30,-436.40,1050.54,-40,77,-607
  1512178367,0.0376,0.0395,0.1204,454.96,-419.56,950.62,-40,77,-607
  1512178367,-0.0049,0.1169,0.1349,397.16,-454.28,1143.49,-40,77,-607
  1512178367,-0.1645,0.0682,0.1217,384.40,-416.69,975.89,-43,81,-624
  1512178367,-0.0738,-0.0162,0.1260,454.28,-398.32,1098.39,-43,81,-624
  1512178367,-0.0314,0.0771,0.1280,445.62,-407.84,1134.52,-43,81,-624
  1512178367,-0.0401,0.0112,0.1284,415.34,-404.91,1128.54,-43,81,-624
  1512178367,-0.0656,-0.0380,0.1312,440.67,-419.56,1056.21,-45,68,-605
  1512178367,0.0515,0.0445,0.1386,426.94,-414.92,1095.28,-45,68,-605
  1512178367,0.0441,0.0308,0.1342,464.84,-452.58,1066.65,-45,68,-605
  1512178367,0.0597,-0.0149,0.1513,454.90,-376.71,1194.21,-45,68,-605
  1512178367,0.0771,0.0482,0.1499,466.43,-410.03,1129.94,-45,68,-605
  1512178367,0.1048,0.0084,0.1502,469.67,-360.60,1156.43,-47,66,-600
  1512178367,0.1466,0.0250,0.1539,510.44,-393.01,1112.67,-47,66,-600
  1512178367,0.1959,0.0242,0.1362,542.97,-438.48,1019.47,-47,66,-600
  1512178367,0.1647,0.0439,0.1522,481.32,-394.78,1123.47,-47,66,-600
  1512178367,0.0901,0.0553,0.1447,446.84,-370.00,1062.38,-47,66,-600
  1512178367,0.0623,0.0029,0.1430,445.86,-364.93,1102.48,-40,63,-587
  1512178367,0.0880,0.0545,0.1626,512.21,-376.34,1104.43,-40,63,-587
  1512178367,0.0917,0.0453,0.1507,463.87,-361.08,1100.22,-40,63,-587
  1512178367,0.0718,0.0298,0.1610,479.00,-382.02,1050.78,-40,63,-587
  1512178367,0.1079,0.0334,0.1569,447.88,-347.41,1098.63,-45,51,-602
  1512178367,0.0891,0.0178,0.1581,516.11,-386.54,1070.86,-45,51,-602
  1512178367,0.1085,0.0474,0.1637,530.40,-369.20,1136.29,-45,51,-602
  1512178367,0.1306,0.0602,0.1626,469.79,-339.11,1103.21,-45,51,-602
  1512178367,0.1409,-0.0356,0.1712,464.78,-343.02,1120.79,-45,51,-602
  1512178367,0.1056,0.0474,0.1638,513.37,-370.24,1134.52,-47,77,-611
  1512178367,0.0593,0.0499,0.1747,481.57,-383.24,1125.85,-47,77,-611
  1512178367,0.0190,-0.0170,0.1715,471.80,-398.50,1092.83,-47,77,-611
  1512178367,-0.0009,0.0133,0.1698,518.80,-409.30,1155.82,-47,77,-611
  1512178367,0.0414,-0.0065,0.1758,461.85,-397.03,894.47,-47,77,-611
  1512178367,0.0129,0.0369,0.1641,487.12,-365.11,1057.25,-40,52,-597
  1512178368,0.0150,0.0627,0.1810,538.33,-395.39,972.17,-40,52,-597
  1512178368,-0.0081,0.0656,0.1863,479.68,-411.68,1136.54,-40,52,-597
  1512178368,0.0017,0.0377,0.1936,469.06,-443.48,1108.58,-40,52,-597
  1512178368,0.0289,0.0438,0.2044,548.77,-447.57,1044.80,-47,49,-607
  1512178368,0.0376,0.1053,0.1904,567.87,-465.15,1145.26,-47,49,-607
  1512178368,-0.0137,0.0257,0.1780,561.40,-420.17,1048.52,-47,49,-607
  1512178368,-0.0214,0.0414,0.1878,495.61,-336.00,1172.06,-47,49,-607
  1512178368,0.0609,0.0212,0.1795,468.38,-315.00,1058.29,-47,49,-607
  1512178368,0.0539,0.0374,0.2028,460.69,-301.76,1122.74,-42,19,-622
  1512178368,0.0824,0.0300,0.1858,464.23,-374.02,1072.33,-42,19,-622
  1512178368,0.0202,0.0001,0.2212,513.06,-416.32,1051.27,-42,19,-622
  1512178368,0.0112,0.0290,0.2063,495.67,-421.33,975.46,-42,19,-622
  1512178368,0.1467,-0.0124,0.2173,527.10,-398.68,1159.18,-42,19,-622
  1512178368,0.0381,-0.0320,0.2277,513.00,-372.74,994.20,-56,22,-626
  1512178368,0.0565,-0.0522,0.2370,567.57,-416.38,1081.91,-56,22,-626
  1512178368,0.1174,0.0162,0.2411,528.32,-393.07,1075.81,-56,22,-626
  1512178368,0.0633,-0.0317,0.2558,579.53,-415.04,1119.69,-56,22,-626
  1512178368,0.0514,-0.0262,0.2591,534.79,-489.26,1117.61,-43,35,-604
  1512178368,-0.0003,0.0115,0.2622,531.92,-494.87,1067.75,-43,35,-604
  1512178368,-0.0277,-0.0154,0.2703,568.66,-458.62,1033.39,-43,35,-604
  1512178368,-0.0166,0.0376,0.2674,590.15,-474.24,1102.91,-43,35,-604
  1512178368,0.0651,0.0478,0.2559,632.57,-559.27,1041.38,-43,35,-604
  1512178368,0.0252,0.0876,0.2718,543.21,-425.72,1197.81,-45,-1,-616
  1512178368,-0.0229,0.0939,0.2578,565.43,-403.02,1132.87,-45,-1,-616
  1512178368,0.1344,-0.0766,0.2766,538.09,-336.18,1041.75,-45,-1,-616
  1512178368,0.2312,0.0807,0.2723,562.32,-399.96,1301.82,-45,-1,-616
  1512178368,0.2356,0.0205,0.2643,486.21,-306.21,1064.70,-42,12,-605
  1512178368,0.1847,-0.0545,0.2835,546.08,-364.56,1335.27,-42,12,-605
  1512178368,0.2023,-0.0162,0.2810,551.82,-410.89,953.86,-42,12,-605
  1512178368,0.2442,0.0095,0.2823,549.99,-389.83,1140.32,-42,12,-605
  1512178368,0.1182,0.0250,0.2919,466.37,-356.08,904.66,-42,12,-605
  1512178368,0.2105,-0.0093,0.2959,536.50,-368.59,1119.63,-36,3,-600
  1512178368,0.2140,0.0605,0.2960,503.42,-404.97,1052.55,-36,3,-600
  1512178368,0.2578,0.0053,0.3084,576.97,-375.31,1180.73,-36,3,-600
  1512178368,0.1372,-0.0044,0.3157,559.20,-437.99,1080.38,-36,3,-600
  1512178368,0.0830,0.0169,0.3182,591.61,-408.14,1170.78,-36,3,-600
  1512178368,0.0799,0.0160,0.3193,597.66,-450.62,1086.24,-35,-8,-616
  1512178368,0.1354,-0.0117,0.3196,624.15,-468.87,1142.88,-35,-8,-616
  1512178369,0.0517,0.0226,0.3148,605.90,-535.40,1125.67,-35,-8,-616
  1512178369,0.0150,0.0313,0.3240,575.56,-452.51,1111.82,-35,-8,-616
  1512178369,-0.0956,0.0200,0.3249,543.88,-445.01,1153.93,-24,-12,-612
  1512178369,-0.0225,-0.0342,0.3321,567.93,-421.87,917.48,-24,-12,-612
  1512178369,0.0172,0.0266,0.3446,521.67,-422.18,1260.38,-24,-12,-612
  1512178369,-0.0766,0.0197,0.3301,541.14,-495.48,952.58,-24,-12,-612
  1512178369,0.0333,0.0615,0.3566,572.27,-465.88,1253.05,-24,-12,-612
  1512178369,-0.0534,0.1250,0.3498,536.01,-454.71,1115.48,-26,-14,-621
  1512178369,-0.1128,-0.0095,0.3465,590.52,-467.77,1159.73,-26,-14,-621
  1512178369,-0.1254,0.0903,0.3535,542.60,-486.69,1109.99,-26,-14,-621
  1512178369,0.0971,0.0353,0.3475,545.47,-424.19,1064.94,-26,-14,-621
  1512178369,-0.0130,-0.0505,0.3543,503.85,-464.60,1031.62,-26,-14,-621
  1512178369,0.0284,0.0455,0.3626,473.21,-451.29,1064.45,-10,-22,-612
  1512178369,0.2174,0.0164,0.3618,505.37,-421.57,959.35,-10,-22,-612
  1512178369,0.1953,-0.0084,0.3627,558.65,-518.98,1061.58,-10,-22,-612
  1512178369,0.1571,0.0997,0.3618,583.80,-435.42,1048.10,-10,-22,-612
  1512178369,0.1967,0.0140,0.3700,645.63,-472.41,1120.42,14,-12,-612
  1512178369,0.1072,-0.0329,0.3756,581.12,-540.83,1118.65,14,-12,-612
  1512178369,0.0142,0.1278,0.3732,633.54,-512.02,1208.19,14,-12,-612
  1512178369,0.1706,-0.0348,0.3878,540.22,-464.48,1162.78,14,-12,-612
  1512178369,0.0240,0.0234,0.3960,622.74,-510.56,1147.22,14,-12,-612
  1512178369,0.0988,0.0582,0.3810,584.05,-465.82,1038.45,1,-45,-611
  1512178369,0.1523,0.0566,0.3824,622.86,-478.09,1215.58,1,-45,-611
  1512178369,0.2823,0.0968,0.3995,554.93,-422.79,1222.78,1,-45,-611
  1512178369,0.0766,0.0364,0.3850,635.13,-474.55,1175.48,1,-45,-611
  1512178369,0.1666,0.0774,0.4077,578.06,-438.78,1166.26,12,-35,-631
  1512178369,0.1762,0.1362,0.3810,562.01,-500.55,1245.30,12,-35,-631
  1512178369,0.2635,-0.0111,0.3864,567.93,-445.86,1104.92,12,-35,-631
  1512178369,0.2766,0.0478,0.3915,564.21,-434.88,1062.32,12,-35,-631
  1512178369,0.2045,0.1210,0.3910,553.41,-507.69,1051.27,12,-35,-631
  1512178369,-0.0039,0.0525,0.4056,561.52,-455.20,951.78,21,-44,-605
  1512178369,0.0932,0.0257,0.4085,496.77,-418.33,1072.81,21,-44,-605
  1512178369,0.0621,0.0795,0.4044,531.31,-466.25,1041.50,21,-44,-605
  1512178369,0.0491,0.0019,0.4168,486.27,-435.55,1071.47,21,-44,-605
  1512178369,0.0636,0.0356,0.4167,476.20,-446.11,1150.57,21,-44,-605
  1512178369,0.1209,0.0206,0.4217,485.47,-361.15,994.02,28,-58,-605
  1512178369,0.1772,0.0016,0.4083,590.88,-476.75,1127.44,28,-58,-605
  1512178369,0.2404,0.0461,0.3952,592.53,-508.54,1099.55,28,-58,-605
  1512178370,0.2374,0.0020,0.4048,607.12,-476.01,1208.92,28,-58,-605
  1512178370,0.1477,0.0321,0.4171,578.06,-446.90,1045.72,54,-45,-600
  1512178370,0.1149,0.0152,0.4248,567.69,-478.64,1124.51,54,-45,-600
  1512178370,0.0398,0.0509,0.4127,567.08,-459.05,1118.35,54,-45,-600
  1512178370,0.0495,-0.0025,0.4266,552.43,-483.28,1069.64,54,-45,-600
  1512178370,0.0047,0.0506,0.4201,564.51,-518.92,1070.56,54,-45,-600
  1512178370,-0.0168,0.0208,0.4214,562.01,-518.07,1124.08,38,-47,-622
  1512178370,-0.0121,0.0202,0.4229,601.26,-524.05,1050.96,38,-47,-622
  1512178370,0.0100,0.0293,0.4205,582.58,-521.00,1090.94,38,-47,-622
  1512178370,0.0332,0.0457,0.4254,554.50,-478.52,1073.00,38,-47,-622
  1512178370,0.0473,0.0329,0.4256,565.37,-504.88,1151.79,38,-47,-622
  1512178370,0.0864,0.0027,0.4389,584.84,-429.87,1087.16,49,-65,-622
  1512178370,0.1533,0.0802,0.4304,581.54,-487.30,1161.50,49,-65,-622
  1512178370,0.1268,-0.0389,0.4210,409.48,-409.18,947.75,49,-65,-622
  1512178370,0.2933,0.0497,0.4405,479.61,-374.63,1178.04,49,-65,-622
  1512178370,0.2609,0.0166,0.4132,566.83,-446.04,983.09,59,-68,-605
  1512178370,0.1815,-0.0449,0.4362,477.48,-393.37,1106.93,59,-68,-605
  1512178370,0.0783,0.0545,0.4228,520.75,-528.56,1005.00,59,-68,-605
  1512178370,0.0238,0.0095,0.4246,534.97,-430.91,1079.65,59,-68,-605
  1512178370,0.2734,-0.0329,0.4221,568.48,-425.78,1067.81,59,-68,-605
  1512178370,0.2085,0.0100,0.4124,521.18,-426.09,1076.29,72,-77,-621
  1512178370,0.1073,-0.0130,0.4200,541.26,-482.67,1061.22,72,-77,-621
  1512178370,0.1354,0.0522,0.4149,559.02,-467.90,1148.13,72,-77,-621
  1512178370,0.0826,0.0328,0.4218,593.57,-467.10,1085.57,72,-77,-621
  1512178370,0.0084,0.0280,0.4221,566.77,-466.86,1068.42,72,-77,-621
  1512178370,-0.0016,0.0767,0.4143,575.99,-514.83,1138.98,77,-75,-612
  1512178370,-0.0344,0.0419,0.4202,505.43,-433.11,1083.44,77,-75,-612
  1512178370,-0.0330,0.0286,0.4140,522.03,-413.45,1098.94,77,-75,-612
  1512178370,-0.0268,0.0695,0.4176,525.82,-454.22,1086.61,77,-75,-612
  1512178370,0.0248,0.0205,0.4133,564.45,-421.87,1166.14,87,-82,-622
  1512178370,0.1214,0.0178,0.4093,519.78,-415.04,1114.75,87,-82,-622
  1512178370,0.0895,0.0615,0.4125,509.52,-413.70,1099.67,87,-82,-622
  1512178370,0.0602,0.0322,0.4079,511.96,-438.05,1037.96,87,-82,-622
  1512178370,0.0656,0.0352,0.4037,610.84,-468.26,1185.67,87,-82,-622
  1512178370,0.0193,0.0627,0.4059,639.53,-482.30,1038.70,101,-86,-616
  1512178370,-0.1386,0.0615,0.4024,602.29,-464.84,1152.28,101,-86,-616
  1512178370,-0.0882,0.0383,0.4027,555.97,-446.41,1042.54,101,-86,-616
  1512178371,-0.1791,0.0752,0.4089,524.35,-475.71,1116.09,101,-86,-616
  1512178371,-0.1491,0.0413,0.3985,494.02,-487.85,1041.02,105,-75,-616
  1512178371,-0.1535,0.0334,0.4065,607.12,-484.92,1067.87,105,-75,-616
  1512178371,-0.1356,0.0549,0.4096,546.02,-460.94,1038.57,105,-75,-616
  1512178371,-0.1629,0.0664,0.4067,551.09,-482.48,1027.28,105,-75,-616
  1512178371,-0.0161,0.0128,0.4079,596.80,-484.92,1097.05,105,-75,-616
  1512178371,-0.0509,0.0636,0.3981,576.17,-446.17,1054.14,121,-84,-611
  1512178371,0.0105,0.0362,0.3987,576.72,-441.35,1138.12,121,-84,-611
  1512178371,0.0748,0.0186,0.4000,563.90,-388.98,1120.42,121,-84,-611
  1512178371,0.2008,0.0330,0.3945,565.19,-384.16,1100.59,121,-84,-611
  1512178371,0.2649,0.0174,0.3859,573.36,-360.41,1138.06,121,-84,-611
  1512178371,0.3262,0.0101,0.3859,549.87,-362.49,1081.85,117,-88,-617
  1512178371,0.2992,0.0217,0.3851,586.55,-351.56,1162.35,117,-88,-617
  1512178371,0.2831,0.0233,0.3887,623.47,-369.75,1170.29,117,-88,-617
  1512178371,0.2213,0.0233,0.3867,594.73,-389.83,1123.05,117,-88,-617
  1512178371,0.1795,0.0397,0.3899,647.95,-440.00,1175.90,128,-88,-614
  1512178371,-0.0060,0.0510,0.3820,628.48,-476.99,1121.52,128,-88,-614
  1512178371,0.0318,0.0445,0.3915,627.14,-364.01,1099.79,128,-88,-614
  1512178371,0.0545,0.0690,0.3739,627.50,-421.02,1113.59,128,-88,-614
  1512178371,-0.0329,0.0446,0.3714,605.53,-398.86,1083.80,128,-88,-614
  1512178371,0.0522,0.0354,0.3731,575.74,-413.57,1091.61,147,-100,-602
  1512178371,0.0301,0.0438,0.3642,594.18,-401.61,1092.96,147,-100,-602
  1512178371,0.0531,0.0625,0.3723,548.28,-365.42,1069.46,147,-100,-602
  1512178371,0.0692,-0.0047,0.3751,489.38,-335.63,1026.49,147,-100,-602
  1512178371,-0.0277,0.0691,0.3676,526.00,-402.95,1087.71,147,-100,-602
  1512178371,0.1282,0.0134,0.3704,514.53,-360.47,1068.60,145,-102,-617
  1512178371,0.0642,0.0250,0.3653,585.82,-435.85,1099.67,145,-102,-617
  1512178371,-0.0385,0.1063,0.3763,624.15,-436.77,1040.41,145,-102,-617
  1512178371,0.0971,0.0265,0.3647,555.05,-403.75,1073.61,145,-102,-617
  1512178371,-0.0169,0.0597,0.3731,530.09,-394.41,1067.38,163,-95,-621
  1512178371,0.0373,0.0419,0.3594,565.73,-336.43,1113.10,163,-95,-621
  1512178371,0.0601,0.0603,0.3643,589.42,-401.55,1114.07,163,-95,-621
  1512178371,-0.0852,0.0535,0.3736,621.40,-429.69,1013.43,163,-95,-621
  1512178371,0.0089,0.0547,0.3390,665.71,-452.33,1232.97,163,-95,-621
  1512178371,-0.1380,0.0804,0.3622,506.04,-397.77,1081.05,168,-93,-592
  1512178371,-0.0350,0.0322,0.3738,524.29,-359.62,1140.63,168,-93,-592
  1512178371,0.1866,0.0391,0.3304,620.97,-282.47,1140.50,168,-93,-592
  1512178371,0.2615,0.0344,0.3501,568.48,-311.52,1130.86,168,-93,-592
  1512178372,0.2127,0.0306,0.3450,571.23,-340.15,1149.29,168,-93,-592
  1512178372,0.0912,0.0418,0.3574,590.76,-278.44,1151.79,165,-86,-602
  1512178372,0.1286,0.0364,0.3567,558.47,-322.20,1155.88,165,-86,-602
  1512178372,0.0899,0.0035,0.3494,528.14,-300.17,1030.52,165,-86,-602
  1512178372,0.0871,0.0415,0.3507,514.71,-344.42,1174.32,165,-86,-602
  1512178372,-0.0732,0.0354,0.3419,503.78,-359.99,1039.55,193,-100,-619
  1512178372,-0.1157,0.0300,0.3582,648.93,-403.44,1110.78,193,-100,-619
  1512178372,0.0170,0.0557,0.3433,625.00,-370.24,1102.23,193,-100,-619
  1512178372,-0.0230,0.0718,0.3473,609.62,-420.96,986.94,193,-100,-619
  1512178372,-0.0964,-0.0097,0.3357,586.85,-427.37,1051.09,193,-100,-619
  1512178372,-0.0871,0.0818,0.3467,506.04,-365.54,1080.63,189,-75,-619
  1512178372,-0.1073,0.0507,0.3447,587.40,-340.94,1085.45,189,-75,-619
  1512178372,-0.0550,-0.0080,0.3523,549.26,-343.14,1076.42,189,-75,-619
  1512178372,0.1206,0.0630,0.3479,531.01,-350.10,1093.32,189,-75,-619
  1512178372,0.0446,0.0551,0.3438,577.21,-395.32,1080.32,196,-89,-612
  1512178372,-0.0574,-0.0368,0.3486,573.18,-385.80,1030.21,196,-89,-612
  1512178372,-0.1170,0.0332,0.3447,568.54,-364.14,1071.11,196,-89,-612
  1512178372,0.0019,-0.0020,0.3398,537.23,-327.09,1031.49,196,-89,-612
  1512178372,0.0445,-0.0230,0.3401,535.71,-350.83,1064.21,196,-89,-612
  1512178372,0.0137,0.0478,0.3317,562.56,-357.18,1049.87,200,-82,-602
  1512178372,0.0795,-0.0092,0.3389,544.25,-352.23,1117.92,200,-82,-602
  1512178372,0.0383,-0.0001,0.3393,569.76,-352.11,973.14,200,-82,-602
  1512178372,0.1137,-0.0059,0.3396,576.05,-332.95,1119.26,200,-82,-602
  1512178372,0.0501,0.0185,0.3451,637.57,-366.94,1056.34,212,-74,-607
  1512178372,0.0842,-0.0057,0.3410,563.42,-331.42,1151.79,212,-74,-607
  1512178372,0.1285,0.0301,0.3443,575.44,-320.62,1100.16,212,-74,-607
