RTC has set the system time
Mag Calibration: Wave device in a figure 8 until done!
4 seconds to get ready followed by 15 seconds of sampling)
Mag Calibration done!
time_unix,rotate_x,rotate_y,rotate_z,acc_x,acc_y,acc_z,mag_x,mag_y,mag_z
1512179064,0.0250,0.0052,-0.0009,-39.55,-49.50,940.80,0,0,-5
1512179064,0.0000,0.0025,-0.0003,-37.54,-30.70,978.94,0,0,-5
1512179064,-0.0196,-0.0051,-0.0024,-34.67,-35.83,947.08,0,0,-5
1512179064,0.0186,0.0059,-0.0011,-45.53,-45.10,957.15,3,-14,-5
1512179064,0.0128,0.0059,-0.0005,-34.85,-26.37,985.90,3,-14,-5
1512179064,-0.0027,-0.0023,-0.0008,-39.98,-33.26,959.35,3,-14,-5
1512179064,-0.0218,-0.0024,0.0003,-34.73,-49.07,929.57,3,-14,-5
1512179064,0.0226,0.0051,-0.0005,-36.99,-38.76,976.62,3,-14,-5
1512179064,0.0177,0.0027,-0.0004,-45.47,-29.24,976.99,3,-10,-1
1512179064,-0.0154,0.0000,0.0000,-34.42,-33.81,958.07,3,-10,-1
1512179064,0.0103,0.0028,-0.0013,-34.73,-44.37,948.24,3,-10,-1
1512179064,0.0288,0.0075,0.0007,-45.29,-35.40,970.64,3,-10,-1
1512179064,-0.0232,-0.0036,-0.0008,-34.18,-43.21,942.20,0,-14,-5
1512179064,-0.0111,-0.0032,-0.0009,-34.48,-46.88,937.81,0,-14,-5
1512179064,0.0154,0.0041,-0.0008,-41.81,-50.42,953.25,0,-14,-5
1512179064,0.0254,0.0081,0.0003,-41.38,-28.44,988.77,0,-14,-5
1512179064,0.0053,0.0007,-0.0021,-43.52,-30.40,963.56,0,-14,-5
1512179064,0.0278,0.0043,0.0005,-47.12,-17.76,978.39,-7,0,1
1512179064,-0.0036,-0.0105,-0.0003,-49.80,-63.66,1004.58,-7,0,1
1512179064,0.0001,0.0004,-0.0013,-62.32,-71.78,976.01,-7,0,1
1512179064,-0.0309,-0.0033,0.0007,-65.43,-98.27,952.15,-7,0,1
1512179064,0.0039,0.0021,0.0023,-58.59,-76.35,950.13,3,0,-5
1512179064,0.0245,0.0101,0.0021,-73.97,-80.87,959.59,3,0,-5
1512179064,-0.0218,0.0025,0.0013,-65.73,-76.72,953.80,3,0,-5
1512179064,-0.0105,0.0004,0.0000,-62.26,-74.28,939.82,3,0,-5
1512179064,0.0009,0.0016,0.0000,-70.80,-96.25,953.98,3,0,-5
1512179064,0.0176,0.0019,-0.0019,-70.68,-72.57,988.53,7,7,15
1512179064,-0.0189,-0.0023,-0.0013,-61.58,-69.34,944.58,7,7,15
1512179065,-0.0120,0.0005,-0.0004,-69.09,-95.21,938.23,7,7,15
1512179065,0.0193,0.0055,0.0000,-63.54,-72.02,975.59,7,7,15
1512179065,-0.0103,-0.0015,-0.0004,-62.44,-60.67,960.39,7,7,15
1512179065,-0.0181,-0.0004,0.0021,-65.25,-89.54,932.98,10,10,5
1512179065,0.0001,0.0015,0.0028,-57.62,-69.64,948.12,10,10,5
1512179065,0.0052,0.0013,0.0035,-68.91,-55.30,966.00,10,10,5
1512179065,-0.0101,0.0031,0.0023,-69.09,-84.47,941.53,10,10,5
1512179065,0.0009,0.0007,0.0024,-59.75,-70.37,955.57,8,1,10
1512179065,0.0059,0.0039,0.0020,-61.71,-68.24,954.83,8,1,10
1512179065,0.0035,0.0045,0.0007,-72.14,-83.44,959.90,8,1,10
1512179065,0.0084,0.0036,-0.0007,-64.45,-68.73,979.19,8,1,10
1512179065,0.0031,0.0021,0.0021,-69.34,-69.76,955.44,8,1,10
1512179065,-0.0003,0.0051,0.0027,-70.13,-92.65,955.02,3,-3,25
1512179065,0.0111,0.0045,0.0027,-57.68,-73.97,976.26,3,-3,25
1512179065,0.0009,0.0023,0.0013,-61.40,-77.45,954.53,3,-3,25
1512179065,-0.0076,0.0003,0.0025,-72.33,-93.08,934.51,3,-3,25
1512179065,0.0099,0.0024,0.0037,-67.02,-72.33,967.53,3,-3,25
1512179065,0.0068,0.0025,0.0031,-69.52,-75.44,954.53,12,-22,3
1512179065,-0.0056,0.0017,0.0025,-75.20,-95.52,938.54,12,-22,3
1512179065,0.0036,0.0000,0.0019,-59.69,-74.22,971.44,12,-22,3
1512179065,0.0033,0.0009,0.0021,-61.58,-74.71,960.27,12,-22,3
1512179065,0.0045,0.0031,0.0021,-71.96,-91.19,954.16,-1,5,16
1512179065,0.0113,0.0067,0.0011,-53.10,-70.56,984.92,-1,5,16
1512179065,-0.0041,0.0051,0.0005,-62.74,-80.44,945.62,-1,5,16
1512179065,0.0045,0.0076,0.0009,-68.24,-91.19,943.48,-1,5,16
1512179065,0.0213,0.0075,0.0012,-61.28,-64.51,974.12,-1,5,16
1512179065,0.0101,0.0031,0.0031,-75.01,-72.33,964.66,-14,-3,18
1512179065,-0.0017,0.0021,0.0027,-77.33,-83.13,931.52,-14,-3,18
1512179065,0.0137,0.0064,0.0029,-65.43,-63.72,963.75,-14,-3,18
1512179065,0.0081,0.0067,0.0013,-70.56,-73.43,954.96,-14,-3,18
1512179065,-0.0013,0.0039,0.0011,-73.91,-87.46,954.35,-14,-3,18
1512179065,0.0063,0.0051,-0.0015,-64.64,-63.42,966.37,8,-1,10
1512179065,0.0000,0.0025,-0.0033,-66.16,-78.37,960.51,8,-1,10
1512179065,-0.0053,0.0044,-0.0035,-80.51,-95.03,944.03,8,-1,10
1512179065,0.0019,0.0067,-0.0032,-70.80,-67.50,964.11,8,-1,10
1512179065,0.0056,0.0033,-0.0036,-70.92,-75.81,960.69,-10,-7,11
1512179065,0.0047,0.0036,-0.0044,-92.29,-95.58,941.89,-10,-7,11
1512179065,-0.0027,0.0033,-0.0057,-75.93,-73.49,964.29,-10,-7,11
1512179066,0.0113,0.0048,-0.0080,-78.55,-83.80,962.71,-10,-7,11
1512179066,0.0141,0.0045,-0.0095,-83.92,-84.35,942.32,-10,-7,11
1512179066,-0.0057,0.0047,-0.0111,-78.00,-89.11,955.81,0,-3,1
1512179066,0.0193,0.0059,-0.0111,-87.28,-70.86,997.38,0,-3,1
1512179066,0.0065,0.0016,-0.0141,-83.50,-79.10,961.85,0,-3,1
1512179066,0.0011,0.0081,-0.0140,-95.70,-90.58,926.57,0,-3,1
1512179066,-0.0071,0.0080,-0.0168,-85.82,-92.41,953.80,-3,3,1
1512179066,-0.0033,0.0045,-0.0186,-98.94,-81.48,980.47,-3,3,1
1512179066,0.0202,0.0077,-0.0221,-93.32,-84.66,976.26,-3,3,1
1512179066,-0.0007,0.0024,-0.0226,-97.41,-95.03,941.35,-3,3,1
1512179066,-0.0016,0.0091,-0.0238,-113.10,-91.06,944.76,-3,3,1
1512179066,-0.0115,0.0044,-0.0276,-116.33,-104.13,949.34,-3,-3,5
1512179066,-0.0055,-0.0033,-0.0269,-114.93,-101.50,980.22,-3,-3,5
1512179066,0.0164,0.0015,-0.0273,-102.72,-85.45,995.30,-3,-3,5
1512179066,0.0410,0.0085,-0.0268,-93.87,-77.64,1016.30,-3,-3,5
1512179066,0.0161,0.0004,-0.0290,-107.42,-112.43,943.48,-3,-3,5
1512179066,-0.0154,-0.0061,-0.0314,-97.05,-125.85,937.19,0,-10,15
1512179066,-0.0178,-0.0012,-0.0345,-95.64,-113.22,943.66,0,-10,15
1512179066,-0.0201,-0.0037,-0.0342,-100.71,-131.16,899.84,0,-10,15
1512179066,-0.0141,0.0001,-0.0356,-113.95,-117.80,927.49,0,-10,15
1512179066,-0.0044,0.0051,-0.0358,-112.98,-118.29,941.16,10,-7,8
1512179066,-0.0120,0.0021,-0.0350,-130.19,-118.23,967.90,10,-7,8
1512179066,-0.0212,0.0004,-0.0350,-131.84,-109.44,992.43,10,-7,8
1512179066,-0.0060,0.0007,-0.0357,-118.23,-103.33,989.32,10,-7,8
1512179066,0.0238,0.0055,-0.0366,-103.21,-113.34,957.64,10,-7,8
1512179066,0.0132,0.0001,-0.0369,-120.97,-92.04,990.42,7,0,5
1512179066,0.0306,0.0077,-0.0382,-112.55,-97.29,988.46,7,0,5
1512179066,0.0377,0.0080,-0.0405,-99.67,-96.50,990.66,7,0,5
1512179066,0.0099,0.0023,-0.0407,-102.54,-111.33,964.60,7,0,5
1512179066,0.0016,-0.0013,-0.0458,-99.30,-120.97,962.34,7,0,5
1512179066,-0.0036,-0.0089,-0.0437,-99.37,-116.70,951.17,10,3,11
1512179066,0.0019,-0.0100,-0.0429,-112.73,-130.98,989.32,10,3,11
1512179066,0.0341,0.0025,-0.0427,-88.75,-108.09,991.21,10,3,11
1512179066,0.0024,-0.0085,-0.0435,-115.91,-125.31,977.84,10,3,11
1512179066,-0.0324,-0.0222,-0.0429,-100.28,-127.08,979.19,0,-14,15
1512179066,0.0168,-0.0045,-0.0426,-94.42,-102.91,985.53,0,-14,15
1512179066,0.0132,-0.0079,-0.0435,-112.37,-127.32,1003.30,0,-14,15
1512179067,0.0067,-0.0052,-0.0450,-108.89,-102.72,993.41,0,-14,15
1512179067,-0.0352,-0.0121,-0.0482,-102.54,-114.87,934.14,0,-14,15
1512179067,0.0004,-0.0087,-0.0495,-103.39,-133.97,981.26,7,-10,15
1512179067,0.0008,-0.0101,-0.0521,-96.37,-130.98,952.94,7,-10,15
1512179067,-0.0181,-0.0100,-0.0510,-93.93,-114.56,930.97,7,-10,15
1512179067,-0.0113,-0.0109,-0.0522,-96.13,-136.41,945.37,7,-10,15
1512179067,-0.0017,-0.0097,-0.0513,-96.80,-132.63,942.81,19,-1,10
1512179067,-0.0060,-0.0055,-0.0505,-90.64,-124.45,924.44,19,-1,10
1512179067,0.0080,-0.0073,-0.0507,-97.41,-114.01,977.05,19,-1,10
1512179067,-0.0158,-0.0103,-0.0525,-110.05,-123.11,942.63,19,-1,10
1512179067,-0.0173,-0.0084,-0.0522,-100.40,-122.56,913.02,19,-1,10
1512179067,0.0005,-0.0024,-0.0561,-112.00,-126.71,962.16,21,-3,8
1512179067,0.0173,-0.0035,-0.0549,-120.97,-98.63,995.61,21,-3,8
1512179067,0.0237,0.0036,-0.0549,-128.66,-101.75,964.05,21,-3,8
1512179067,-0.0169,-0.0056,-0.0535,-134.40,-131.23,953.92,21,-3,8
1512179067,-0.0348,-0.0031,-0.0551,-101.68,-124.15,902.83,21,-3,8
1512179067,-0.0067,-0.0015,-0.0538,-117.25,-123.47,940.31,10,-3,15
1512179067,0.0079,-0.0037,-0.0567,-99.91,-107.18,1003.05,10,-3,15
1512179067,-0.0340,-0.0115,-0.0562,-101.81,-123.47,912.96,10,-3,15
1512179067,-0.0289,-0.0073,-0.0565,-100.71,-122.99,945.01,10,-3,15
1512179067,0.0186,0.0035,-0.0583,-101.87,-104.49,976.56,14,17,15
1512179067,0.0285,0.0051,-0.0583,-121.52,-105.04,983.28,14,17,15
1512179067,0.0000,-0.0008,-0.0609,-110.60,-117.74,914.06,14,17,15
1512179067,-0.0317,-0.0055,-0.0595,-105.65,-147.52,863.34,14,17,15
1512179067,-0.0643,-0.0144,-0.0593,-105.90,-123.29,856.87,14,17,15
1512179067,-0.0643,-0.0156,-0.0593,-127.01,-137.21,881.77,15,1,3
1512179067,0.0208,-0.0041,-0.0562,-122.25,-116.46,957.21,15,1,3
1512179067,0.0115,-0.0013,-0.0569,-96.25,-145.63,925.54,15,1,3
1512179067,-0.0001,-0.0059,-0.0559,-101.99,-124.63,917.60,15,1,3
1512179067,-0.0073,-0.0091,-0.0550,-88.26,-133.91,913.70,15,1,3
1512179067,0.0164,-0.0061,-0.0574,-104.86,-102.48,987.37,8,12,16
1512179067,-0.0057,-0.0037,-0.0583,-96.56,-118.71,947.75,8,12,16
1512179067,-0.0096,0.0060,-0.0574,-106.57,-104.61,943.18,8,12,16
1512179067,-0.0720,-0.0007,-0.0579,-64.33,-130.19,845.52,8,12,16
1512179067,-0.0828,0.0024,-0.0553,-91.67,-124.76,858.83,7,10,15
1512179067,-0.0570,0.0088,-0.0575,-89.11,-154.17,878.97,7,10,15
1512179067,0.0314,0.0205,-0.0518,-93.14,-146.48,911.68,7,10,15
1512179067,0.0051,0.0221,-0.0487,-82.76,-120.61,909.24,7,10,15
1512179068,-0.0087,0.0116,-0.0462,-109.01,-131.53,942.08,7,10,15
1512179068,-0.0059,0.0057,-0.0462,-130.13,-103.45,957.28,-8,8,10
1512179068,0.0015,0.0064,-0.0462,-104.19,-119.08,943.30,-8,8,10
1512179068,-0.0438,0.0096,-0.0410,-117.49,-137.76,900.33,-8,8,10
1512179068,-0.0700,-0.0020,-0.0425,-86.67,-145.32,888.24,-8,8,10
1512179068,-0.0105,-0.0029,-0.0382,-114.56,-160.34,901.06,10,3,1
1512179068,-0.0136,-0.0011,-0.0364,-71.78,-127.93,863.95,10,3,1
1512179068,-0.0178,-0.0063,-0.0310,-105.90,-131.71,935.67,10,3,1
1512179068,0.0192,-0.0127,-0.0280,-124.63,-134.58,970.46,10,3,1
1512179068,-0.0142,-0.0076,-0.0273,-64.82,-100.46,905.09,10,3,1
1512179068,0.0300,-0.0053,-0.0254,-107.18,-124.33,1008.06,7,14,18
1512179068,0.0024,-0.0129,-0.0230,-93.32,-104.00,977.48,7,14,18
1512179068,-0.0559,-0.0276,-0.0182,-83.01,-132.69,910.03,7,14,18
1512179068,-0.0362,-0.0262,-0.0129,-77.33,-156.56,907.41,7,14,18
1512179068,-0.0446,-0.0265,-0.0093,-64.88,-125.55,895.26,7,14,18
1512179068,-0.0321,-0.0244,-0.0007,-60.49,-144.41,908.75,15,-1,16
1512179068,0.0330,-0.0100,0.0021,-80.69,-141.36,990.17,15,-1,16
1512179068,0.0463,-0.0069,0.0041,-57.74,-131.35,974.91,15,-1,16
1512179068,0.0280,-0.0009,0.0061,-87.16,-155.94,997.31,15,-1,16
1512179068,-0.0197,-0.0101,0.0099,-80.87,-155.27,952.82,1,1,6
1512179068,-0.0305,0.0009,0.0127,-66.04,-156.80,926.21,1,1,6
1512179068,-0.0222,-0.0004,0.0180,-85.63,-146.24,940.61,1,1,6
1512179068,0.0004,0.0105,0.0194,-79.04,-142.58,933.96,1,1,6
1512179068,0.0103,0.0127,0.0258,-93.69,-130.13,965.88,1,1,6
1512179068,0.0141,0.0145,0.0264,-76.54,-150.82,981.69,3,10,11
1512179068,0.0093,0.0161,0.0317,-50.66,-151.43,891.91,3,10,11
1512179068,0.0406,0.0085,0.0356,-120.12,-151.00,940.12,3,10,11
1512179068,0.0302,0.0075,0.0391,-87.10,-135.68,922.61,3,10,11
1512179068,0.0523,0.0149,0.0422,-77.70,-141.85,960.69,3,10,11
1512179068,0.0450,0.0152,0.0469,-111.63,-128.17,1042.66,-7,7,1
1512179068,0.0309,0.0069,0.0491,-90.88,-95.21,1058.96,-7,7,1
1512179068,0.0256,0.0100,0.0530,-86.12,-80.63,1070.07,-7,7,1
1512179068,-0.0684,-0.0080,0.0595,-98.88,-129.03,964.90,-7,7,1
1512179068,-0.0483,-0.0039,0.0607,-50.05,-123.84,875.00,1,15,20
1512179068,-0.0142,0.0060,0.0599,-60.06,-148.68,918.64,1,15,20
1512179068,0.0230,0.0039,0.0617,-49.68,-168.21,970.76,1,15,20
1512179068,0.0083,0.0019,0.0668,-61.46,-126.59,987.24,1,15,20
1512179068,-0.0240,-0.0084,0.0712,-81.48,-141.91,975.04,1,15,20
1512179069,-0.0190,-0.0024,0.0806,-75.56,-154.42,921.20,-3,31,11
1512179069,0.0198,0.0024,0.0844,-33.87,-150.88,926.94,-3,31,11
1512179069,0.0507,0.0008,0.0909,-57.13,-170.29,937.13,-3,31,11
1512179069,0.0754,-0.0019,0.0959,-48.65,-131.77,965.27,-3,31,11
1512179069,0.0897,0.0045,0.1032,-73.91,-117.49,1007.69,10,31,11
1512179069,0.0815,-0.0049,0.1033,-81.12,-102.42,1022.83,10,31,11
1512179069,-0.0146,-0.0222,0.1080,-86.61,-132.14,993.41,10,31,11
1512179069,-0.0172,-0.0138,0.1119,-73.36,-155.64,996.40,10,31,11
1512179069,-0.0037,-0.0057,0.1165,-40.65,-117.55,1038.94,10,31,11
1512179069,0.0226,-0.0007,0.1206,-64.88,-160.03,1068.18,-1,15,13
1512179069,-0.0505,-0.0061,0.1234,5.55,-179.02,949.95,-1,15,13
1512179069,-0.0623,0.0084,0.1294,-0.24,-200.99,910.71,-1,15,13
1512179069,-0.0190,0.0229,0.1369,15.26,-196.72,945.80,-1,15,13
1512179069,0.0244,0.0305,0.1449,-21.61,-148.01,1058.47,-1,15,13
1512179069,-0.0237,0.0265,0.1491,-20.94,-164.73,955.81,5,15,6
1512179069,-0.0265,0.0230,0.1559,-47.85,-167.11,954.28,5,15,6
1512179069,0.0145,0.0366,0.1594,-42.60,-154.17,914.06,5,15,6
1512179069,-0.0236,0.0326,0.1645,-32.71,-206.85,925.60,5,15,6
1512179069,-0.0127,0.0338,0.1682,-7.81,-176.03,899.84,10,24,5
1512179069,-0.0308,0.0342,0.1703,16.42,-184.81,877.14,10,24,5
1512179069,-0.0048,0.0316,0.1732,-8.36,-184.51,874.57,10,24,5
1512179069,0.0244,0.0341,0.1779,13.06,-170.65,949.65,10,24,5
1512179069,0.0864,0.0417,0.1848,-56.58,-162.23,1033.33,10,24,5
1512179069,0.0189,0.0261,0.1899,-44.43,-138.06,1066.28,-5,8,13
1512179069,-0.0177,0.0087,0.1953,-40.77,-158.87,997.44,-5,8,13
1512179069,-0.0510,-0.0104,0.2027,-40.47,-198.55,929.63,-5,8,13
1512179069,-0.0660,-0.0205,0.2063,-7.14,-185.18,872.68,-5,8,13
1512179069,-0.0582,-0.0192,0.2127,17.46,-190.37,888.92,-5,8,13
1512179069,-0.0180,-0.0165,0.2185,-3.36,-199.40,861.51,0,7,8
1512179069,-0.0288,-0.0278,0.2182,13.79,-209.59,872.92,0,7,8
1512179069,-0.0539,-0.0334,0.2228,7.45,-171.39,856.87,0,7,8
1512179069,-0.0387,-0.0369,0.2289,7.51,-192.50,904.17,0,7,8
1512179069,-0.0599,-0.0447,0.2366,36.50,-167.97,957.46,0,7,11
1512179069,-0.0435,-0.0437,0.2378,3.48,-205.81,980.04,0,7,11
1512179069,0.0085,-0.0328,0.2451,18.07,-170.65,1008.30,0,7,11
1512179069,-0.0421,-0.0316,0.2530,19.59,-180.11,1029.85,0,7,11
1512179069,-0.0537,-0.0253,0.2505,47.85,-197.02,987.85,0,7,11
1512179070,0.0134,0.0035,0.2443,60.49,-203.31,998.17,0,-17,15
1512179070,0.0051,0.0154,0.2414,68.85,-214.11,986.82,0,-17,15
1512179070,0.0282,0.0132,0.2546,38.70,-208.80,1016.30,0,-17,15
1512179070,0.0506,0.0017,0.3057,26.31,-198.18,1018.55,0,-17,15
1512179070,0.0589,0.0121,0.4063,9.77,-173.22,941.71,-15,-1,20
1512179070,0.0610,0.0237,0.3937,5.13,-196.47,957.64,-15,-1,20
1512179070,0.0573,0.0193,0.3812,24.72,-193.42,940.19,-15,-1,20
1512179070,0.0672,0.0409,0.4021,7.14,-187.50,907.41,-15,-1,20
1512179070,0.0389,0.0112,0.3952,7.26,-199.95,935.18,-15,-1,20
1512179070,0.0803,0.0377,0.4341,81.85,-193.18,992.61,15,-44,0
1512179070,0.0538,0.0253,0.3373,21.18,-228.94,943.97,15,-44,0
1512179070,0.0173,0.0107,0.2760,31.92,-182.13,977.84,15,-44,0
1512179070,0.0017,-0.0020,0.2782,0.24,-164.31,998.84,15,-44,0
1512179070,-0.0317,-0.0063,0.2779,13.79,-182.25,879.03,15,-44,0
1512179070,-0.0148,0.0077,0.2796,0.43,-197.88,874.69,0,-24,8
1512179070,0.0300,0.0248,0.2828,32.47,-189.45,928.59,0,-24,8
1512179070,-0.0115,0.0040,0.2815,13.31,-221.25,955.08,0,-24,8
1512179070,-0.0156,-0.0096,0.2864,18.37,-184.75,963.07,0,-24,8
1512179070,-0.0025,-0.0104,0.2868,47.91,-178.96,1002.32,0,-24,8
1512179070,-0.0294,-0.0214,0.2894,43.15,-171.69,972.90,-1,-47,16
1512179070,-0.0107,-0.0120,0.2915,52.25,-166.02,1022.64,-1,-47,16
1512179070,-0.0112,-0.0161,0.2943,34.06,-170.90,972.84,-1,-47,16
1512179070,-0.0129,-0.0208,0.2947,39.43,-165.53,983.83,-1,-47,16
1512179070,-0.0119,-0.0157,0.2983,61.22,-180.24,921.69,-1,-33,10
1512179070,-0.0220,-0.0209,0.2932,97.35,-208.19,974.73,-1,-33,10
1512179070,0.0032,-0.0168,0.2878,117.86,-208.31,864.99,-1,-33,10
1512179070,0.0157,-0.0193,0.2894,103.76,-176.39,941.10,-1,-33,10
1512179070,0.0321,-0.0099,0.2883,52.12,-227.17,986.33,-1,-33,10
1512179070,0.0487,0.0040,0.2919,68.79,-191.10,1023.56,3,-49,8
1512179070,0.0144,-0.0020,0.2955,68.36,-215.70,989.81,3,-49,8
1512179070,-0.0100,0.0037,0.2949,82.52,-187.50,978.09,3,-49,8
1512179070,-0.0049,0.0185,0.2944,61.95,-191.10,949.22,3,-49,8
1512179070,0.0072,0.0430,0.2913,74.46,-201.42,913.88,-15,-51,13
1512179070,0.0293,0.0561,0.2880,83.86,-188.66,927.61,-15,-51,13
1512179070,0.0168,0.0587,0.2846,100.04,-208.74,902.71,-15,-51,13
1512179070,0.0346,0.0469,0.2815,64.70,-221.92,928.53,-15,-51,13
1512179070,0.0085,0.0260,0.2826,46.33,-206.60,946.17,-15,-51,13
1512179070,0.0252,0.0306,0.2823,28.38,-140.69,965.39,-19,-61,23
1512179071,0.0245,0.0321,0.2840,12.57,-166.44,997.86,-19,-61,23
1512179071,0.0169,0.0248,0.2807,41.38,-135.56,986.69,-19,-61,23
1512179071,0.0013,0.0240,0.2815,64.03,-161.38,981.20,-19,-61,23
1512179071,0.0015,0.0115,0.2802,78.55,-109.92,942.20,-19,-61,16
1512179071,0.0141,0.0011,0.2791,71.17,-83.74,1048.22,-19,-61,16
1512179071,-0.0378,-0.0162,0.2800,79.53,-109.86,886.66,-19,-61,16
1512179071,-0.0325,-0.0120,0.2778,64.70,-150.70,831.18,-19,-61,16
1512179071,0.0273,0.0041,0.2740,90.45,-140.14,836.67,-19,-61,16
1512179071,0.0089,0.0080,0.2735,85.14,-177.98,871.83,-21,-70,22
1512179071,0.0136,0.0080,0.2740,84.41,-162.66,941.35,-21,-70,22
1512179071,-0.0007,0.0013,0.2700,66.77,-131.84,958.62,-21,-70,22
1512179071,-0.0230,-0.0138,0.2704,77.45,-157.90,973.33,-21,-70,22
1512179071,0.0288,0.0000,0.2711,55.36,-122.56,992.31,-21,-70,22
1512179071,0.0063,0.0041,0.2674,45.90,-143.37,969.48,-17,-84,18
1512179071,0.0690,0.0338,0.2613,95.52,-136.96,977.17,-17,-84,18
1512179071,0.0654,0.0415,0.2545,107.24,-121.40,1023.86,-17,-84,18
1512179071,0.0300,0.0273,0.2549,82.95,-116.70,994.93,-17,-84,18
1512179071,0.0257,0.0132,0.2507,49.80,-116.88,1016.48,-21,-70,15
1512179071,-0.0036,0.0115,0.2531,76.17,-92.77,908.87,-21,-70,15
1512179071,0.0019,0.0218,0.2523,57.74,-78.61,973.39,-21,-70,15
1512179071,0.0052,0.0127,0.2514,69.64,-78.80,952.64,-21,-70,15
1512179071,-0.0198,0.0008,0.2507,75.56,-91.43,939.58,-21,-70,15
1512179071,0.0092,0.0039,0.2473,78.86,-92.53,957.52,-28,-74,1
1512179071,0.0216,0.0068,0.2446,125.55,-114.62,908.33,-28,-74,1
1512179071,0.0150,0.0012,0.2394,93.63,-117.37,904.54,-28,-74,1
1512179071,-0.0230,-0.0165,0.2407,93.14,-127.38,885.19,-28,-74,1
1512179071,0.0084,-0.0189,0.2354,59.27,-123.96,905.76,-22,-89,-3
1512179071,-0.0229,-0.0288,0.2337,51.94,-134.70,925.48,-22,-89,-3
1512179071,-0.0260,-0.0113,0.2329,82.58,-143.55,862.43,-22,-89,-3
1512179071,-0.0206,0.0133,0.2280,130.49,-135.13,869.87,-22,-89,-3
1512179071,0.0322,0.0184,0.2290,90.58,-85.94,985.11,-22,-89,-3
1512179071,-0.0015,-0.0003,0.2277,121.58,-95.09,962.95,-21,-116,5
1512179071,-0.0095,-0.0136,0.2281,78.31,-114.99,948.79,-21,-116,5
1512179071,-0.0092,-0.0109,0.2237,41.63,-100.59,919.62,-21,-116,5
1512179071,0.0036,-0.0017,0.2176,70.19,-92.16,990.36,-21,-116,5
1512179071,0.0387,0.0298,0.2117,103.94,-98.39,983.34,-21,-116,5
1512179071,0.0519,0.0321,0.2121,78.25,-119.57,962.34,-35,-119,-11
1512179071,0.0726,0.0418,0.2031,128.17,-109.56,933.23,-35,-119,-11
1512179072,0.0324,0.0184,0.2020,117.43,-129.58,911.13,-35,-119,-11
1512179072,0.0328,-0.0036,0.2033,102.11,-80.75,935.30,-35,-119,-11
1512179072,0.0136,-0.0133,0.2061,66.96,-37.96,920.23,-29,-132,-10
1512179072,0.0281,-0.0044,0.2059,43.76,-58.17,1016.85,-29,-132,-10
1512179072,0.0543,-0.0089,0.2076,30.09,5.68,1061.77,-29,-132,-10
1512179072,-0.0119,-0.0113,0.2011,40.10,-66.83,981.57,-29,-132,-10
1512179072,0.0475,-0.0051,0.1996,22.03,-78.43,975.83,-29,-132,-10
1512179072,-0.0119,0.0075,0.1917,79.47,-97.60,888.06,-33,-128,3
1512179072,-0.0236,-0.0004,0.1859,72.08,-121.58,929.20,-33,-128,3
1512179072,0.0109,0.0023,0.1863,70.37,-32.71,1001.71,-33,-128,3
1512179072,-0.0206,-0.0059,0.1860,68.42,-30.76,959.78,-33,-128,3
1512179072,0.0055,-0.0024,0.1859,51.45,-46.26,991.88,-33,-128,3
1512179072,-0.0067,0.0055,0.1844,70.31,-43.82,977.05,-42,-137,-11
1512179072,-0.0406,0.0011,0.1803,79.65,-88.50,952.64,-42,-137,-11
1512179072,0.0040,0.0233,0.1766,117.31,-116.46,938.78,-42,-137,-11
1512179072,0.0154,0.0281,0.1718,116.82,-105.29,921.33,-42,-137,-11
1512179072,0.0442,0.0228,0.1723,115.30,-83.68,1012.88,-38,-123,-8
1512179072,0.0194,-0.0044,0.1683,93.32,-34.42,937.07,-38,-123,-8
1512179072,0.0162,-0.0003,0.1690,51.21,-54.32,961.36,-38,-123,-8
1512179072,0.0415,0.0246,0.1637,28.32,-32.35,971.37,-38,-123,-8
1512179072,0.0374,0.0447,0.1562,50.54,-78.49,943.30,-38,-123,-8
1512179072,0.0590,0.0644,0.1567,87.95,-48.16,995.06,-14,-130,-5
1512179072,-0.0262,0.0346,0.1487,63.42,-71.59,956.48,-14,-130,-5
1512179072,-0.0166,0.0169,0.1519,73.49,-45.65,911.13,-14,-130,-5
1512179072,0.0041,0.0127,0.1577,26.61,-27.77,943.30,-14,-130,-5
1512179072,0.0281,0.0125,0.1561,5.19,-33.20,1009.46,-40,-146,0
1512179072,0.0083,0.0019,0.1589,39.00,-27.83,1004.09,-40,-146,0
1512179072,-0.0212,-0.0140,0.1581,57.80,-68.12,963.20,-40,-146,0
1512179072,-0.0004,0.0009,0.1543,105.53,-86.98,913.15,-40,-146,0
1512179072,0.0088,-0.0033,0.1541,77.76,-80.38,879.39,-40,-146,0
1512179072,0.0237,-0.0013,0.1463,51.70,-74.22,1004.76,-33,-139,0
1512179072,0.0115,-0.0063,0.1519,42.30,-24.17,999.69,-33,-139,0
1512179072,0.0511,0.0117,0.1513,47.30,-16.72,1031.43,-33,-139,0
1512179072,0.0229,0.0023,0.1553,49.19,-9.28,979.37,-33,-139,0
1512179072,0.0059,0.0088,0.1535,68.24,-60.06,976.99,-33,-139,0
1512179072,0.0123,0.0212,0.1478,71.59,-101.14,941.10,-47,-146,3
1512179072,0.0174,0.0293,0.1454,85.75,-96.44,927.25,-47,-146,3
1512179073,-0.0306,0.0210,0.1399,99.73,-120.79,876.83,-47,-146,3
1512179073,-0.0361,0.0112,0.1398,75.56,-97.35,886.29,-47,-146,3
1512179073,0.0321,0.0225,0.1442,50.29,-73.85,992.86,-35,-148,5
1512179073,0.0278,0.0240,0.1522,31.25,-51.03,943.48,-35,-148,5
1512179073,0.0495,0.0225,0.1558,-7.02,-61.34,964.05,-35,-148,5
1512179073,0.0461,0.0301,0.1538,68.60,-60.67,925.17,-35,-148,5
1512179073,0.0188,0.0220,0.1519,27.53,-87.71,982.85,-35,-148,5
1512179073,0.0344,0.0188,0.1513,61.58,-36.56,935.73,-40,-142,20
1512179073,0.0258,0.0170,0.1514,41.20,-67.20,963.01,-40,-142,20
1512179073,0.0422,0.0196,0.1514,12.33,-65.06,951.17,-40,-142,20
1512179073,0.0722,0.0320,0.1510,31.74,-63.72,1006.65,-40,-142,20
1512179073,0.0723,0.0366,0.1543,42.66,-59.75,1024.90,-40,-142,20
1512179073,0.0210,0.0266,0.1558,60.67,-78.31,940.92,-29,-146,0
1512179073,0.0176,-0.0008,0.1603,45.41,-30.52,980.96,-29,-146,0
1512179073,0.0185,0.0091,0.1569,56.03,-53.59,994.51,-29,-146,0
1512179073,0.0352,0.0262,0.1547,28.56,-89.42,1027.28,-29,-146,0
1512179073,-0.0280,0.0112,0.1605,83.56,-91.67,870.54,-43,-160,6
1512179073,-0.0051,0.0076,0.1634,54.93,-87.95,927.25,-43,-160,6
1512179073,0.0385,0.0015,0.1687,58.96,-64.03,993.35,-43,-160,6
1512179073,0.0447,0.0130,0.1724,52.37,-67.93,1010.74,-43,-160,6
1512179073,0.0154,0.0044,0.1739,61.22,-108.15,890.62,-43,-160,6
1512179073,0.0539,0.0197,0.1756,34.91,-73.06,941.59,-50,-167,20
1512179073,0.0285,0.0148,0.1790,55.73,-54.99,940.06,-50,-167,20
1512179073,0.0045,0.0023,0.1824,67.08,-30.15,970.09,-50,-167,20
1512179073,0.0277,0.0165,0.1851,79.10,-65.31,966.74,-50,-167,20
1512179073,0.0418,0.0253,0.1928,54.08,-60.49,967.53,-49,-176,8
1512179073,0.0992,0.0381,0.1923,51.88,-104.86,1027.65,-49,-176,8
1512179073,0.0594,0.0365,0.1911,99.24,-98.14,953.06,-49,-176,8
1512179073,0.0557,0.0346,0.1913,70.68,-113.46,975.34,-49,-176,8
1512179073,0.0272,0.0202,0.1888,107.30,-83.86,908.87,-49,-176,8
1512179073,0.0334,0.0210,0.1923,92.35,-73.61,954.16,-29,-181,10
1512179073,0.0261,0.0230,0.1933,52.06,-53.89,973.82,-29,-181,10
1512179073,0.0321,0.0329,0.2017,59.39,-76.72,962.22,-29,-181,10
1512179073,0.0249,0.0310,0.2005,67.81,-77.15,932.50,-29,-181,10
1512179073,0.0057,0.0194,0.2023,102.72,-129.94,902.10,-29,-181,10
1512179073,-0.0365,-0.0036,0.2052,106.02,-127.14,867.43,-56,-197,-1
1512179073,-0.0177,-0.0064,0.2112,95.03,-113.83,912.96,-56,-197,-1
1512179073,0.0411,0.0024,0.2162,78.43,-98.39,999.57,-56,-197,-1
1512179074,0.0075,-0.0109,0.2194,89.48,-92.35,971.56,-56,-197,-1
1512179074,0.0214,-0.0170,0.2232,78.43,-81.05,964.11,-56,-197,-1
1512179074,0.0272,-0.0257,0.2310,81.42,-83.62,885.25,-52,-200,-5
1512179074,0.0587,-0.0176,0.2361,87.10,-76.42,921.39,-52,-200,-5
1512179074,-0.0340,-0.0354,0.2369,59.20,-102.72,900.82,-52,-200,-5
1512179074,-0.0092,-0.0176,0.2446,98.63,-109.62,873.78,-52,-200,-5
1512179074,0.0312,-0.0023,0.2402,125.85,-96.37,944.76,-50,-192,6
1512179074,0.0579,0.0079,0.2438,86.36,-128.66,985.53,-50,-192,6
1512179074,0.0466,0.0024,0.2481,115.60,-133.67,925.17,-50,-192,6
1512179074,0.0285,-0.0003,0.2539,140.14,-109.56,951.48,-50,-192,6
1512179074,0.0300,0.0076,0.2603,105.90,-90.09,917.79,-50,-192,6
1512179074,0.0184,0.0314,0.2501,126.10,-125.85,871.28,-49,-200,8
1512179074,0.0858,0.0575,0.2601,148.68,-67.75,928.34,-49,-200,8
1512179074,-0.0115,0.0172,0.2478,61.65,-57.43,926.57,-49,-200,8
1512179074,0.0285,0.0080,0.2498,67.81,-85.94,937.13,-49,-200,8
1512179074,0.0350,0.0088,0.2581,43.46,-41.50,943.12,-45,-211,8
1512179074,-0.0293,0.0128,0.2635,66.41,-69.09,823.61,-45,-211,8
1512179074,0.0152,0.0077,0.2606,121.58,-26.86,941.96,-45,-211,8
1512179074,0.0474,0.0092,0.2586,79.47,-79.41,1042.79,-45,-211,8
1512179074,0.0623,0.0076,0.2558,82.82,-77.15,1032.41,-45,-211,8
1512179074,0.0141,-0.0037,0.2565,43.70,-14.22,950.38,-49,-208,1
1512179074,0.0423,0.0105,0.2537,50.48,-66.59,958.13,-49,-208,1
1512179074,-0.0308,0.0091,0.2538,80.32,-76.54,907.78,-49,-208,1
1512179074,-0.0483,0.0141,0.2547,130.74,-77.76,880.31,-49,-208,1
1512179074,-0.0132,0.0096,0.2582,100.71,-124.02,1010.44,-49,-208,1
1512179074,0.0169,0.0142,0.2610,109.31,-85.02,940.31,-45,-229,1
1512179074,-0.0112,-0.0077,0.2591,108.34,-86.06,1016.66,-45,-229,1
1512179074,-0.0052,-0.0109,0.2646,75.01,-59.14,1029.60,-45,-229,1
1512179074,-0.0771,-0.0229,0.2699,100.46,-64.88,831.18,-45,-229,1
1512179074,0.0198,0.0081,0.2679,111.51,-103.27,946.84,-35,-232,11
1512179074,0.0373,0.0150,0.2746,72.94,-52.49,988.95,-35,-232,11
1512179074,-0.0487,-0.0017,0.2714,98.94,-49.62,942.69,-35,-232,11
1512179074,0.0302,-0.0031,0.2774,77.64,-11.84,1087.40,-35,-232,11
1512179074,-0.0614,-0.0209,0.2767,64.94,-84.53,913.94,-35,-232,11
1512179074,-0.0165,-0.0245,0.2823,88.75,-122.92,842.10,-40,-230,0
1512179074,-0.0410,-0.0374,0.2925,83.07,-92.96,864.99,-40,-230,0
1512179074,0.0113,-0.0093,0.2807,144.78,-155.15,967.96,-40,-230,0
1512179074,0.0457,0.0318,0.3065,155.40,-124.21,989.62,-40,-230,0
1512179075,0.0119,0.0352,0.3025,181.46,-122.25,1015.20,-21,-250,15
1512179075,-0.0402,0.0186,0.2917,180.11,-83.50,1013.79,-21,-250,15
1512179075,0.0059,0.0399,0.2888,187.01,-110.53,983.46,-21,-250,15
1512179075,-0.0017,0.0297,0.2915,66.96,-75.13,1041.44,-21,-250,15
1512179075,0.0208,0.0193,0.2941,45.90,-46.14,981.99,-21,-250,15
1512179075,0.0048,0.0077,0.2949,39.92,-59.08,1059.39,-21,-250,15
1512179075,-0.0237,0.0041,0.2953,67.44,-62.19,895.75,-21,-250,15
1512179075,-0.0016,0.0320,0.2915,82.03,-100.40,824.89,-21,-250,15
1512179075,0.0700,0.0497,0.3151,169.25,-101.50,891.54,-21,-250,15
1512179075,0.0031,0.0280,0.2851,156.56,-99.49,847.11,-21,-250,15
1512179075,-0.0044,0.0161,0.2782,83.25,-134.28,969.54,-28,-260,8
1512179075,-0.0076,0.0197,0.2876,115.66,-83.25,893.01,-28,-260,8
1512179075,-0.0517,0.0115,0.2863,79.41,-127.56,960.51,-28,-260,8
1512179075,0.0009,0.0005,0.2936,90.94,-142.88,961.30,-28,-260,8
1512179075,-0.0043,0.0015,0.2936,123.41,-85.08,951.60,-8,-262,16
1512179075,0.0238,0.0129,0.2892,73.36,-149.05,992.37,-8,-262,16
1512179075,0.0228,0.0285,0.2882,105.04,-106.26,972.60,-8,-262,16
1512179075,-0.0336,0.0342,0.2840,104.68,-93.75,937.74,-8,-262,16
1512179075,0.0200,0.0378,0.2903,76.60,-88.32,1065.80,-8,-262,16
1512179075,-0.0012,0.0473,0.2891,92.59,-9.77,1035.34,-15,-269,16
1512179075,0.0101,0.0747,0.2878,140.08,-127.20,987.30,-15,-269,16
1512179075,0.0598,0.0787,0.2902,119.63,-56.34,1073.06,-15,-269,16
1512179075,0.0680,0.0864,0.2842,169.98,-78.49,997.44,-15,-269,16
1512179075,0.0923,0.0947,0.2871,134.40,-86.43,1064.82,-15,-269,16
1512179075,0.0322,0.0684,0.2838,122.38,-84.78,952.21,-7,-278,15
1512179075,0.0398,0.0419,0.2956,71.47,-33.69,944.46,-7,-278,15
1512179075,0.0258,0.0410,0.3019,71.23,-114.26,859.86,-7,-278,15
1512179075,0.0479,0.0314,0.3104,92.65,-52.00,886.90,-7,-278,15
1512179075,0.0406,0.0261,0.3202,7.39,-87.52,987.79,-3,-275,11
1512179075,0.0727,0.0276,0.3225,68.30,-35.40,995.97,-3,-275,11
1512179075,-0.0573,0.0060,0.3234,94.36,-91.25,910.16,-3,-275,11
1512179075,-0.0059,0.0112,0.3205,107.42,-90.33,990.17,-3,-275,11
1512179075,-0.0296,0.0031,0.3200,145.08,-123.54,917.72,-3,-275,11
1512179075,-0.0349,-0.0031,0.3164,140.01,-135.68,938.78,-10,-282,18
1512179075,-0.0130,0.0081,0.3151,154.11,-140.08,944.03,-10,-282,18
1512179075,-0.0555,0.0029,0.3168,148.68,-133.67,915.65,-10,-282,18
1512179075,-0.0145,0.0113,0.3190,182.37,-124.88,899.66,-10,-282,18
1512179075,0.0450,0.0228,0.3245,147.71,-154.48,938.35,-3,-285,22
1512179076,0.0128,0.0160,0.3254,173.65,-155.94,855.77,-3,-285,22
1512179076,-0.0043,0.0040,0.3372,168.46,-92.71,917.72,-3,-285,22
1512179076,0.0354,0.0133,0.3377,137.51,-112.24,1008.67,-3,-285,22
1512179076,0.0280,-0.0017,0.3425,120.79,-100.40,997.01,-3,-285,22
1512179076,-0.0079,0.0079,0.3429,152.04,-84.29,891.42,3,-292,18
1512179076,0.0867,0.0276,0.3434,88.99,-110.72,1035.52,3,-292,18
1512179076,0.0486,0.0116,0.3471,140.56,-89.17,944.64,3,-292,18
1512179076,0.0196,0.0140,0.3473,156.68,-121.52,914.79,3,-292,18
1512179076,0.0422,0.0103,0.3458,180.05,-124.88,919.43,3,-292,18
1512179076,0.0875,0.0216,0.3471,104.19,-65.92,991.46,1,-301,20
1512179076,0.1077,0.0381,0.3429,137.94,-123.72,969.30,1,-301,20
1512179076,0.1142,0.0372,0.3421,115.84,-86.06,967.65,1,-301,20
1512179076,0.0256,0.0334,0.3372,122.38,-102.72,954.28,1,-301,20
1512179076,0.0144,0.0130,0.3364,84.84,-104.31,909.91,10,-310,22
1512179076,-0.0031,0.0091,0.3349,120.97,-97.90,886.17,10,-310,22
1512179076,0.0053,0.0008,0.3461,104.31,-67.99,898.80,10,-310,22
1512179076,0.0306,0.0015,0.3419,129.33,-100.34,895.69,10,-310,22
1512179076,0.0470,0.0105,0.3376,118.84,-107.73,928.53,10,-310,22
1512179076,0.0378,0.0052,0.3394,136.84,-120.97,950.93,15,-308,16
1512179076,0.0025,-0.0036,0.3398,151.61,-163.27,924.13,15,-308,16
1512179076,0.0165,-0.0039,0.3425,174.32,-133.61,926.76,15,-308,16
1512179076,0.0007,-0.0027,0.3473,166.56,-128.66,838.99,15,-308,16
1512179076,0.0258,0.0065,0.3425,162.29,-139.40,947.39,15,-308,16
1512179076,0.0593,0.0166,0.3431,154.36,-114.62,986.15,43,-308,3
1512179076,-0.0071,0.0205,0.3490,192.63,-139.40,889.16,43,-308,3
1512179076,0.0399,0.0445,0.3479,190.00,-163.09,906.98,43,-308,3
1512179076,0.0538,0.0246,0.3517,165.41,-151.92,986.51,43,-308,3
1512179076,0.0204,0.0029,0.3571,164.06,-70.68,937.13,38,-327,1
1512179076,-0.0483,-0.0011,0.3478,170.53,-152.95,816.35,38,-327,1
1512179076,0.0012,-0.0023,0.3531,162.72,-121.89,838.87,38,-327,1
1512179076,0.0578,0.0117,0.3603,148.44,-76.23,922.30,38,-327,1
1512179076,0.0687,0.0166,0.3659,141.05,-69.09,964.72,38,-327,1
1512179076,0.0715,0.0177,0.3559,145.63,-130.25,944.40,42,-317,-8
1512179076,0.0486,0.0107,0.3539,130.49,-51.70,1039.55,42,-317,-8
1512179076,0.0270,-0.0019,0.3561,113.04,-24.66,1015.81,42,-317,-8
1512179076,0.0413,0.0088,0.3507,170.41,-63.78,969.30,42,-317,-8
1512179076,0.0490,0.0350,0.3509,166.14,-75.99,948.85,42,-317,-8
1512179076,0.0145,0.0246,0.3490,127.81,-44.43,967.47,56,-342,5
1512179077,0.0799,0.0304,0.3510,124.69,-35.52,993.90,56,-342,5
1512179077,0.0570,0.0340,0.3523,131.29,-63.23,1037.48,56,-342,5
1512179077,0.0328,0.0372,0.3531,141.72,-74.22,923.65,56,-342,5
1512179077,-0.0423,0.0150,0.3499,152.28,-109.07,869.20,59,-327,5
1512179077,-0.0700,0.0008,0.3493,162.48,-99.06,863.04,59,-327,5
1512179077,0.0286,0.0134,0.3549,148.62,-29.30,937.93,59,-327,5
1512179077,-0.0111,-0.0036,0.3623,57.86,-68.66,946.23,59,-327,5
1512179077,0.0238,-0.0033,0.3629,137.08,-58.96,988.22,59,-327,5
1512179077,-0.0093,-0.0007,0.3755,186.58,-23.25,952.94,65,-347,10
1512179077,0.0012,0.0027,0.3587,156.31,-94.36,977.48,65,-347,10
1512179077,0.1128,0.0305,0.3948,213.26,-49.62,1126.04,65,-347,10
1512179077,0.0116,0.0129,0.3570,145.63,-60.55,996.28,65,-347,10
1512179077,0.0127,0.0053,0.3531,186.40,-122.68,933.11,65,-347,10
1512179077,-0.0107,0.0156,0.3546,203.80,-125.06,820.07,77,-345,-11
1512179077,0.0229,0.0234,0.3577,167.60,-53.59,950.38,77,-345,-11
1512179077,0.0322,0.0274,0.3586,191.16,-27.34,1000.67,77,-345,-11
1512179077,0.0403,0.0253,0.3581,169.25,-20.94,1010.44,77,-345,-11
1512179077,0.0123,0.0182,0.3537,149.41,-29.30,998.84,93,-354,6
1512179077,-0.0298,0.0164,0.3575,190.31,-57.13,874.39,93,-354,6
1512179077,0.0465,0.0383,0.3543,172.24,-62.93,976.26,93,-354,6
1512179077,0.0178,0.0306,0.3549,145.75,-68.36,929.99,93,-354,6
1512179077,0.0751,0.0301,0.3575,133.79,-15.69,936.58,93,-354,6
1512179077,0.1119,0.0336,0.3587,123.17,-15.26,1024.96,96,-354,3
1512179077,0.0298,0.0217,0.3534,146.73,-37.11,898.80,96,-354,3
1512179077,0.0099,0.0184,0.3696,85.63,-29.72,942.93,96,-354,3
1512179077,0.0401,0.0345,0.3522,165.10,-28.99,924.32,96,-354,3
1512179077,0.0547,0.0300,0.3703,138.12,-18.80,1019.17,96,-354,3
1512179077,0.0134,0.0149,0.3659,136.47,-27.71,947.14,117,-361,3
1512179077,0.0383,0.0286,0.3475,157.04,-27.40,918.40,117,-361,3
1512179077,0.0431,0.0443,0.3406,150.02,-81.54,967.77,117,-361,3
1512179077,0.0563,0.0442,0.3412,194.15,-82.58,960.21,117,-361,3
1512179077,-0.0068,0.0399,0.3431,197.14,-106.14,838.99,126,-349,15
1512179077,0.0751,0.0422,0.3497,154.36,-52.00,895.26,126,-349,15
1512179077,0.0899,0.0413,0.3539,170.65,-7.63,950.01,126,-349,15
1512179077,0.0558,0.0453,0.3507,173.65,-79.22,996.03,126,-349,15
1512179077,0.0626,0.0421,0.3526,172.49,-37.90,913.09,126,-349,15
1512179077,0.0390,0.0403,0.3609,174.19,-26.12,926.39,131,-368,6
1512179077,0.0570,0.0348,0.3563,149.60,-26.25,1021.97,131,-368,6
1512179078,0.0694,0.0451,0.3563,194.15,-39.73,1010.38,131,-368,6
1512179078,0.0569,0.0466,0.3581,163.88,-51.64,1033.75,131,-368,6
1512179078,0.0099,0.0322,0.3642,145.75,-15.56,918.64,131,-368,6
1512179078,0.0792,0.0406,0.3641,127.44,5.86,944.52,138,-361,3
1512179078,0.0680,0.0495,0.3617,150.02,-39.06,918.88,138,-361,3
1512179078,0.0415,0.0293,0.3726,160.89,-78.74,911.32,138,-361,3
1512179078,-0.0021,0.0361,0.3672,162.11,-69.76,844.97,138,-361,3
1512179078,-0.0043,0.0238,0.3726,163.21,-135.68,842.90,126,-363,8
1512179078,-0.0226,0.0318,0.3770,194.52,-62.07,813.78,126,-363,8
1512179078,0.0317,0.0346,0.3679,177.43,-50.60,847.05,126,-363,8
1512179078,0.0586,0.0272,0.3676,135.68,-36.87,956.73,126,-363,8
1512179078,0.0794,0.0354,0.3657,164.06,26.49,1038.57,126,-363,8
1512179078,-0.0229,0.0123,0.3670,178.89,-29.17,900.02,137,-345,8
1512179078,0.0385,0.0292,0.3637,185.91,-33.69,911.93,137,-345,8
1512179078,0.0221,0.0285,0.3607,167.91,-11.47,902.95,137,-345,8
1512179078,0.0226,0.0314,0.3578,183.29,-20.94,926.33,137,-345,8
1512179078,-0.0364,0.0172,0.3583,167.48,-68.97,883.06,137,-345,8
1512179078,-0.0280,0.0273,0.3617,193.42,-72.69,843.32,154,-356,15
1512179078,0.0623,0.0377,0.3593,136.41,-33.33,949.34,154,-356,15
1512179078,0.0487,0.0218,0.3716,127.56,-58.11,964.54,154,-356,15
1512179078,0.0366,0.0218,0.3700,110.72,-40.04,1006.35,154,-356,15
1512179078,0.0009,0.0262,0.3763,98.75,17.09,913.33,170,-361,16
1512179078,0.0756,0.0463,0.3711,105.59,-129.46,929.87,170,-361,16
1512179078,0.0806,0.0161,0.3770,87.34,-84.66,934.69,170,-361,16
1512179078,-0.0482,-0.0024,0.3728,106.38,-82.09,889.65,170,-361,16
1512179078,-0.0132,-0.0185,0.3788,58.90,-99.79,910.77,170,-361,16
1512179078,0.0427,0.0104,0.3703,127.50,-62.93,974.91,188,-368,10
1512179078,-0.0113,0.0056,0.3764,97.90,-128.85,953.31,188,-368,10
1512179078,-0.0377,-0.0032,0.3766,159.67,-107.12,850.28,188,-368,10
1512179078,-0.0157,0.0015,0.3819,156.92,-105.47,907.90,188,-368,10
1512179078,0.0157,-0.0059,0.3766,147.40,-108.46,935.91,175,-359,15
1512179078,-0.0320,-0.0173,0.3870,175.23,-105.04,783.39,175,-359,15
1512179078,0.0136,0.0013,0.3879,121.52,-124.63,876.28,175,-359,15
1512179078,0.0238,0.0130,0.3862,185.85,-90.15,919.43,175,-359,15
1512179078,0.0240,0.0154,0.3947,105.59,-62.44,933.41,175,-359,15
1512179078,0.0105,0.0128,0.3908,184.14,-93.08,922.18,188,-375,20
1512179078,0.0095,0.0059,0.3937,166.81,-135.25,913.15,188,-375,20
1512179079,0.0029,-0.0003,0.3944,142.27,-109.86,931.34,188,-375,20
1512179079,-0.0413,0.0003,0.4027,151.98,-106.81,836.43,188,-375,20
1512179079,0.0338,0.0149,0.4001,131.10,-42.11,1035.28,188,-375,20
1512179079,0.0973,0.0467,0.4052,153.32,-66.35,1058.04,205,-361,13
1512179079,0.0871,0.0483,0.4049,116.58,-75.93,972.72,205,-361,13
1512179079,0.0205,0.0270,0.4032,129.76,-75.26,992.07,205,-361,13
1512179079,0.0622,0.0389,0.4045,124.33,-44.07,1000.12,205,-361,13
1512179079,0.0581,0.0308,0.4089,68.66,-21.42,1012.63,205,-361,13
1512179079,0.0991,0.0413,0.4088,65.61,-70.37,1027.40,205,-368,10
1512179079,0.0234,0.0313,0.4044,45.17,-76.90,970.40,205,-368,10
1512179079,0.0108,0.0431,0.4029,121.22,-99.91,958.07,205,-368,10
1512179079,0.0589,0.0425,0.4079,118.59,-59.45,948.43,205,-368,10
1512179079,0.0193,0.0269,0.4025,122.86,-125.43,903.44,223,-375,23
1512179079,0.1063,0.0431,0.4071,91.98,-77.45,930.60,223,-375,23
1512179079,0.0615,0.0257,0.4053,80.93,-95.64,976.93,223,-375,23
1512179079,0.0341,0.0357,0.4005,80.02,-35.83,965.03,223,-375,23
1512179079,-0.0173,0.0324,0.3997,144.78,-117.86,899.66,223,-375,23
1512179079,0.0012,0.0013,0.4039,90.39,-116.58,923.46,235,-356,18
1512179079,-0.0748,-0.0269,0.4001,142.15,-139.28,893.31,235,-356,18
1512179079,-0.0300,-0.0185,0.4059,112.98,-103.03,806.88,235,-356,18
1512179079,0.0615,0.0140,0.4048,141.42,-126.22,929.87,235,-356,18
1512179079,0.0956,0.0194,0.4071,101.50,-63.54,932.25,235,-356,18
1512179079,0.0037,-0.0089,0.4063,99.79,-117.86,863.71,247,-364,27
1512179079,-0.0060,-0.0361,0.4128,87.16,-109.01,846.50,247,-364,27
1512179079,0.0137,-0.0376,0.4161,61.22,-111.21,984.07,247,-364,27
1512179079,0.0638,-0.0266,0.4218,69.52,-77.82,931.95,247,-364,27
1512179079,0.0613,-0.0284,0.4242,29.17,-95.70,1058.47,251,-357,10
1512179079,-0.0177,-0.0411,0.4165,45.59,-106.87,967.53,251,-357,10
1512179079,0.0300,-0.0293,0.4137,44.68,-115.54,967.71,251,-357,10
1512179079,0.0120,-0.0334,0.4108,94.06,-138.92,1011.60,251,-357,10
1512179079,-0.0120,-0.0569,0.4117,87.83,-83.68,1064.39,251,-357,10
1512179079,-0.0055,-0.0493,0.4139,94.60,-84.17,1042.42,256,-349,11
1512179079,0.0238,-0.0419,0.4120,114.62,-138.79,1001.77,256,-349,11
1512179079,0.0141,-0.0529,0.4135,91.74,-132.02,984.86,256,-349,11
1512179079,-0.0031,-0.0213,0.4071,151.12,-94.18,934.51,256,-349,11
1512179079,0.0601,0.0372,0.3988,199.58,-90.52,984.31,268,-347,23
1512179079,0.1068,0.0766,0.3843,202.88,-154.36,1058.04,268,-347,23
1512179079,0.0502,0.0811,0.3871,191.53,-157.59,963.01,268,-347,23
1512179080,-0.0140,0.0688,0.3884,140.75,-180.24,795.96,268,-347,23
1512179080,0.0233,0.0629,0.3923,110.05,-163.70,778.32,268,-347,23
1512179080,0.0165,0.0268,0.4021,69.70,-77.09,835.21,300,-354,6
1512179080,0.0715,0.0174,0.4089,-5.68,-98.63,967.41,300,-354,6
1512179080,-0.0242,0.0051,0.4109,54.02,-91.37,807.80,300,-354,6
1512179080,-0.0296,-0.0470,0.4250,32.78,-115.91,861.15,300,-354,6
1512179080,0.0256,-0.0621,0.4181,75.56,-124.63,828.86,300,-354,6
1512179080,0.0285,-0.0547,0.4087,109.37,-146.36,940.12,286,-340,16
1512179080,-0.0297,-0.0439,0.3965,147.09,-147.95,933.41,286,-340,16
1512179080,-0.0210,-0.0527,0.3876,149.78,-165.95,993.04,286,-340,16
1512179080,-0.0097,-0.0499,0.3812,142.76,-162.29,1032.96,286,-340,16
1512179080,-0.0522,-0.0583,0.3906,34.79,-149.11,932.07,293,-322,13
1512179080,-0.0278,-0.0434,0.3871,80.20,-165.77,954.35,293,-322,13
1512179080,-0.0149,-0.0161,0.4041,81.60,-81.05,908.57,293,-322,13
1512179080,0.0277,0.0049,0.3985,96.01,-208.86,1023.62,293,-322,13
1512179080,0.0304,0.0001,0.4205,147.09,-191.65,992.37,293,-322,13
1512179080,-0.0482,-0.0017,0.3991,158.02,-186.10,863.04,312,-324,25
1512179080,0.0258,-0.0041,0.3949,140.62,-205.51,992.61,312,-324,25
1512179080,0.0115,-0.0009,0.3968,128.36,-179.87,964.60,312,-324,25
1512179080,-0.0100,0.0028,0.4008,100.71,-172.67,908.87,312,-324,25
1512179080,0.0445,0.0100,0.4005,115.54,-179.50,906.31,318,-326,16
1512179080,0.0427,0.0075,0.4103,102.84,-122.07,977.78,318,-326,16
1512179080,0.0398,0.0027,0.4108,83.01,-165.34,995.67,318,-326,16
1512179080,0.0209,-0.0053,0.4057,125.85,-125.31,933.35,318,-326,16
1512179080,0.0772,0.0043,0.4069,82.52,-182.80,994.02,318,-326,16
1512179080,0.0337,-0.0025,0.4019,65.73,-163.15,993.47,328,-333,3
1512179080,-0.0116,-0.0100,0.4175,91.37,-174.62,908.39,328,-333,3
1512179080,-0.0152,-0.0153,0.3983,90.03,-184.75,948.97,328,-333,3
1512179080,0.0194,-0.0061,0.4055,100.46,-175.54,936.89,328,-333,3
1512179080,0.0262,0.0025,0.3890,136.96,-184.20,1021.79,328,-333,3
1512179080,0.0546,0.0089,0.3751,224.85,-195.19,1055.66,323,-320,15
1512179080,0.0847,0.0306,0.3641,150.15,-267.27,1066.53,323,-320,15
1512179080,0.0931,0.0184,0.3937,164.79,-189.70,806.09,323,-320,15
1512179080,0.0732,0.0221,0.3740,140.75,-206.91,811.89,323,-320,15
1512179080,0.1189,0.0260,0.3798,62.32,-128.85,872.13,347,-324,25
1512179080,0.0893,0.0369,0.3908,59.20,-101.38,873.41,347,-324,25
1512179080,0.0651,0.0387,0.3871,36.62,-112.73,915.95,347,-324,25
1512179080,-0.0138,0.0093,0.3929,4.39,-85.45,894.84,347,-324,25
1512179081,-0.0434,0.0134,0.3858,70.37,-147.58,903.81,347,-324,25
1512179081,-0.0401,0.0254,0.3754,84.23,-127.62,950.99,363,-304,30
1512179081,-0.0368,0.0205,0.3655,86.73,-165.22,950.01,363,-304,30
1512179081,-0.0522,0.0140,0.3521,100.83,-156.86,967.04,363,-304,30
1512179081,-0.0060,0.0224,0.3471,105.10,-165.34,947.14,363,-304,30
1512179081,-0.0138,0.0158,0.3401,88.62,-185.12,1008.85,356,-287,20
1512179081,-0.0320,0.0124,0.3326,92.59,-204.04,937.99,356,-287,20
1512179081,-0.0048,0.0198,0.3340,89.84,-186.58,906.19,356,-287,20
1512179081,0.0059,0.0120,0.3290,88.99,-121.95,1036.50,356,-287,20
1512179081,-0.0113,0.0017,0.3253,96.50,-192.26,987.43,356,-287,20
1512179081,0.0209,-0.0025,0.3217,118.35,-129.52,1022.77,367,-294,20
1512179081,-0.0127,-0.0269,0.3173,9.70,-191.83,1090.64,367,-294,20
1512179081,-0.0154,-0.0430,0.3143,35.10,-146.85,946.41,367,-294,20
1512179081,-0.0254,-0.0088,0.3065,100.40,-182.07,920.10,367,-294,20
1512179081,-0.0149,-0.0262,0.3188,101.93,-89.84,973.39,367,-294,20
1512179081,-0.0433,-0.0570,0.3139,47.79,-237.85,912.41,367,-287,23
1512179081,0.0405,-0.0321,0.3514,175.72,-187.13,762.76,367,-287,23
1512179081,0.0575,-0.0206,0.3747,16.91,-249.94,1092.29,367,-287,23
1512179081,-0.0246,-0.0020,0.3663,148.99,-179.57,878.60,367,-287,23
1512179081,-0.0236,0.0157,0.2895,102.84,-240.42,960.08,367,-287,23
1512179081,0.0213,0.0360,0.2896,21.48,-185.91,1090.15,381,-290,10
1512179081,-0.0636,0.0457,0.2699,78.37,-172.42,849.79,381,-290,10
1512179081,-0.0233,0.0611,0.2686,75.20,-195.01,907.71,381,-290,10
1512179081,0.0000,0.0601,0.2679,76.29,-168.21,985.05,381,-290,10
1512179081,0.0121,0.0668,0.2676,102.23,-172.49,938.48,391,-273,20
1512179081,-0.0025,0.0573,0.2581,74.40,-215.09,973.33,391,-273,20
1512179081,0.0133,0.0651,0.2574,85.75,-166.32,966.37,391,-273,20
1512179081,0.0318,0.0638,0.2434,66.04,-195.80,942.44,391,-273,20
1512179081,0.0369,0.0627,0.2404,37.17,-149.35,993.16,391,-273,20
1512179081,0.0068,0.0426,0.2370,38.57,-183.17,916.50,395,-273,44
1512179081,0.0232,0.0302,0.2388,9.46,-178.16,976.99,395,-273,44
1512179081,-0.0027,0.0270,0.2301,42.42,-170.65,893.80,395,-273,44
1512179081,0.0415,0.0559,0.2232,39.18,-169.62,940.92,395,-273,44
1512179081,-0.0016,0.0477,0.2128,75.50,-195.01,911.50,388,-248,23
1512179081,0.0035,0.0415,0.2069,57.37,-186.22,945.98,388,-248,23
1512179081,-0.0020,0.0358,0.2056,61.95,-183.78,922.91,388,-248,23
1512179081,0.0141,0.0478,0.2021,71.41,-168.82,1002.93,388,-248,23
1512179081,0.0141,0.0505,0.1968,31.92,-217.96,988.34,388,-248,23
1512179082,0.0329,0.0463,0.1939,7.81,-171.26,1000.37,391,-252,23
1512179082,-0.0107,0.0330,0.1915,5.49,-203.80,904.11,391,-252,23
1512179082,0.0004,0.0276,0.1901,36.01,-126.40,933.11,391,-252,23
1512179082,-0.0055,0.0222,0.1851,-20.87,-174.68,973.27,391,-252,23
1512179082,-0.0053,0.0193,0.1791,-9.28,-174.44,987.67,391,-252,23
1512179082,0.0095,0.0238,0.1776,8.30,-129.33,957.46,370,-241,23
1512179082,0.0276,0.0313,0.1715,-3.05,-188.96,1023.93,370,-241,23
1512179082,0.0530,0.0310,0.1679,26.73,-163.15,1016.42,370,-241,23
1512179082,0.0144,0.0310,0.1579,32.29,-174.38,917.72,370,-241,23
1512179082,0.0240,0.0274,0.1527,22.77,-161.13,969.30,388,-227,10
1512179082,0.0328,0.0316,0.1462,3.66,-143.01,976.20,388,-227,10
1512179082,0.0061,0.0201,0.1414,-24.35,-177.55,972.29,388,-227,10
1512179082,-0.0037,0.0133,0.1356,-18.07,-183.35,928.10,388,-227,10
1512179082,-0.0220,0.0129,0.1330,-7.93,-135.38,890.81,388,-227,10
1512179082,-0.0099,0.0154,0.1274,-12.15,-169.92,904.48,372,-222,38
1512179082,0.0218,0.0277,0.1210,27.89,-129.94,944.82,372,-222,38
1512179082,0.0129,0.0210,0.1196,-32.59,-156.80,1017.82,372,-222,38
1512179082,0.0112,0.0213,0.1100,-5.55,-152.53,1005.19,372,-222,38
1512179082,-0.0027,0.0301,0.1072,-10.19,-122.80,984.86,386,-232,42
1512179082,-0.0145,0.0205,0.0985,16.17,-133.42,964.66,386,-232,42
1512179082,0.0324,0.0107,0.1073,-54.44,-161.19,1051.82,386,-232,42
1512179082,-0.0101,0.0414,0.1116,124.21,-193.30,688.72,386,-232,42
1512179082,0.0609,0.0642,0.0882,-48.40,-154.24,1079.47,386,-232,42
1512179082,0.0605,0.0344,0.0780,-0.06,-161.13,1041.56,398,-216,44
1512179082,-0.0310,0.0228,0.0778,27.53,-119.20,929.57,398,-216,44
1512179082,-0.0037,0.0113,0.0791,-21.30,-155.94,939.58,398,-216,44
1512179082,-0.0154,0.0173,0.0722,-23.93,-136.78,993.53,398,-216,44
1512179082,0.0020,0.0356,0.0738,-47.49,-146.67,1082.09,398,-216,44
1512179082,-0.0127,0.0429,0.0659,-37.84,-147.16,1049.62,404,-218,38
1512179082,0.0390,0.0531,0.0613,-18.31,-155.03,1007.26,404,-218,38
1512179082,-0.0250,0.0518,0.0510,-1.53,-176.82,945.37,404,-218,38
1512179082,-0.0157,0.0602,0.0459,26.43,-203.37,879.70,404,-218,38
1512179082,-0.0096,0.0559,0.0470,-8.00,-129.52,896.12,405,-216,37
1512179082,0.0304,0.0574,0.0443,-45.23,-114.07,1046.51,405,-216,37
1512179082,0.0342,0.0660,0.0489,-81.97,-113.71,1019.53,405,-216,37
1512179082,0.0111,0.0626,0.0475,-82.28,-130.86,1034.61,405,-216,37
1512179082,-0.0474,0.0502,0.0434,-62.01,-136.90,927.19,405,-216,37
1512179083,-0.0668,0.0431,0.0447,-36.80,-113.34,887.02,393,-222,11
1512179083,-0.0057,0.0509,0.0422,-57.07,-159.00,913.33,393,-222,11
1512179083,0.0053,0.0501,0.0364,-22.77,-136.60,932.37,393,-222,11
1512179083,0.0257,0.0415,0.0334,-41.50,-120.67,994.08,393,-222,11
1512179083,0.0169,0.0220,0.0296,-45.84,-154.48,976.14,393,-222,11
1512179083,0.0318,-0.0089,0.0312,-163.88,-142.64,1058.78,386,-229,11
1512179083,0.0188,0.0365,0.0218,41.08,-44.86,765.26,386,-229,11
1512179083,-0.0129,0.0252,0.0225,-129.58,-237.43,935.91,386,-229,11
1512179083,0.0629,0.0233,0.0198,-46.20,-133.54,909.55,386,-229,11
1512179083,-0.0285,0.0413,0.0153,-40.71,-185.85,901.25,407,-222,-1
1512179083,0.0091,0.0099,0.0105,-35.77,-158.57,855.65,407,-222,-1
1512179083,0.0389,0.0152,0.0035,-26.98,-96.25,991.09,407,-222,-1
1512179083,0.0257,0.0138,0.0003,-137.94,-111.21,1031.68,407,-222,-1
1512179083,0.0337,0.0184,-0.0065,-95.28,-113.40,998.66,407,-222,-1
1512179083,0.0501,0.0119,-0.0125,-96.50,-62.26,1067.32,391,-216,10
1512179083,0.0562,0.0158,-0.0218,-57.19,-89.60,1003.48,391,-216,10
1512179083,0.0585,0.0206,-0.0250,-60.00,-70.37,916.69,391,-216,10
1512179083,0.0722,0.0270,-0.0326,-84.35,-100.65,979.55,391,-216,10
1512179083,0.0919,0.0284,-0.0368,-48.03,-70.74,1030.64,383,-229,8
1512179083,0.0766,0.0206,-0.0399,-79.83,-90.88,1028.93,383,-229,8
1512179083,0.0521,0.0089,-0.0485,-100.71,-72.14,972.96,383,-229,8
1512179083,0.0278,0.0194,-0.0465,-117.13,-109.80,871.77,383,-229,8
1512179083,0.0304,0.0301,-0.0523,-101.44,-126.22,869.51,383,-229,8
1512179083,0.0382,0.0288,-0.0526,-90.33,-129.82,886.72,397,-222,22
1512179083,0.0334,0.0107,-0.0509,-83.37,-103.64,909.61,397,-222,22
1512179083,0.0137,-0.0083,-0.0474,-128.36,-111.82,908.08,397,-222,22
1512179083,0.0334,-0.0063,-0.0495,-79.22,-97.47,908.94,397,-222,22
1512179083,0.0168,-0.0115,-0.0447,-114.87,-43.58,946.04,397,-222,22
1512179083,0.0314,-0.0031,-0.0499,-79.47,-102.72,923.77,381,-223,3
1512179083,0.0622,-0.0065,-0.0506,-115.72,-99.49,1001.22,381,-223,3
1512179083,0.0152,-0.0080,-0.0578,-69.89,-109.19,848.45,381,-223,3
1512179083,0.0321,-0.0091,-0.0527,-101.68,-106.57,985.17,381,-223,3
1512179083,0.0349,-0.0079,-0.0513,-110.29,-112.92,962.52,418,-229,18
1512179083,0.0249,-0.0107,-0.0495,-93.02,-96.74,869.02,418,-229,18
1512179083,0.0201,-0.0111,-0.0551,-89.29,-151.43,1006.65,418,-229,18
1512179083,0.0321,-0.0073,-0.0575,-73.91,-130.49,960.27,418,-229,18
1512179083,0.0142,-0.0047,-0.0579,-91.13,-142.76,892.94,418,-229,18
1512179083,0.0410,-0.0210,-0.0578,-84.66,-70.74,947.20,400,-232,5
1512179084,0.0425,-0.0200,-0.0610,-81.30,-89.97,958.25,400,-232,5
1512179084,0.0563,-0.0273,-0.0591,-67.26,-48.65,950.99,400,-232,5
1512179084,0.0590,-0.0285,-0.0654,-112.67,-58.84,973.88,400,-232,5
1512179084,0.0862,-0.0198,-0.0706,-86.36,-61.40,953.55,400,-232,5
1512179084,0.0383,-0.0278,-0.0734,-25.70,-23.80,916.44,388,-237,10
1512179084,0.0236,-0.0349,-0.0772,5.98,-65.31,962.28,388,-237,10
1512179084,0.0121,-0.0475,-0.0760,-17.88,-45.78,877.08,388,-237,10
1512179084,0.0316,-0.0459,-0.0780,-64.33,-34.61,836.30,388,-237,10
1512179084,0.0326,-0.0378,-0.0766,-108.70,-47.67,979.25,386,-250,15
1512179084,0.0348,-0.0269,-0.0755,-106.08,-42.42,974.12,386,-250,15
1512179084,-0.0285,-0.0320,-0.0711,-88.01,-53.89,924.01,386,-250,15
1512179084,-0.0316,-0.0304,-0.0760,-66.35,-50.54,894.04,386,-250,15
1512179084,0.0029,-0.0350,-0.0752,-49.32,-38.15,969.18,386,-250,15
1512179084,-0.0130,-0.0321,-0.0848,-81.79,-62.32,924.19,368,-239,15
1512179084,0.0056,-0.0326,-0.0806,-78.86,12.15,987.37,368,-239,15
1512179084,-0.0268,-0.0370,-0.0822,-73.67,10.13,927.92,368,-239,15
1512179084,-0.0093,-0.0386,-0.0838,-57.98,-13.67,971.68,368,-239,15
1512179084,0.0013,-0.0277,-0.0903,-22.89,5.37,924.19,368,-239,15
1512179084,-0.0053,-0.0325,-0.0891,-53.77,1.22,962.95,398,-248,23
1512179084,-0.0093,-0.0336,-0.0948,-53.16,-36.32,907.59,398,-248,23
1512179084,-0.0111,-0.0478,-0.1001,-61.95,-19.04,983.22,398,-248,23
1512179084,-0.0503,-0.0565,-0.1007,-72.02,-10.50,913.57,398,-248,23
1512179084,-0.0655,-0.0591,-0.1049,-10.86,-67.20,831.30,398,-252,6
1512179084,-0.0127,-0.0380,-0.1057,-68.97,-29.17,877.01,398,-252,6
1512179084,-0.0241,-0.0361,-0.1186,-28.75,-82.64,927.19,398,-252,6
1512179084,-0.0193,-0.0328,-0.1145,-55.36,-28.14,895.69,398,-252,6
1512179084,-0.0376,-0.0485,-0.1201,-58.11,-8.24,911.07,398,-252,6
1512179084,0.0019,-0.0442,-0.1245,-40.22,9.46,950.44,386,-243,15
1512179084,-0.0146,-0.0479,-0.1324,-58.65,32.10,962.28,386,-243,15
1512179084,-0.0043,-0.0441,-0.1366,-68.91,10.38,890.08,386,-243,15
1512179084,-0.0413,-0.0486,-0.1401,-123.66,23.50,967.53,386,-243,15
1512179084,-0.0453,-0.0402,-0.1467,-78.92,27.83,961.85,391,-245,33
1512179084,0.0533,-0.0036,-0.1469,-95.40,46.14,1132.75,391,-245,33
1512179084,-0.0178,-0.0049,-0.1535,-14.10,34.48,979.00,391,-245,33
1512179084,-0.0439,-0.0112,-0.1531,-53.16,23.56,971.68,391,-245,33
1512179084,-0.0188,-0.0035,-0.1561,-31.43,46.63,924.13,391,-245,33
1512179084,-0.0269,-0.0051,-0.1609,-78.86,68.79,985.17,386,-239,52
1512179084,-0.0672,-0.0180,-0.1650,-67.02,19.35,830.14,386,-239,52
1512179085,-0.0454,-0.0226,-0.1626,-150.33,66.65,930.05,386,-239,52
1512179085,-0.0660,-0.0386,-0.1722,-92.96,46.08,902.71,386,-239,52
1512179085,-0.0125,-0.0288,-0.1678,-93.44,40.95,944.76,386,-239,52
1512179085,-0.0654,-0.0381,-0.1738,-42.48,15.69,824.77,404,-236,35
1512179085,-0.0146,-0.0096,-0.1759,-44.68,16.85,960.88,404,-236,35
1512179085,-0.0399,-0.0290,-0.1810,-75.20,7.02,954.77,404,-236,35
1512179085,-0.0366,-0.0293,-0.1831,-43.40,37.23,1002.81,404,-236,35
1512179085,-0.0286,-0.0136,-0.1842,-46.45,56.52,1010.13,409,-237,33
1512179085,-0.0633,-0.0180,-0.1807,-52.67,38.09,964.11,409,-237,33
1512179085,-0.0245,-0.0166,-0.1852,-85.82,46.81,1033.75,409,-237,33
1512179085,0.0005,-0.0196,-0.1790,-128.48,87.59,1150.02,409,-237,33
1512179085,-0.0471,-0.0278,-0.1780,-65.67,24.90,906.92,409,-237,33
1512179085,-0.0237,-0.0146,-0.1799,-11.84,23.44,1018.86,397,-243,22
1512179085,0.0153,-0.0101,-0.1840,-0.67,35.10,963.13,397,-243,22
1512179085,0.0305,-0.0166,-0.1904,-35.83,23.19,1001.65,397,-243,22
1512179085,0.0226,-0.0192,-0.1883,-58.59,30.40,924.01,397,-243,22
1512179085,-0.0085,-0.0119,-0.1921,-25.15,30.03,878.97,397,-243,22
1512179085,0.0305,0.0035,-0.1911,-62.81,45.23,928.89,393,-260,11
1512179085,0.0289,0.0138,-0.1987,-71.29,41.93,945.37,393,-260,11
1512179085,0.0024,0.0111,-0.1976,-66.59,69.34,1005.68,393,-260,11
1512179085,-0.0924,0.0035,-0.2033,-25.21,65.98,916.87,393,-260,11
1512179085,-0.0506,0.0048,-0.2019,-115.48,35.10,887.21,381,-255,10
1512179085,0.0241,0.0121,-0.2133,-41.20,49.07,975.95,381,-255,10
1512179085,-0.0465,0.0073,-0.2121,-93.44,54.93,947.94,381,-255,10
1512179085,-0.0382,-0.0077,-0.2210,-92.47,75.13,960.88,381,-255,10
1512179085,-0.0329,-0.0119,-0.2210,-60.67,83.50,895.57,381,-255,10
1512179085,-0.0361,0.0004,-0.2302,-81.60,53.53,945.62,390,-282,11
1512179085,0.0101,0.0027,-0.2316,-80.57,70.07,924.68,390,-282,11
1512179085,0.0099,0.0123,-0.2357,-104.19,79.22,973.88,390,-282,11
1512179085,-0.0112,0.0048,-0.2390,-104.31,104.31,934.81,390,-282,11
1512179085,-0.0020,0.0084,-0.2477,-77.27,68.85,937.50,390,-282,11
1512179085,-0.0543,0.0003,-0.2574,-71.78,35.10,919.98,386,-278,15
1512179085,-0.0802,-0.0080,-0.2630,1.28,17.03,848.63,386,-278,15
1512179085,0.0007,0.0252,-0.2565,-15.56,22.77,975.46,386,-278,15
1512179085,0.0119,0.0332,-0.2645,-37.11,68.79,916.87,386,-278,15
1512179085,0.0312,0.0226,-0.2716,-57.31,84.05,1027.59,381,-273,16
1512179085,0.0269,0.0280,-0.2839,-41.20,87.34,1044.43,381,-273,16
1512179086,-0.0586,0.0170,-0.2831,-134.83,71.96,1025.63,381,-273,16
1512179086,-0.0260,0.0186,-0.2840,-52.00,123.60,900.45,381,-273,16
1512179086,-0.0538,0.0325,-0.2815,-86.61,109.86,969.24,381,-273,16
1512179086,0.0048,0.0437,-0.2855,-107.73,43.82,920.47,372,-275,11
1512179086,-0.0162,0.0310,-0.2843,-121.15,111.21,922.67,372,-275,11
1512179086,-0.0559,0.0137,-0.2880,-134.46,118.29,960.51,372,-275,11
1512179086,-0.0165,0.0332,-0.2875,-137.94,102.60,1040.83,372,-275,11
1512179086,-0.0164,0.0383,-0.2923,-88.13,93.69,988.95,377,-280,23
1512179086,-0.0589,0.0244,-0.2819,-147.28,128.85,1024.05,377,-280,23
1512179086,-0.0407,0.0309,-0.2947,-118.59,64.51,985.29,377,-280,23
1512179086,-0.0341,0.0638,-0.2956,-107.67,11.72,989.01,377,-280,23
1512179086,0.0618,0.0707,-0.2976,-45.47,123.66,993.04,377,-280,23
1512179086,0.0146,0.0772,-0.2944,-78.37,47.91,990.97,377,-283,10
1512179086,0.0043,0.0670,-0.2984,-146.36,89.66,998.23,377,-283,10
1512179086,-0.0290,0.0443,-0.2932,-138.79,82.89,841.67,377,-283,10
1512179086,0.0185,0.0281,-0.2936,-188.29,113.16,1056.03,377,-283,10
1512179086,0.0216,0.0344,-0.2929,-126.89,93.32,922.73,377,-283,10
1512179086,-0.0334,0.0157,-0.2876,-113.77,102.54,942.63,368,-292,15
1512179086,-0.0012,-0.0001,-0.2862,-175.29,66.16,1019.59,368,-292,15
1512179086,0.0245,0.0188,-0.2868,-92.29,120.61,973.75,368,-292,15
1512179086,-0.0031,0.0182,-0.2867,-91.67,70.31,948.61,368,-292,15
1512179086,-0.0161,-0.0071,-0.2917,-139.65,44.86,1035.89,360,-312,-3
1512179086,-0.0803,-0.0049,-0.2933,-26.25,112.98,911.68,360,-312,-3
1512179086,-0.0796,-0.0285,-0.2834,-141.78,72.51,957.52,360,-312,-3
1512179086,0.0517,-0.0036,-0.2863,-129.03,95.15,967.10,360,-312,-3
1512179086,0.0017,0.0132,-0.2822,-117.80,104.19,934.45,360,-312,-3
1512179086,0.0016,0.0091,-0.2859,-92.90,55.73,906.07,368,-320,15
1512179086,-0.0439,0.0043,-0.2831,-106.45,72.39,942.93,368,-320,15
1512179086,0.0079,-0.0008,-0.2820,-89.17,85.21,922.12,368,-320,15
1512179086,-0.0205,-0.0041,-0.2859,-115.05,66.53,902.89,368,-320,15
1512179086,-0.0052,0.0140,-0.2913,-60.97,66.22,1004.15,368,-320,15
1512179086,-0.0534,0.0134,-0.2932,-59.94,18.98,921.33,347,-317,11
1512179086,-0.0613,-0.0032,-0.2949,-53.96,73.73,804.99,347,-317,11
1512179086,0.0172,0.0063,-0.2931,-98.57,85.51,946.59,347,-317,11
1512179086,0.0043,-0.0109,-0.2915,-75.56,57.43,949.28,347,-317,11
1512179086,-0.0176,-0.0164,-0.2866,-75.99,90.70,934.27,349,-319,3
1512179086,-0.0164,-0.0158,-0.2786,-116.46,86.91,971.37,349,-319,3
1512179086,-0.0360,-0.0328,-0.2727,-86.18,40.41,860.05,349,-319,3
1512179087,-0.0089,-0.0445,-0.2670,-83.80,70.07,996.58,349,-319,3
1512179087,0.0119,-0.0292,-0.2660,-62.99,66.89,979.43,349,-319,3
1512179087,0.0640,-0.0117,-0.2692,-73.61,61.83,1106.45,342,-329,10
1512179087,0.0137,-0.0406,-0.2645,-93.93,125.00,1023.56,342,-329,10
1512179087,-0.0326,-0.0304,-0.2672,-3.11,73.97,895.02,342,-329,10
1512179087,-0.0273,-0.0257,-0.2633,-68.30,47.97,889.40,342,-329,10
1512179087,0.0338,-0.0035,-0.2676,-55.36,39.86,947.57,321,-336,0
1512179087,0.0617,0.0109,-0.2654,-56.15,89.72,1008.97,321,-336,0
1512179087,0.0465,0.0049,-0.2618,-108.34,87.46,1063.96,321,-336,0
1512179087,-0.0462,-0.0341,-0.2581,-75.87,69.58,944.58,321,-336,0
1512179087,-0.0816,-0.0385,-0.2509,-86.67,48.89,824.83,321,-336,0
1512179087,-0.0405,-0.0280,-0.2466,-44.43,58.65,888.49,312,-338,11
1512179087,-0.0296,-0.0204,-0.2409,-80.51,29.24,867.00,312,-338,11
1512179087,0.0079,-0.0141,-0.2354,-44.68,17.94,982.06,312,-338,11
1512179087,-0.0380,-0.0096,-0.2329,-27.16,28.87,882.39,312,-338,11
1512179087,-0.0337,0.0065,-0.2229,-16.78,31.86,871.09,312,-338,11
1512179087,-0.0320,0.0003,-0.2178,-61.52,35.89,940.80,323,-345,18
1512179087,-0.0626,-0.0083,-0.2029,-30.58,70.13,1025.70,323,-345,18
1512179087,-0.1060,-0.0162,-0.1964,17.64,20.87,910.83,323,-345,18
1512179087,-0.0614,-0.0262,-0.1767,-53.59,-22.52,844.24,323,-345,18
1512179087,-0.0216,-0.0700,-0.1726,4.09,37.11,999.15,298,-352,15
1512179087,-0.0621,-0.0704,-0.1694,-33.20,45.35,1128.72,298,-352,15
1512179087,-0.0209,-0.0232,-0.1630,-18.98,11.60,950.01,298,-352,15
1512179087,-0.0249,-0.0009,-0.1569,-5.98,26.00,1004.15,298,-352,15
1512179087,-0.0362,-0.0305,-0.1493,54.08,-15.56,1146.73,298,-352,15
1512179087,0.0170,0.0065,-0.1481,46.02,-78.74,1026.79,300,-343,-3
1512179087,-0.0675,0.0129,-0.1298,72.27,0.06,806.70,300,-343,-3
1512179087,-0.0676,0.0148,-0.1248,65.06,-45.04,956.24,300,-343,-3
1512179087,0.0048,0.0419,-0.1204,-27.77,-55.85,1039.43,300,-343,-3
1512179087,-0.0149,0.0377,-0.1083,16.78,-1.46,950.13,300,-343,-3
1512179087,-0.0077,0.0423,-0.1051,83.37,-34.12,993.10,295,-342,8
1512179087,-0.0385,0.0317,-0.0965,35.10,-30.03,988.83,295,-342,8
1512179087,0.0214,0.0559,-0.0887,57.50,-18.92,939.51,295,-342,8
1512179087,0.0144,0.0646,-0.0811,29.97,25.21,1026.18,295,-342,8
1512179087,-0.0043,0.0555,-0.0812,52.80,-50.23,945.07,284,-334,8
1512179087,-0.0113,0.0222,-0.0679,-0.43,-13.49,948.24,284,-334,8
1512179087,0.0047,0.0230,-0.0652,13.49,2.14,900.45,284,-334,8
1512179087,-0.0226,0.0233,-0.0562,17.94,-3.60,963.68,284,-334,8
1512179088,0.0087,0.0142,-0.0437,1.10,-33.75,973.69,284,-334,8
1512179088,-0.0248,0.0048,-0.0341,66.10,-20.14,947.27,307,-340,6
1512179088,0.0142,0.0152,-0.0265,71.41,-75.56,921.51,307,-340,6
1512179088,-0.0425,0.0005,-0.0197,86.24,-60.79,846.56,307,-340,6
1512179088,-0.0414,-0.0016,-0.0127,35.58,-12.02,920.53,307,-340,6
1512179088,-0.0232,0.0121,-0.0004,14.10,-4.33,1004.15,282,-333,20
1512179088,-0.0337,0.0188,0.0091,28.93,-24.17,939.70,282,-333,20
1512179088,0.0370,0.0254,0.0146,56.58,-25.02,981.14,282,-333,20
1512179088,-0.0377,0.0027,0.0245,82.28,-10.31,990.72,282,-333,20
1512179088,-0.0222,-0.0079,0.0427,71.78,-8.24,898.93,282,-333,20
1512179088,0.0055,-0.0264,0.0425,97.29,-46.88,1036.25,291,-349,11
1512179088,0.0055,-0.0107,0.0479,159.42,-10.13,970.21,291,-349,11
1512179088,0.0225,-0.0173,0.0550,71.96,-80.99,955.44,291,-349,11
1512179088,0.0145,-0.0370,0.0670,64.82,-36.44,875.31,291,-349,11
1512179088,-0.0724,-0.0577,0.0784,107.60,-30.82,845.46,291,-349,11
1512179088,0.0028,-0.0469,0.0921,106.57,-24.84,947.14,289,-333,3
1512179088,0.0418,-0.0237,0.1035,89.29,-72.27,950.44,289,-333,3
1512179088,0.0678,-0.0020,0.1107,130.07,-45.84,1012.57,289,-333,3
1512179088,0.0442,0.0067,0.1341,207.28,-99.24,1036.32,289,-333,3
1512179088,0.0119,0.0048,0.1455,140.20,-30.64,1027.95,289,-333,3
1512179088,0.0401,0.0260,0.1530,143.86,9.16,963.50,288,-334,11
1512179088,0.0443,0.0426,0.1595,101.07,-73.97,978.03,288,-334,11
1512179088,0.0274,0.0445,0.1648,109.13,-31.80,1038.09,288,-334,11
1512179088,-0.0743,0.0107,0.1642,131.16,-96.80,999.27,288,-334,11
1512179088,-0.0570,0.0091,0.1710,148.56,-66.71,899.90,298,-327,18
1512179088,-0.0631,0.0075,0.1739,155.94,-128.60,874.51,298,-327,18
1512179088,-0.0297,0.0043,0.1776,193.91,-124.45,790.65,298,-327,18
1512179088,-0.0274,-0.0158,0.1927,180.79,-57.68,849.49,298,-327,18
1512179088,-0.0246,-0.0156,0.1937,135.25,-107.18,861.21,298,-327,18
1512179088,-0.0017,-0.0205,0.2055,154.85,-96.68,902.47,300,-326,16
1512179088,0.0288,-0.0013,0.2164,159.36,-30.88,908.39,300,-326,16
1512179088,0.0294,0.0031,0.2217,122.19,-109.99,964.78,300,-326,16
1512179088,0.0385,0.0075,0.2313,172.67,-35.34,955.63,300,-326,16
1512179088,0.0208,0.0119,0.2362,92.77,-117.49,1049.93,300,-326,16
1512179088,0.0194,0.0073,0.2442,162.17,-104.13,978.39,307,-336,3
1512179088,-0.0222,0.0043,0.2503,117.68,-63.72,915.83,307,-336,3
1512179088,-0.0270,0.0226,0.2570,150.21,-102.91,919.86,307,-336,3
1512179088,-0.0055,0.0197,0.2654,105.71,-55.73,1009.09,307,-336,3
1512179089,-0.0205,0.0121,0.2759,144.47,-116.33,884.16,309,-317,22
1512179089,-0.0493,-0.0100,0.2836,113.40,-100.04,873.96,309,-317,22
1512179089,-0.0228,-0.0004,0.2867,128.42,-81.05,956.05,309,-317,22
1512179089,0.0224,0.0091,0.2923,90.82,-72.33,1037.60,309,-317,22
1512179089,0.0083,-0.0009,0.2906,154.91,-105.71,861.63,309,-317,22
1512179089,0.0417,-0.0013,0.2920,157.23,-109.92,1063.60,311,-312,13
1512179089,0.0277,-0.0148,0.2903,164.86,-95.09,1011.47,311,-312,13
1512179089,0.0289,-0.0229,0.2975,96.98,-49.74,996.03,311,-312,13
1512179089,0.0679,-0.0145,0.2964,169.62,-91.37,975.46,311,-312,13
1512179089,0.0413,-0.0056,0.3019,139.71,-97.47,904.60,311,-312,13
1512179089,0.0411,-0.0123,0.3064,132.69,-124.76,928.83,333,-299,1
1512179089,-0.0168,-0.0226,0.3197,166.63,-122.25,889.40,333,-299,1
1512179089,0.0189,-0.0304,0.3185,150.57,-101.68,921.94,333,-299,1
1512179089,-0.0100,-0.0276,0.3249,135.86,-117.68,954.28,333,-299,1
1512179089,-0.0004,-0.0186,0.3313,138.85,-144.53,885.93,340,-306,11
1512179089,-0.0173,-0.0073,0.3340,206.73,-133.00,819.89,340,-306,11
1512179089,0.0309,-0.0144,0.3413,128.17,-122.31,942.69,340,-306,11
1512179089,0.0197,-0.0312,0.3427,168.15,-68.36,915.22,340,-306,11
1512179089,0.0261,-0.0338,0.3461,124.69,-70.92,1001.34,340,-306,11
1512179089,-0.0198,-0.0414,0.3453,121.34,-72.33,955.26,330,-299,18
1512179089,-0.0064,-0.0197,0.3501,219.36,-105.90,944.95,330,-299,18
1512179089,-0.0012,-0.0168,0.3514,186.89,-147.40,962.40,330,-299,18
1512179089,-0.0383,-0.0262,0.3533,219.60,-169.92,870.79,330,-299,18
1512179089,0.0266,-0.0051,0.3676,216.61,-112.92,975.10,330,-299,18
1512179089,0.0037,-0.0060,0.3635,213.26,-137.21,985.23,349,-301,3
1512179089,0.0443,-0.0059,0.3684,199.16,-72.75,962.95,349,-301,3
1512179089,0.0486,0.0037,0.3750,159.85,-61.22,995.67,349,-301,3
1512179089,0.0060,0.0017,0.3819,185.79,-125.98,912.90,349,-301,3
1512179089,-0.0172,0.0007,0.3850,179.57,-110.53,912.48,349,-287,16
1512179089,0.0209,0.0096,0.3890,163.02,-118.71,870.54,349,-287,16
1512179089,-0.0071,-0.0104,0.3892,179.14,-162.78,933.84,349,-287,16
1512179089,-0.0553,-0.0150,0.3863,195.19,-135.31,918.40,349,-287,16
1512179089,0.0076,-0.0166,0.4017,184.69,-123.41,951.48,349,-287,16
1512179089,-0.0218,-0.0127,0.4081,229.37,-80.99,912.54,361,-271,5
1512179089,-0.0028,-0.0036,0.4083,182.68,-113.77,948.06,361,-271,5
1512179089,0.0678,0.0136,0.4121,198.18,-34.48,948.73,361,-271,5
1512179089,-0.0535,-0.0096,0.4139,195.19,-91.37,929.38,361,-271,5
1512179089,-0.0599,-0.0067,0.4214,236.02,-122.07,937.87,361,-271,5
1512179090,-0.0676,-0.0072,0.4328,220.76,-95.09,853.70,381,-266,13
1512179090,0.0024,-0.0063,0.4286,163.21,-60.79,914.86,381,-266,13
1512179090,0.0123,0.0406,0.4253,220.83,-34.30,1021.24,381,-266,13
1512179090,0.0377,0.0703,0.4180,183.96,-114.01,1014.65,381,-266,13
1512179090,0.0601,0.0493,0.4711,198.49,-54.20,965.09,386,-260,28
1512179090,-0.0181,0.0196,0.4338,208.50,-88.56,883.06,386,-260,28
1512179090,-0.0150,0.0003,0.4380,208.37,-80.63,884.64,386,-260,28
1512179090,0.0800,0.0364,0.4340,246.64,-77.27,1004.76,386,-260,28
1512179090,0.0152,0.0437,0.4408,226.38,-124.69,891.42,386,-260,28
1512179090,0.0434,0.0450,0.4465,204.41,-95.52,858.40,384,-252,23
1512179090,0.0740,0.0409,0.4503,134.70,-109.68,1035.10,384,-252,23
1512179090,0.0667,0.0041,0.4525,155.03,-60.85,1031.25,384,-252,23
1512179090,0.0148,-0.0059,0.4546,143.01,-100.46,968.14,384,-252,23
1512179090,-0.0004,-0.0068,0.4527,138.67,-104.00,975.28,384,-252,23
1512179090,0.0350,0.0166,0.4545,206.12,-103.27,937.01,390,-229,28
1512179090,0.0935,0.0293,0.4603,171.57,-68.73,1137.63,390,-229,28
1512179090,0.0232,0.0272,0.4609,179.08,-144.10,917.72,390,-229,28
1512179090,-0.0024,0.0210,0.4613,210.21,-93.26,858.76,390,-229,28
1512179090,0.0324,0.0494,0.4595,222.23,-90.52,960.45,397,-225,22
1512179090,0.0533,0.0469,0.4688,194.46,-106.75,1052.86,397,-225,22
1512179090,0.0198,0.0462,0.4767,200.32,-49.80,831.67,397,-225,22
1512179090,0.0531,0.0361,0.4871,162.54,-86.85,949.16,397,-225,22
1512179090,0.0915,0.0499,0.4755,126.95,-28.56,1034.97,397,-225,22
1512179090,0.0328,0.0514,0.4779,175.48,-45.96,950.26,405,-206,20
1512179090,0.0262,0.0748,0.4747,149.29,-100.89,961.79,405,-206,20
1512179090,-0.0290,0.0559,0.4707,195.37,-160.64,862.24,405,-206,20
1512179090,0.0028,0.0771,0.4642,136.90,-130.68,898.80,405,-206,20
1512179090,0.0063,0.0904,0.4613,203.86,-158.26,912.48,398,-202,47
1512179090,0.0613,0.0812,0.4617,127.32,-64.94,958.92,398,-202,47
1512179090,0.0258,0.0603,0.4614,145.32,-123.66,906.68,398,-202,47
1512179090,0.0340,0.0569,0.4694,157.47,-36.80,938.42,398,-202,47
1512179090,0.0925,0.0625,0.4692,108.22,-86.85,1004.76,398,-202,47
1512179090,0.0389,0.0557,0.4671,174.07,-54.26,847.96,402,-178,50
1512179090,0.0755,0.0611,0.4667,173.46,-37.72,897.28,402,-178,50
1512179090,0.0808,0.0469,0.4589,116.15,-117.92,912.54,402,-178,50
1512179090,0.0372,0.0302,0.4622,143.68,-8.67,827.82,402,-178,50
1512179090,0.0138,0.0206,0.4593,106.08,-39.98,951.78,402,-178,50
1512179090,0.0561,0.0170,0.4708,75.81,10.50,1002.14,397,-158,38
1512179091,-0.0083,0.0185,0.4790,98.39,-36.99,878.17,397,-158,38
1512179091,0.0609,0.0248,0.4748,82.89,-51.21,1008.18,397,-158,38
1512179091,-0.0120,0.0330,0.4731,179.38,-116.03,914.61,397,-158,38
1512179091,0.0198,0.0330,0.4799,154.36,-105.59,937.62,404,-162,38
1512179091,0.0100,0.0368,0.4750,164.55,-60.06,949.95,404,-162,38
1512179091,0.0882,0.0526,0.4730,146.73,-73.79,1011.47,404,-162,38
1512179091,0.0385,0.0595,0.4671,122.80,-113.22,979.06,404,-162,38
1512179091,0.0051,0.0356,0.4752,102.48,-112.37,893.86,404,-162,38
1512179091,0.0373,0.0439,0.4695,87.10,-85.75,1026.43,391,-142,30
1512179091,0.0121,0.0640,0.4735,113.10,-116.21,982.67,391,-142,30
1512179091,0.0336,0.0646,0.4808,130.13,-113.04,936.71,391,-142,30
1512179091,0.0644,0.0618,0.4919,61.04,-72.20,1008.48,391,-142,30
1512179091,0.0224,0.0660,0.4883,87.28,-136.72,922.97,391,-142,30
1512179091,0.0658,0.0756,0.4931,56.82,-139.47,898.99,407,-137,32
1512179091,0.0268,0.0668,0.4900,59.75,-133.42,975.04,407,-137,32
1512179091,0.0571,0.0631,0.4919,65.06,-151.79,1050.29,407,-137,32
1512179091,0.0338,0.0547,0.4952,94.54,-138.24,949.04,407,-137,32
1512179091,0.0455,0.0610,0.5027,63.78,-59.14,865.97,404,-102,38
1512179091,0.1498,0.0736,0.5013,28.02,-68.18,1165.41,404,-102,38
1512179091,0.0780,0.0531,0.4955,17.40,-141.97,1026.12,404,-102,38
1512179091,0.0318,0.0461,0.5056,70.50,-112.92,862.43,404,-102,38
1512179091,-0.0164,0.0236,0.5035,50.72,-125.00,913.76,404,-102,38
1512179091,0.0585,0.0344,0.5097,86.30,-120.54,937.38,397,-95,25
1512179091,0.0633,0.0301,0.5204,71.17,-93.26,910.71,397,-95,25
1512179091,0.0386,0.0234,0.5144,102.60,-119.57,923.28,397,-95,25
1512179091,0.0349,0.0127,0.5193,84.90,-122.01,868.29,397,-95,25
1512179091,0.0136,0.0112,0.5167,28.38,-117.25,974.24,397,-95,25
1512179091,0.0687,0.0212,0.5133,68.12,-135.99,1002.08,391,-79,37
1512179091,0.0145,0.0089,0.5220,40.41,-166.93,922.18,391,-79,37
1512179091,0.0369,0.0197,0.5238,115.84,-188.05,879.15,391,-79,37
1512179091,0.0740,0.0170,0.5213,-0.18,-83.01,1030.21,391,-79,37
1512179091,0.0306,0.0242,0.5594,29.60,-151.61,979.37,377,-75,40
1512179091,0.0952,0.0407,0.5230,36.25,-77.45,1053.71,377,-75,40
1512179091,0.0181,0.0190,0.5310,64.70,-104.31,879.70,377,-75,40
1512179091,0.0321,0.0212,0.5302,97.96,-38.02,932.07,377,-75,40
1512179091,0.0478,0.0091,0.5380,70.98,-24.41,967.83,377,-75,40
1512179091,0.0403,-0.0374,0.5441,-38.39,58.65,1150.63,384,-65,47
1512179091,-0.1364,-0.0479,0.5201,34.06,-50.66,1101.14,384,-65,47
1512179092,-0.1384,-0.0517,0.5246,-5.80,-70.25,1053.28,384,-65,47
1512179092,-0.2341,-0.0794,0.5240,36.93,-110.84,999.82,384,-65,47
1512179092,-0.2337,-0.0883,0.5284,56.27,-109.56,960.27,384,-65,47
1512179092,-0.2032,-0.0899,0.5248,59.88,-155.52,1025.82,368,-77,38
1512179092,-0.1909,-0.0860,0.5244,61.34,-199.10,895.08,368,-77,38
1512179092,-0.1449,-0.0626,0.5205,99.06,-176.94,842.83,368,-77,38
1512179092,-0.1103,-0.0425,0.5398,86.24,-193.91,919.98,368,-77,38
1512179092,-0.1013,-0.0487,0.5992,147.16,-197.57,999.82,398,-51,27
1512179092,-0.0324,-0.0419,0.6666,159.42,-199.65,900.51,398,-51,27
1512179092,-0.0061,-0.0447,0.7863,82.64,-159.85,865.72,398,-51,27
1512179092,-0.0152,-0.0386,0.9266,15.63,-243.10,826.42,398,-51,27
1512179092,0.0557,0.0201,0.6238,189.15,-200.26,1018.80,398,-51,27
1512179092,0.0029,0.0353,0.6599,147.95,-234.13,1096.13,397,-70,32
1512179092,0.0647,0.0987,0.6033,216.74,-116.03,1138.37,397,-70,32
1512179092,0.0888,0.1581,0.5189,225.04,-193.30,1003.48,397,-70,32
1512179092,0.0245,0.1814,0.5059,156.98,-194.82,951.90,397,-70,32
1512179092,0.0667,0.2083,0.4972,149.05,-126.83,1095.28,397,-70,32
1512179092,0.0409,0.2377,0.4985,88.44,-131.35,981.20,386,-49,35
1512179092,0.0506,0.2687,0.4967,134.22,-184.39,880.80,386,-49,35
1512179092,0.0301,0.2609,0.5023,92.35,-221.31,864.20,386,-49,35
1512179092,0.0373,0.2413,0.5183,53.41,-217.71,872.99,386,-49,35
1512179092,0.0120,0.1810,0.5073,-51.33,-191.77,892.03,390,-31,35
1512179092,0.0049,0.1435,0.5043,-68.85,-132.20,937.68,390,-31,35
1512179092,-0.0415,0.1112,0.5021,-99.73,-162.54,893.49,390,-31,35
1512179092,-0.0304,0.0872,0.5037,-89.72,-156.07,978.03,390,-31,35
1512179092,-0.0381,0.0561,0.5061,-23.86,-180.79,976.14,390,-31,35
1512179092,-0.0555,0.0264,0.5100,-29.97,-189.70,996.03,368,-24,38
1512179092,-0.0976,0.0087,0.5117,-19.17,-221.50,888.12,368,-24,38
1512179092,-0.0886,0.0100,0.5181,-2.01,-281.07,973.39,368,-24,38
1512179092,-0.1028,0.0125,0.5237,3.11,-234.74,913.45,368,-24,38
1512179092,-0.0654,0.0170,0.5313,-1.10,-205.02,981.32,368,-24,38
1512179092,-0.0577,0.0214,0.5372,-25.94,-197.45,984.68,374,-22,27
1512179092,-0.0517,-0.0121,0.5601,-72.69,-80.87,1103.09,374,-22,27
1512179092,-0.0840,-0.0296,0.5638,-11.72,-212.22,1112.92,374,-22,27
1512179092,-0.0429,-0.0619,0.5802,26.49,-88.87,1095.21,374,-22,27
1512179092,-0.0652,-0.1007,0.5852,-93.51,-230.10,1121.15,356,-8,23
1512179092,-0.0658,-0.1342,0.5736,-38.21,-214.36,1068.42,356,-8,23
1512179092,-0.1057,-0.1684,0.5698,26.86,-213.62,952.27,356,-8,23
1512179093,-0.1023,-0.1807,0.5561,18.37,-238.89,933.84,356,-8,23
1512179093,-0.0872,-0.1819,0.5497,16.30,-253.42,877.81,356,-8,23
1512179093,-0.0292,-0.1599,0.5442,101.20,-173.52,989.93,361,-14,35
1512179093,0.0165,-0.1168,0.5310,102.17,-234.74,1049.74,361,-14,35
1512179093,0.0766,-0.0787,0.5096,224.37,-292.18,1017.58,361,-14,35
1512179093,0.0896,-0.0622,0.4888,199.28,-312.93,1032.04,361,-14,35
1512179093,0.1571,-0.0427,0.4944,185.97,-301.88,1018.19,361,-14,35
1512179093,0.1810,-0.0068,0.4930,148.74,-255.74,906.43,347,-14,38
1512179093,0.1909,0.0162,0.4831,101.26,-280.33,933.29,347,-14,38
1512179093,0.1511,0.0526,0.4811,104.19,-313.54,756.96,347,-14,38
1512179093,0.2021,0.0831,0.5017,21.67,-238.22,856.93,347,-14,38
1512179093,0.1815,0.0923,0.5112,0.37,-187.32,824.58,326,3,42
1512179093,0.1505,0.0939,0.5032,-53.16,-151.92,852.91,326,3,42
1512179093,0.0852,0.0850,0.4872,-40.10,-179.63,975.10,326,3,42
1512179093,0.0915,0.0839,0.4891,-77.27,-150.21,963.87,326,3,42
1512179093,0.0800,0.0790,0.4772,-79.96,-212.71,985.35,326,3,42
1512179093,0.0541,0.0772,0.4681,-32.71,-165.59,955.51,312,0,28
1512179093,0.0505,0.0686,0.4631,-11.54,-222.53,1016.17,312,0,28
1512179093,0.0194,0.0402,0.4669,-1.34,-234.74,945.86,312,0,28
1512179093,0.0115,0.0246,0.4653,-6.10,-211.55,980.29,312,0,28
1512179093,0.0115,0.0200,0.4666,-5.00,-211.36,1049.01,288,10,32
1512179093,-0.0099,0.0015,0.4699,-18.86,-212.46,943.97,288,10,32
1512179093,-0.0229,-0.0109,0.4727,-21.91,-243.59,930.85,288,10,32
1512179093,-0.0003,0.0008,0.4810,-20.45,-261.41,957.70,288,10,32
1512179093,0.0141,-0.0105,0.4738,-18.55,-225.71,1039.06,288,10,32
1512179093,-0.0095,0.0133,0.4722,54.93,-255.07,878.66,274,14,32
1512179093,-0.0064,0.0133,0.4671,61.34,-234.44,859.99,274,14,32
1512179093,0.0499,0.0411,0.4655,40.71,-250.55,1004.33,274,14,32
1512179093,0.0622,0.0487,0.4589,73.06,-263.61,944.27,274,14,32
1512179093,0.0253,0.0369,0.4551,48.65,-294.49,930.24,274,14,32
1512179093,0.0659,0.0405,0.4566,-5.43,-218.57,986.08,270,14,28
1512179093,0.0297,0.0320,0.4563,-32.53,-271.97,895.08,270,14,28
1512179093,0.0469,0.0272,0.4567,-54.26,-234.44,943.60,270,14,28
1512179093,0.0328,0.0289,0.4549,-46.69,-214.72,933.72,270,14,28
1512179093,0.0105,0.0134,0.4582,-47.91,-187.68,917.42,260,28,25
1512179093,-0.0068,0.0001,0.4534,-91.80,-203.06,947.20,260,28,25
1512179093,0.0198,-0.0108,0.4561,-97.17,-185.55,1017.03,260,28,25
1512179093,-0.0245,-0.0208,0.4483,-102.66,-255.55,912.54,260,28,25
1512179094,-0.0241,-0.0132,0.4439,-58.59,-275.02,933.53,260,28,25
1512179094,-0.0394,-0.0080,0.4384,34.42,-273.93,863.83,267,17,32
1512179094,0.0027,-0.0007,0.4312,-10.74,-260.56,914.98,267,17,32
1512179094,-0.0048,0.0011,0.4266,-16.78,-293.64,907.04,267,17,32
1512179094,-0.0015,-0.0007,0.4218,-14.10,-267.88,957.15,267,17,32
1512179094,-0.0056,-0.0040,0.4201,-40.95,-270.26,936.52,267,17,32
1512179094,0.0138,-0.0024,0.4190,-39.31,-210.51,1013.37,242,17,28
1512179094,0.0076,0.0000,0.4132,-64.09,-239.69,1022.40,242,17,28
1512179094,0.0246,0.0057,0.4097,-45.59,-248.35,1030.88,242,17,28
1512179094,0.0340,0.0036,0.4108,-0.24,-236.94,962.22,242,17,28
1512179094,0.0406,0.0003,0.4093,-3.54,-270.32,1047.55,221,10,28
1512179094,0.0597,0.0192,0.4056,47.79,-237.85,1018.92,221,10,28
1512179094,0.0591,0.0364,0.3973,57.25,-223.21,1011.90,221,10,28
1512179094,0.0381,0.0309,0.3936,30.09,-268.68,929.99,221,10,28
1512179094,0.0431,0.0306,0.3969,25.39,-201.11,933.41,221,10,28
1512179094,0.0361,0.0301,0.3967,-17.33,-208.80,944.27,207,10,28
1512179094,0.0296,0.0254,0.3929,-26.67,-187.13,959.29,207,10,28
1512179094,0.0238,0.0334,0.3935,-45.17,-196.47,909.97,207,10,28
1512179094,0.0322,0.0285,0.3951,-44.49,-217.59,950.81,207,10,28
1512179094,0.0559,0.0266,0.3975,-17.21,-209.41,958.80,207,10,28
1512179094,0.0352,0.0172,0.3918,-24.05,-205.44,956.54,203,10,42
1512179094,0.0099,-0.0031,0.3898,-10.25,-235.41,891.54,203,10,42
1512179094,0.0081,-0.0016,0.3819,2.08,-239.26,908.02,203,10,42
1512179094,0.0475,0.0043,0.3827,-32.78,-214.42,997.80,203,10,42
1512179094,0.0414,0.0101,0.3743,-20.75,-217.65,988.40,180,5,30
1512179094,0.0457,0.0061,0.3710,-34.24,-235.78,931.58,180,5,30
1512179094,0.0083,0.0036,0.3627,-31.80,-268.01,883.36,180,5,30
1512179094,0.0144,0.0073,0.3621,-25.63,-210.02,975.77,180,5,30
1512179094,0.0214,0.0073,0.3573,-78.80,-200.50,1024.72,180,5,30
1512179094,-0.0188,-0.0040,0.3503,-40.10,-220.70,857.48,168,21,25
1512179094,-0.0056,-0.0043,0.3413,-60.61,-203.49,959.96,168,21,25
1512179094,-0.0138,-0.0141,0.3342,-35.83,-209.78,953.74,168,21,25
1512179094,0.0091,-0.0200,0.3274,-38.94,-183.04,1029.60,168,21,25
1512179094,0.0119,-0.0087,0.3256,-57.07,-174.68,981.81,177,15,23
1512179094,0.0152,-0.0087,0.3085,12.27,-245.91,1001.10,177,15,23
1512179094,0.0330,0.0180,0.2984,20.45,-222.11,1002.93,177,15,23
1512179094,0.0453,0.0196,0.2876,23.25,-234.56,1038.33,177,15,23
1512179095,0.0422,0.0170,0.2807,65.00,-208.13,1009.46,177,15,23
1512179095,0.0648,0.0099,0.2780,-47.36,-183.41,1014.89,166,-1,23
1512179095,0.0583,0.0205,0.2735,-75.44,-182.80,909.30,166,-1,23
1512179095,0.0272,0.0354,0.2613,-50.54,-216.06,893.37,166,-1,23
1512179095,0.0443,0.0434,0.2566,-36.80,-169.31,871.22,166,-1,23
1512179095,0.0526,0.0527,0.2498,-52.00,-187.26,868.59,166,-1,23
1512179095,0.0405,0.0382,0.2390,-75.26,-174.99,943.66,144,24,18
1512179095,0.0378,0.0403,0.2372,-83.07,-152.71,944.15,144,24,18
1512179095,0.0180,0.0470,0.2294,-69.03,-195.31,916.26,144,24,18
1512179095,0.0470,0.0378,0.2177,-57.50,-158.75,971.98,144,24,18
1512179095,0.0312,0.0254,0.2085,-80.75,-161.25,962.22,144,3,22
1512179095,0.0625,0.0092,0.2012,-116.70,-161.19,989.93,144,3,22
1512179095,0.0290,-0.0009,0.1909,-130.19,-161.62,993.16,144,3,22
1512179095,0.0111,-0.0181,0.1909,-141.36,-143.13,966.00,144,3,22
1512179095,-0.0162,-0.0123,0.1832,-120.24,-150.82,932.31,144,3,22
1512179095,0.0048,-0.0186,0.1822,-102.60,-115.91,960.33,135,8,20
1512179095,-0.0146,-0.0145,0.1740,-61.46,-130.49,864.32,135,8,20
1512179095,0.0422,-0.0164,0.1731,-83.92,-113.40,1027.04,135,8,20
1512179095,0.0301,-0.0212,0.1613,-69.15,-175.23,996.52,135,8,20
1512179095,0.0055,-0.0127,0.1570,-58.17,-172.42,948.67,135,1,6
1512179095,0.0288,-0.0130,0.1499,-73.67,-171.08,946.29,135,1,6
1512179095,0.0212,-0.0166,0.1429,-114.44,-171.57,939.82,135,1,6
1512179095,0.0483,-0.0009,0.1389,-114.75,-168.15,941.28,135,1,6
1512179095,0.0487,-0.0052,0.1314,-78.43,-116.39,959.47,135,1,6
1512179095,0.0475,0.0080,0.1242,-102.05,-125.31,953.74,126,7,22
1512179095,0.0361,0.0145,0.1139,-78.74,-175.11,922.61,126,7,22
1512179095,0.0418,0.0152,0.1139,-113.46,-157.65,961.06,126,7,22
1512179095,0.0298,0.0256,0.1055,-85.63,-160.10,960.82,126,7,22
1512179095,0.0266,0.0127,0.1092,-60.91,-110.23,861.88,126,7,22
1512179095,0.0119,0.0103,0.1063,-109.86,-128.72,902.34,112,14,32
1512179095,0.0164,0.0060,0.1087,-110.78,-79.71,984.25,112,14,32
1512179095,0.0154,0.0144,0.1015,-156.68,-82.21,1033.33,112,14,32
1512179095,0.0012,0.0092,0.0980,-113.34,-108.95,987.73,112,14,32
1512179095,-0.0003,0.0142,0.0932,-90.39,-113.46,885.93,91,-3,22
1512179095,0.0015,0.0170,0.0905,-98.08,-138.49,943.54,91,-3,22
1512179095,0.0180,0.0168,0.0886,-124.08,-129.27,997.25,91,-3,22
1512179095,-0.0152,0.0085,0.0851,-110.90,-109.25,929.14,91,-3,22
1512179095,-0.0293,0.0103,0.0764,-89.60,-151.31,928.65,91,-3,22
1512179096,-0.0262,0.0130,0.0744,-117.13,-160.77,946.72,100,8,27
1512179096,-0.0389,0.0005,0.0780,-56.46,-162.41,905.15,100,8,27
1512179096,-0.0466,-0.0047,0.0772,-29.24,-160.34,830.20,100,8,27
1512179096,0.0081,0.0019,0.0796,-93.44,-123.54,1029.85,100,8,27
1512179096,0.0138,0.0029,0.0680,-79.35,-127.32,933.90,115,-14,15
1512179096,0.0181,0.0063,0.0668,-119.87,-80.20,950.99,115,-14,15
1512179096,0.0068,-0.0071,0.0626,-147.58,-117.86,922.00,115,-14,15
1512179096,0.0225,0.0021,0.0590,-165.71,-134.58,939.88,115,-14,15
1512179096,-0.0061,0.0017,0.0551,-95.09,-67.57,915.71,115,-14,15
1512179096,-0.0173,0.0073,0.0465,-52.31,-61.10,925.84,89,-19,0
1512179096,0.0216,0.0001,0.0466,-62.81,23.44,1002.26,89,-19,0
1512179096,0.0389,-0.0067,0.0419,-50.23,22.03,1042.79,89,-19,0
1512179096,0.0201,-0.0154,0.0407,-21.30,-13.00,871.34,89,-19,0
1512179096,0.0356,-0.0229,0.0381,-70.31,-50.90,886.23,89,-19,0
1512179096,0.0399,-0.0228,0.0313,-115.97,-60.61,1008.30,98,-17,18
1512179096,0.0120,-0.0284,0.0288,-101.50,-68.36,960.33,98,-17,18
1512179096,0.0426,-0.0196,0.0252,-57.56,-10.86,985.72,98,-17,18
1512179096,0.0241,-0.0065,0.0188,-63.78,-50.54,913.09,98,-17,18
1512179096,0.0169,-0.0213,0.0238,-114.26,-42.05,924.62,100,-12,16
1512179096,0.0076,-0.0314,0.0186,-79.22,-17.94,914.37,100,-12,16
1512179096,-0.0085,-0.0316,0.0176,-70.56,-9.40,913.02,100,-12,16
1512179096,0.0019,-0.0430,0.0197,-114.07,4.03,962.52,100,-12,16
1512179096,-0.0035,-0.0386,0.0124,-59.88,-39.79,1001.65,100,-12,16
1512179096,-0.0352,-0.0346,0.0080,-5.98,-34.97,937.93,110,-19,-3
1512179096,-0.0166,-0.0292,0.0120,-64.94,-21.00,907.29,110,-19,-3
1512179096,0.0250,-0.0141,0.0044,-63.42,2.08,1049.74,110,-19,-3
1512179096,0.0057,-0.0085,0.0000,-80.87,-67.87,990.36,110,-19,-3
1512179096,-0.0103,0.0009,0.0021,15.38,-22.89,963.26,110,-19,-3
1512179096,0.0008,-0.0065,0.0048,-52.98,-53.04,991.82,103,-22,16
1512179096,-0.0028,-0.0153,0.0043,-64.58,14.10,958.50,103,-22,16
1512179096,-0.0316,-0.0081,0.0019,-43.70,8.79,907.17,103,-22,16
1512179096,-0.0356,0.0048,-0.0068,-26.92,-56.82,915.89,103,-22,16
1512179096,-0.0453,-0.0148,-0.0037,-35.95,-15.08,888.31,84,-14,15
1512179096,-0.0423,-0.0020,-0.0065,-37.72,-40.28,911.19,84,-14,15
1512179096,-0.0172,0.0044,-0.0096,-48.95,-41.44,878.97,84,-14,15
1512179096,0.0017,0.0035,-0.0115,-28.81,-11.05,986.08,84,-14,15
1512179096,-0.0462,0.0044,-0.0128,-34.30,-72.45,901.49,84,-14,15
1512179096,-0.0149,0.0072,-0.0067,-41.38,-38.02,992.92,96,-15,40
1512179097,-0.0266,-0.0005,-0.0071,-22.77,34.24,920.47,96,-15,40
1512179097,-0.0273,0.0099,-0.0079,-20.26,-1.77,1015.14,96,-15,40
1512179097,-0.0221,-0.0057,-0.0052,-5.25,-10.56,978.03,96,-15,40
1512179097,-0.0041,-0.0057,0.0008,-15.87,84.11,930.42,101,-24,45
1512179097,-0.0197,-0.0104,-0.0021,-50.05,-19.10,928.41,101,-24,45
1512179097,-0.0103,0.0031,-0.0117,-19.65,-67.38,1006.16,101,-24,45
1512179097,-0.0470,-0.0021,-0.0129,-3.36,-14.77,946.47,101,-24,45
1512179097,-0.0321,0.0028,-0.0133,7.57,-48.77,950.07,101,-24,45
1512179097,0.0003,-0.0025,-0.0080,-27.59,39.25,911.32,115,-10,35
1512179097,-0.0105,0.0087,-0.0085,-32.59,-10.74,925.05,115,-10,35
1512179097,-0.0152,0.0068,-0.0097,-52.49,-7.14,931.58,115,-10,35
1512179097,-0.0300,0.0097,-0.0121,-43.70,-33.63,951.42,115,-10,35
1512179097,-0.0220,0.0069,-0.0104,-9.77,21.97,1005.13,115,-10,35
1512179097,-0.0011,0.0140,-0.0104,0.18,37.60,1028.75,115,0,38
1512179097,-0.0064,0.0008,-0.0088,-16.78,17.64,1013.55,115,0,38
1512179097,-0.0057,0.0056,-0.0120,-15.93,-0.98,927.86,115,0,38
1512179097,0.0037,0.0027,-0.0064,-53.41,12.63,981.45,115,0,38
1512179097,0.0268,0.0031,-0.0092,0.49,43.64,994.93,126,-14,15
1512179097,-0.0268,-0.0064,-0.0072,-2.08,12.08,856.08,126,-14,15
1512179097,-0.0097,-0.0097,-0.0063,-21.61,-16.42,919.80,126,-14,15
1512179097,-0.0206,-0.0025,-0.0085,23.80,-44.62,962.95,126,-14,15
1512179097,-0.0387,-0.0208,-0.0065,9.22,-67.44,898.25,126,-14,15
1512179097,-0.0208,-0.0233,0.0053,-29.36,5.19,922.73,128,-8,13
1512179097,-0.0128,-0.0113,0.0019,27.04,-3.30,939.51,128,-8,13
1512179097,0.0278,-0.0153,0.0107,6.96,39.86,1011.60,128,-8,13
1512179097,-0.0561,-0.0065,0.0075,53.59,-61.28,825.13,128,-8,13
1512179097,0.0033,-0.0013,0.0153,-26.86,25.76,1004.88,128,-8,13
1512179097,-0.0113,-0.0145,0.0161,-29.36,-20.81,997.74,126,7,32
1512179097,-0.0305,-0.0093,0.0198,13.67,-20.75,975.59,126,7,32
1512179097,-0.0103,-0.0079,0.0296,-7.75,-12.21,970.34,126,7,32
1512179097,-0.0123,0.0016,0.0294,16.42,-25.88,898.38,126,7,32
1512179097,0.0092,0.0031,0.0346,8.97,29.54,982.54,128,-12,23
1512179097,-0.0032,-0.0076,0.0402,-27.22,5.00,1064.39,128,-12,23
1512179097,-0.0360,0.0007,0.0403,76.66,-47.42,886.35,128,-12,23
1512179097,-0.0361,0.0041,0.0431,39.73,-74.89,975.95,128,-12,23
1512179097,0.0080,-0.0103,0.0517,7.93,-44.74,993.29,128,-12,23
1512179097,-0.0041,-0.0075,0.0530,57.25,-103.82,896.55,119,-10,15
1512179097,-0.0244,-0.0197,0.0644,36.01,-12.45,871.46,119,-10,15
1512179098,0.0068,-0.0146,0.0711,17.52,14.77,936.22,119,-10,15
1512179098,-0.0178,-0.0181,0.0775,0.55,-87.65,1004.27,119,-10,15
1512179098,-0.0124,-0.0216,0.0874,55.54,-101.20,994.02,110,-19,13
1512179098,-0.0273,-0.0365,0.0987,61.65,-31.01,954.83,110,-19,13
1512179098,-0.0236,-0.0405,0.1075,57.50,-47.36,920.10,110,-19,13
1512179098,-0.0381,-0.0286,0.1101,97.47,-82.76,971.44,110,-19,13
1512179098,-0.0378,-0.0226,0.1169,88.62,-28.14,954.65,110,-19,13
1512179098,0.0107,-0.0165,0.1258,75.56,11.96,999.33,112,-35,8
1512179098,-0.0201,-0.0172,0.1265,62.68,-68.66,988.10,112,-35,8
1512179098,0.0391,0.0015,0.1318,86.30,-16.54,1013.06,112,-35,8
1512179098,-0.0029,0.0063,0.1384,23.86,-108.52,1021.12,112,-35,8
1512179098,-0.0336,-0.0021,0.1471,125.79,-47.73,840.94,112,-35,8
1512179098,0.0455,0.0117,0.1525,27.16,-86.91,1061.34,108,-24,5
1512179098,-0.0401,0.0084,0.1507,123.66,-108.34,805.66,108,-24,5
1512179098,0.0011,0.0089,0.1659,46.75,-28.02,931.82,108,-24,5
1512179098,-0.0103,0.0021,0.1668,59.27,-121.15,876.95,108,-24,5
1512179098,0.0092,0.0128,0.1740,81.67,-109.13,874.69,108,-24,5
1512179098,-0.0711,0.0055,0.1774,106.69,-147.52,819.58,114,-29,33
1512179098,0.0121,0.0012,0.1888,56.52,-74.04,954.04,114,-29,33
1512179098,-0.0083,-0.0087,0.1903,84.84,-143.80,940.61,114,-29,33
1512179098,0.0015,0.0049,0.1895,135.56,-82.95,942.44,114,-29,33
1512179098,0.0128,-0.0017,0.1919,57.92,-101.93,1073.91,107,-22,40
1512179098,-0.0043,-0.0049,0.1999,102.36,-125.98,869.02,107,-22,40
1512179098,-0.0120,-0.0101,0.2000,88.01,-86.79,916.08,107,-22,40
1512179098,-0.0021,-0.0185,0.2076,45.29,-101.26,997.44,107,-22,40
1512179098,-0.0205,-0.0142,0.2116,94.36,-61.46,900.09,107,-22,40
1512179098,0.0107,0.0005,0.2184,76.84,-112.98,1038.51,100,-29,33
1512179098,0.0108,-0.0007,0.2154,109.37,-149.35,962.46,100,-29,33
1512179098,0.0228,-0.0047,0.2196,69.27,-192.87,1035.22,100,-29,33
1512179098,0.0189,0.0081,0.2272,125.43,-90.39,998.84,100,-29,33
1512179098,0.0152,0.0329,0.2265,146.79,-151.12,987.49,100,-29,33
1512179098,0.0699,0.0475,0.2276,67.50,-77.94,1013.24,107,-26,27
1512179098,0.0441,0.0514,0.2273,105.22,-80.14,907.23,107,-26,27
1512179098,0.0389,0.0463,0.2282,49.07,-147.40,945.68,107,-26,27
1512179098,0.0248,0.0418,0.2389,55.85,-57.25,922.24,107,-26,27
1512179098,0.0272,0.0495,0.2377,67.99,-38.82,913.76,93,-37,23
1512179098,0.0079,0.0413,0.2382,93.51,-88.26,892.76,93,-37,23
1512179099,-0.0149,-0.0003,0.2430,98.75,-109.19,856.57,93,-37,23
1512179099,-0.0376,-0.0137,0.2442,118.84,-137.33,832.76,93,-37,23
1512179099,0.0068,-0.0206,0.2509,65.86,-121.89,979.55,93,-37,23
1512179099,0.0358,-0.0032,0.2526,116.64,-137.08,1010.13,86,-47,10
1512179099,0.0165,0.0029,0.2526,144.29,-116.09,986.94,86,-47,10
1512179099,0.0080,0.0057,0.2513,136.66,-102.36,988.40,86,-47,10
1512179099,0.0097,-0.0031,0.2553,109.62,-78.12,932.37,86,-47,10
1512179099,-0.0269,0.0059,0.2575,149.41,-146.97,969.48,77,-49,25
1512179099,0.0089,0.0180,0.2659,141.05,-86.67,1005.98,77,-49,25
1512179099,0.0013,0.0144,0.2634,176.21,-112.12,948.43,77,-49,25
1512179099,0.0056,-0.0076,0.2703,75.07,-129.03,1041.26,77,-49,25
1512179099,-0.0490,-0.0294,0.2747,120.61,-98.69,965.76,77,-49,25
1512179099,-0.0230,-0.0202,0.2633,109.37,-160.95,988.28,61,-54,27
1512179099,-0.0003,0.0000,0.2614,108.52,-117.86,1032.35,61,-54,27
1512179099,0.0471,0.0226,0.2525,121.03,-129.76,1042.66,61,-54,27
1512179099,0.0495,0.0337,0.2514,122.56,-136.11,999.51,61,-54,27
1512179099,0.0433,0.0471,0.2485,108.40,-171.02,1004.94,61,-54,27
1512179099,0.0527,0.0541,0.2558,109.37,-156.07,973.57,45,-49,35
1512179099,0.0145,0.0694,0.2579,144.23,-166.08,722.72,45,-49,35
1512179099,0.0566,0.0771,0.2682,46.75,-118.10,934.94,45,-49,35
1512179099,0.0232,0.0675,0.2708,55.66,-113.89,777.40,45,-49,35
1512179099,-0.0031,0.0473,0.2732,82.52,-46.02,898.13,68,-51,23
1512179099,0.0212,0.0493,0.2716,70.74,-62.50,946.11,68,-51,23
1512179099,0.0342,0.0296,0.2720,62.07,-100.46,927.19,68,-51,23
1512179099,0.0309,0.0316,0.2699,108.15,-104.80,935.61,68,-51,23
1512179099,0.0486,0.0434,0.2646,99.12,-140.56,980.53,68,-51,23
1512179099,0.0622,0.0329,0.2650,101.32,-137.57,1008.79,54,-54,23
1512179099,0.0405,0.0344,0.2581,137.08,-113.89,954.41,54,-54,23
1512179099,0.0514,0.0264,0.2607,106.69,-114.81,958.56,54,-54,23
1512179099,0.0390,0.0190,0.2641,66.53,-81.48,1040.53,54,-54,23
1512179099,-0.0130,0.0202,0.2659,89.72,-112.98,893.62,54,-54,23
1512179099,0.0085,0.0240,0.2738,103.76,-40.77,1029.54,33,-54,33
1512179099,0.0108,0.0233,0.2666,79.77,-75.93,999.76,33,-54,33
1512179099,0.0007,0.0129,0.2699,86.00,-94.42,1021.48,33,-54,33
1512179099,0.0349,-0.0011,0.2770,73.43,-57.25,1062.44,33,-54,33
1512179099,-0.0395,-0.0220,0.2755,99.30,-158.14,958.01,49,-74,49
1512179099,0.0004,-0.0154,0.2731,105.77,-61.10,926.70,49,-74,49
1512179099,0.0297,-0.0021,0.2667,97.66,-88.93,915.22,49,-74,49
1512179100,0.0666,0.0021,0.2642,59.75,-80.51,931.58,49,-74,49
1512179100,0.0330,-0.0004,0.2613,105.83,-94.85,829.28,49,-74,49
1512179100,0.0547,-0.0104,0.2715,44.98,-46.51,862.73,31,-66,18
1512179100,0.0282,-0.0197,0.2764,34.97,-75.26,951.97,31,-66,18
1512179100,0.0385,-0.0069,0.2787,41.08,-57.43,1009.22,31,-66,18
1512179100,0.0112,-0.0077,0.2759,69.58,-133.85,967.47,31,-66,18
1512179100,-0.0003,0.0048,0.2791,126.77,-117.61,831.42,28,-74,25
1512179100,0.0566,0.0226,0.2788,87.89,-88.20,1002.93,28,-74,25
1512179100,0.0810,0.0439,0.2699,107.73,-55.97,995.00,28,-74,25
1512179100,0.0622,0.0518,0.2678,77.27,-106.75,1035.46,28,-74,25
1512179100,0.0438,0.0465,0.2654,99.91,-71.41,989.20,28,-74,25
1512179100,0.0382,0.0406,0.2674,91.98,-80.08,1039.79,31,-84,28
1512179100,0.0208,0.0317,0.2670,76.23,-115.48,987.55,31,-84,28
1512179100,0.0268,0.0326,0.2695,49.56,-116.46,956.30,31,-84,28
1512179100,0.0386,0.0309,0.2731,35.64,-120.48,952.09,31,-84,28
1512179100,0.0257,0.0435,0.2684,48.71,-112.55,964.48,31,-84,28
1512179100,0.0011,0.0326,0.2699,110.78,-110.72,900.57,35,-84,25
1512179100,-0.0192,0.0166,0.2708,88.75,-129.27,910.28,35,-84,25
1512179100,-0.0222,0.0039,0.2714,45.72,-123.47,963.81,35,-84,25
1512179100,-0.0177,0.0056,0.2736,50.84,-104.43,957.34,35,-84,25
1512179100,-0.0108,0.0053,0.2710,44.43,-155.88,963.75,38,-105,28
1512179100,-0.0051,0.0286,0.2771,79.65,-126.89,928.89,38,-105,28
1512179100,-0.0238,0.0264,0.2746,107.06,-133.30,959.29,38,-105,28
1512179100,-0.0430,0.0228,0.2690,79.77,-160.95,1025.76,38,-105,28
1512179100,-0.0461,0.0182,0.2704,88.20,-189.15,992.13,38,-105,28
1512179100,-0.0241,-0.0015,0.2800,27.40,-117.61,986.63,7,-95,28
1512179100,-0.0594,0.0130,0.2772,134.58,-144.90,816.53,7,-95,28
1512179100,-0.0406,0.0146,0.2759,102.23,-166.87,915.59,7,-95,28
1512179100,-0.0153,0.0308,0.2728,133.61,-163.39,879.09,7,-95,28
1512179100,0.0205,0.0313,0.2720,89.17,-134.58,1013.98,7,-95,28
1512179100,0.0222,0.0156,0.2731,71.84,-160.58,1034.00,14,-109,25
1512179100,0.0196,0.0153,0.2716,58.53,-168.64,980.41,14,-109,25
1512179100,0.0200,0.0075,0.2735,75.68,-151.55,941.59,14,-109,25
1512179100,0.0073,0.0081,0.2750,26.12,-151.79,991.52,14,-109,25
1512179100,-0.0044,0.0067,0.2771,56.40,-111.21,945.13,12,-107,27
1512179100,-0.0008,0.0221,0.2758,67.02,-152.04,959.23,12,-107,27
1512179100,0.0290,0.0141,0.2772,34.85,-157.59,1002.01,12,-107,27
1512179100,-0.0003,0.0088,0.2752,84.96,-121.64,962.28,12,-107,27
1512179101,0.0049,0.0027,0.2778,26.98,-116.09,999.15,12,-107,27
1512179101,-0.0297,-0.0109,0.2746,44.49,-107.18,887.33,8,-121,20
1512179101,0.0012,-0.0008,0.2707,37.96,-107.18,1018.49,8,-121,20
1512179101,-0.0112,-0.0020,0.2698,85.02,-178.41,956.97,8,-121,20
1512179101,0.0236,0.0096,0.2660,89.90,-150.63,960.94,8,-121,20
1512179101,0.0310,0.0105,0.2638,69.09,-161.62,997.80,5,-125,20
1512179101,0.0418,0.0162,0.2618,76.72,-193.91,981.26,5,-125,20
1512179101,0.0141,0.0154,0.2638,92.10,-132.39,900.15,5,-125,20
1512179101,0.0055,0.0204,0.2623,48.65,-101.14,877.20,5,-125,20
1512179101,0.0434,0.0280,0.2635,55.79,-62.26,970.46,5,-125,20
1512179101,-0.0020,0.0222,0.2598,99.43,-88.50,883.97,10,-133,28
1512179101,0.0017,0.0261,0.2601,66.41,-102.17,989.69,10,-133,28
1512179101,0.0039,0.0233,0.2538,93.38,-119.69,946.17,10,-133,28
1512179101,0.0252,0.0280,0.2489,39.12,-138.61,1051.09,10,-133,28
1512179101,-0.0104,0.0152,0.2482,22.95,-128.72,957.95,10,-133,28
1512179101,-0.0495,0.0125,0.2406,65.86,-135.68,926.27,-5,-135,27
1512179101,-0.0269,0.0188,0.2358,83.62,-162.48,910.46,-5,-135,27
1512179101,-0.0093,0.0241,0.2380,91.55,-115.66,912.66,-5,-135,27
1512179101,0.0079,0.0208,0.2401,3.78,-111.27,994.20,-5,-135,27
1512179101,0.0220,0.0150,0.2427,35.52,-50.78,1025.09,8,-142,30
1512179101,-0.0045,0.0209,0.2332,59.08,-144.78,977.29,8,-142,30
1512179101,-0.0394,0.0092,0.2345,77.09,-121.22,922.49,8,-142,30
1512179101,-0.0360,0.0103,0.2325,39.12,-111.33,898.07,8,-142,30
1512179101,-0.0064,0.0145,0.2326,59.57,-117.86,943.30,8,-142,30
1512179101,-0.0088,0.0120,0.2268,69.89,-153.93,956.79,3,-151,8
1512179101,0.0052,0.0097,0.2310,67.38,-91.19,890.26,3,-151,8
1512179101,0.0326,0.0205,0.2250,75.87,-94.97,945.98,3,-151,8
1512179101,0.0377,0.0264,0.2210,75.81,-116.03,957.58,3,-151,8
1512179101,0.0180,0.0238,0.2162,89.11,-141.66,934.02,3,-151,8
1512179101,0.0286,0.0111,0.2186,96.68,-65.92,936.28,17,-151,5
1512179101,0.0376,0.0081,0.2188,29.79,-94.06,1026.25,17,-151,5
1512179101,0.0314,0.0044,0.2180,55.97,-75.62,977.78,17,-151,5
1512179101,0.0124,0.0144,0.2108,50.11,-66.16,935.49,17,-151,5
1512179101,0.0228,0.0040,0.2095,84.66,-98.63,901.00,5,-153,16
1512179101,0.0120,0.0033,0.2047,77.70,-70.01,956.24,5,-153,16
1512179101,0.0256,0.0052,0.2027,60.73,-89.11,994.14,5,-153,16
1512179101,0.0097,-0.0041,0.2079,29.97,-79.35,936.40,5,-153,16
1512179101,0.0024,-0.0036,0.2020,58.41,-66.16,903.26,5,-153,16
1512179102,0.0138,0.0089,0.1948,41.38,-68.54,977.66,-3,-151,15
1512179102,0.0128,0.0040,0.1878,50.35,-100.16,928.34,-3,-151,15
1512179102,0.0113,0.0021,0.1864,43.52,-97.17,920.35,-3,-151,15
1512179102,0.0140,-0.0087,0.1838,82.76,-86.24,958.98,-3,-151,15
1512179102,0.0201,-0.0075,0.1808,56.88,-52.19,964.42,-3,-151,15
1512179102,0.0218,-0.0184,0.1820,17.76,7.26,1019.96,10,-165,5
1512179102,0.0089,-0.0045,0.1714,22.03,-36.07,985.72,10,-165,5
1512179102,0.0045,-0.0035,0.1615,18.43,-46.14,940.61,10,-165,5
1512179102,0.0009,0.0041,0.1591,23.86,-49.38,924.19,10,-165,5
1512179102,-0.0169,-0.0001,0.1539,37.17,-35.34,929.32,15,-171,10
1512179102,-0.0184,-0.0005,0.1473,21.97,-85.14,925.96,15,-171,10
1512179102,-0.0369,-0.0024,0.1422,45.47,-116.94,846.62,15,-171,10
1512179102,-0.0087,0.0025,0.1445,27.59,-50.72,973.63,15,-171,10
1512179102,-0.0080,0.0019,0.1395,40.34,-48.95,892.70,15,-171,10
1512179102,0.0349,-0.0009,0.1368,-15.50,-26.79,1013.37,3,-172,11
1512179102,0.0101,0.0029,0.1241,41.87,-7.57,981.26,3,-172,11
1512179102,-0.0398,-0.0029,0.1166,38.94,-72.94,935.12,3,-172,11
1512179102,-0.0166,-0.0177,0.1121,-9.34,-64.33,883.42,3,-172,11
1512179102,-0.0297,0.0012,0.1015,6.10,-87.34,891.91,5,-185,20
1512179102,0.0174,0.0226,0.1013,-0.31,-58.35,897.46,5,-185,20
1512179102,0.0057,0.0242,0.0977,40.65,-89.17,917.66,5,-185,20
1512179102,0.0277,0.0035,0.0987,16.60,-37.96,955.69,5,-185,20
1512179102,-0.0358,-0.0073,0.0963,-16.30,-48.65,873.90,5,-185,20
1512179102,-0.0184,-0.0067,0.0899,-0.37,-26.06,931.88,22,-181,10
1512179102,-0.0206,0.0035,0.0819,-21.36,-24.84,999.39,22,-181,10
1512179102,-0.0063,0.0075,0.0744,9.64,-3.42,992.25,22,-181,10
1512179102,-0.0341,0.0024,0.0728,-5.86,-23.93,961.85,22,-181,10
1512179102,-0.0270,-0.0120,0.0597,-6.23,-81.91,1027.16,22,-181,10
1512179102,-0.0477,-0.0202,0.0614,-3.42,10.93,883.73,3,-179,18
1512179102,-0.0108,-0.0123,0.0563,-16.05,-27.04,988.10,3,-179,18
1512179102,-0.0173,-0.0085,0.0467,12.21,-36.62,908.51,3,-179,18
1512179102,-0.0017,-0.0092,0.0489,-12.33,-2.50,963.87,3,-179,18
1512179102,-0.0129,-0.0182,0.0502,-18.62,-26.73,964.60,19,-185,10
1512179102,-0.0328,-0.0178,0.0546,-5.98,-32.04,941.16,19,-185,10
1512179102,-0.0334,-0.0140,0.0546,10.80,-47.85,893.68,19,-185,10
1512179102,-0.0221,-0.0063,0.0533,26.98,13.37,936.16,19,-185,10
1512179102,0.0121,-0.0011,0.0490,22.03,-27.22,1045.17,19,-185,10
1512179102,-0.0009,-0.0089,0.0471,16.85,-42.91,986.27,8,-206,23
1512179103,0.0020,-0.0067,0.0437,46.08,16.30,967.04,8,-206,23
1512179103,-0.0013,0.0051,0.0410,3.78,-48.46,912.60,8,-206,23
1512179103,0.0217,0.0129,0.0333,10.68,9.03,937.62,8,-206,23
1512179103,0.0172,0.0438,0.0298,20.14,-32.78,911.07,8,-206,23
1512179103,0.0216,0.0337,0.0281,1.77,-40.71,1018.01,22,-206,23
1512179103,0.0073,0.0176,0.0313,-25.88,-0.73,962.04,22,-206,23
1512179103,-0.0254,-0.0025,0.0321,-37.72,-23.25,960.02,22,-206,23
1512179103,-0.0174,-0.0055,0.0369,-19.59,-4.21,946.59,22,-206,23
1512179103,-0.0083,-0.0068,0.0332,-14.40,-42.42,947.45,29,-199,16
1512179103,0.0140,-0.0225,0.0353,25.45,-10.50,974.06,29,-199,16
1512179103,0.0116,-0.0278,0.0318,-9.95,-109.99,1031.56,29,-199,16
1512179103,0.0085,-0.0435,0.0338,18.62,-61.22,895.87,29,-199,16
1512179103,-0.0073,-0.0382,0.0366,-20.26,-19.17,927.37,29,-199,16
1512179103,0.0313,-0.0304,0.0357,-29.54,-25.70,1030.33,21,-193,25
1512179103,-0.0013,-0.0116,0.0298,34.48,-39.25,927.37,21,-193,25
1512179103,-0.0214,-0.0097,0.0310,40.28,-45.90,940.73,21,-193,25
1512179103,-0.0028,-0.0095,0.0352,49.80,-37.29,949.95,21,-193,25
1512179103,-0.0041,-0.0127,0.0382,30.33,-60.18,915.59,21,-193,25
1512179103,0.0205,0.0024,0.0402,24.35,-1.95,952.45,10,-193,8
1512179103,0.0085,0.0138,0.0337,19.65,-64.76,945.74,10,-193,8
1512179103,0.0286,0.0237,0.0304,28.50,-57.56,958.13,10,-193,8
1512179103,0.0224,0.0174,0.0321,14.65,-48.22,953.37,10,-193,8
1512179103,0.0024,0.0039,0.0329,21.67,-27.65,906.92,10,-197,11
1512179103,0.0055,0.0096,0.0352,-6.96,-8.54,960.45,10,-197,11
1512179103,0.0479,0.0189,0.0330,-35.34,-23.25,1011.60,10,-197,11
1512179103,0.0342,0.0217,0.0321,22.16,-51.27,944.21,10,-197,11
1512179103,0.0302,0.0237,0.0286,14.53,-71.04,960.57,10,-197,11
1512179103,0.0398,0.0087,0.0369,30.33,-13.00,875.98,29,-192,30
1512179103,0.0272,0.0009,0.0368,6.84,-24.72,947.81,29,-192,30
1512179103,0.0249,0.0000,0.0403,30.03,-28.02,919.74,29,-192,30
1512179103,0.0119,0.0130,0.0389,48.46,-44.62,880.55,29,-192,30
1512179103,0.0406,0.0216,0.0382,41.32,-31.74,1026.37,29,-192,30
1512179103,0.0479,0.0190,0.0389,14.40,10.74,1051.94,8,-199,20
1512179103,0.0313,0.0129,0.0345,-0.37,-35.71,1033.33,8,-199,20
1512179103,0.0281,0.0177,0.0378,25.27,-9.28,1010.74,8,-199,20
1512179103,-0.0051,0.0194,0.0414,26.86,9.34,977.23,8,-199,20
1512179103,-0.0234,0.0056,0.0445,4.82,-24.48,933.90,12,-188,16
1512179103,-0.0112,-0.0079,0.0470,28.93,34.12,912.41,12,-188,16
1512179104,0.0089,-0.0065,0.0462,-22.16,-12.21,963.13,12,-188,16
1512179104,0.0113,-0.0031,0.0441,-62.56,-15.69,978.27,12,-188,16
1512179104,0.0088,0.0180,0.0435,15.38,-18.86,857.67,12,-188,16
1512179104,0.0609,0.0294,0.0477,-33.63,-51.76,985.78,7,-197,15
1512179104,0.0272,0.0254,0.0441,42.42,-50.72,867.49,7,-197,15
1512179104,-0.0109,0.0154,0.0419,27.04,-50.17,904.72,7,-197,15
1512179104,0.0149,0.0153,0.0466,1.46,-13.61,989.20,7,-197,15
1512179104,-0.0091,0.0244,0.0451,21.97,-28.99,934.51,7,-197,15
1512179104,0.0190,0.0377,0.0461,15.26,-36.93,989.62,12,-192,30
1512179104,0.0104,0.0390,0.0501,11.60,-54.32,900.33,12,-192,30
1512179104,0.0012,0.0293,0.0498,3.05,-36.38,935.06,12,-192,30
1512179104,0.0040,0.0198,0.0475,28.26,-22.28,920.35,12,-192,30
1512179104,-0.0068,0.0185,0.0499,14.40,-30.15,906.25,1,-192,16
1512179104,0.0201,0.0270,0.0507,0.06,-14.47,968.69,1,-192,16
1512179104,0.0321,0.0329,0.0546,36.01,-43.82,910.03,1,-192,16
1512179104,0.0394,0.0320,0.0527,39.06,-93.32,921.51,1,-192,16
1512179104,0.0546,0.0176,0.0509,53.77,-124.45,885.80,1,-192,16
1512179104,0.0228,0.0044,0.0513,79.71,-98.45,845.34,7,-193,15
1512179104,0.0228,-0.0192,0.0546,32.04,-81.24,866.33,7,-193,15
1512179104,0.0679,-0.0202,0.0585,-8.30,-39.37,1005.31,7,-193,15
1512179104,0.0534,-0.0241,0.0601,-11.05,-30.21,979.80,7,-193,15
1512179104,0.0348,-0.0309,0.0703,-36.32,-40.53,949.77,-1,-223,13
1512179104,0.0113,-0.0519,0.0732,3.42,9.64,946.17,-1,-223,13
1512179104,-0.0198,-0.0477,0.0752,27.34,-9.52,952.27,-1,-223,13
1512179104,0.0197,-0.0449,0.0800,-33.75,-33.75,1075.26,-1,-223,13
1512179104,0.0405,-0.0246,0.0826,45.17,-28.87,1009.52,-1,-223,13
1512179104,0.0019,-0.0170,0.0834,59.57,-110.11,952.58,1,-199,20
1512179104,0.0262,-0.0067,0.0905,39.37,-77.03,1012.02,1,-199,20
1512179104,-0.0065,0.0021,0.0969,75.50,-52.43,912.90,1,-199,20
1512179104,0.0173,0.0091,0.1007,68.79,-76.48,916.99,1,-199,20
1512179104,0.0597,0.0119,0.1064,58.72,-29.54,1001.53,1,-199,20
1512179104,0.0317,0.0127,0.1125,38.94,-87.65,942.99,-8,-209,16
1512179104,0.0152,0.0021,0.1162,45.65,-64.76,847.41,-8,-209,16
1512179104,0.0368,0.0031,0.1214,52.06,-70.13,915.65,-8,-209,16
1512179104,0.0324,0.0003,0.1260,45.84,-2.99,955.38,-8,-209,16
1512179104,0.0415,0.0153,0.1250,59.08,-39.73,934.51,-17,-204,5
1512179104,0.0254,0.0354,0.1286,64.70,-68.05,909.67,-17,-204,5
1512179105,0.0345,0.0265,0.1328,61.71,-64.15,961.55,-17,-204,5
1512179105,0.0146,0.0234,0.1340,46.75,-66.28,946.17,-17,-204,5
1512179105,-0.0201,0.0330,0.1372,75.50,-71.53,769.35,-17,-204,5
1512179105,-0.0003,0.0390,0.1430,44.80,-36.38,945.43,1,-230,6
1512179105,-0.0304,0.0316,0.1462,32.29,-19.90,896.79,1,-230,6
1512179105,-0.0129,0.0348,0.1539,5.80,-54.32,1045.04,1,-230,6
1512179105,0.0149,0.0208,0.1643,-0.55,39.06,1085.08,1,-230,6
1512179105,0.0005,0.0123,0.1648,1.89,-3.17,913.70,1,-230,6
1512179105,0.0095,0.0044,0.1682,11.05,-57.86,949.77,-3,-225,8
1512179105,-0.0190,0.0044,0.1687,56.76,-32.78,953.86,-3,-225,8
1512179105,0.0193,0.0003,0.1724,55.85,-65.31,1050.35,-3,-225,8
1512179105,0.0174,0.0087,0.1736,60.55,-62.32,948.36,-3,-225,8
1512179105,0.0134,0.0115,0.1735,102.54,-91.98,934.63,0,-222,11
1512179105,0.0174,0.0091,0.1774,90.33,-83.86,955.44,0,-222,11
1512179105,0.0475,0.0193,0.1909,38.57,-36.93,990.30,0,-222,11
1512179105,0.0188,0.0237,0.1896,66.28,-30.46,928.89,0,-222,11
1512179105,0.0664,0.0293,0.1924,64.21,-68.60,1080.38,0,-222,11
1512179105,-0.0128,0.0252,0.1975,115.36,-56.88,831.67,0,-236,8
1512179105,-0.0176,0.0321,0.1991,79.35,-54.63,846.56,0,-236,8
1512179105,0.0232,0.0337,0.2053,75.62,-77.39,969.06,0,-236,8
1512179105,0.0284,0.0272,0.2119,91.37,-57.80,1018.01,0,-236,8
1512179105,0.0394,0.0324,0.2202,118.04,-66.71,911.50,0,-236,8
1512179105,0.0378,0.0312,0.2257,63.66,-90.76,878.54,3,-246,11
1512179105,0.0352,0.0486,0.2314,144.17,-70.68,915.41,3,-246,11
1512179105,0.0486,0.0447,0.2392,77.09,-115.48,1008.85,3,-246,11
1512179105,0.0545,0.0248,0.2511,86.18,-79.90,1045.23,3,-246,11
1512179105,-0.0137,0.0138,0.2602,110.11,-96.68,911.56,12,-245,6
1512179105,0.0144,0.0080,0.2711,79.77,-75.50,1013.73,12,-245,6
1512179105,-0.0123,-0.0104,0.2808,70.13,-54.75,976.20,12,-245,6
1512179105,-0.0495,-0.0124,0.2847,147.77,-112.37,953.12,12,-245,6
1512179105,-0.0672,-0.0197,0.2943,115.48,-61.89,922.36,12,-245,6
1512179105,-0.0217,-0.0140,0.2987,112.79,-133.06,993.96,10,-239,18
1512179105,-0.0521,-0.0007,0.3108,154.54,-101.87,799.38,10,-239,18
1512179105,-0.0189,0.0071,0.3155,140.69,-91.49,892.58,10,-239,18
1512179105,0.0234,0.0246,0.3206,132.45,-143.80,984.99,10,-239,18
1512179105,0.0369,0.0258,0.3234,190.92,-103.52,948.12,10,-239,18
1512179105,0.0056,0.0188,0.3328,137.33,-149.66,877.50,12,-252,20
1512179105,0.0510,0.0190,0.3463,128.54,-52.49,1023.38,12,-252,20
1512179106,0.0377,0.0129,0.3526,32.59,-42.42,951.48,12,-252,20
1512179106,0.0194,0.0000,0.3563,122.99,-12.02,1005.68,12,-252,20
1512179106,-0.0258,-0.0249,0.3654,90.39,-32.41,927.06,10,-271,8
1512179106,0.0112,-0.0465,0.3770,67.20,-45.53,1029.36,10,-271,8
1512179106,-0.0332,-0.0407,0.3712,86.18,-111.94,971.44,10,-271,8
1512179106,0.0108,-0.0281,0.3868,65.43,-15.99,1164.92,10,-271,8
1512179106,-0.0475,-0.0120,0.3667,140.20,-218.44,950.68,10,-271,8
1512179106,-0.0446,-0.0015,0.3925,199.52,-119.45,843.26,26,-266,0
1512179106,-0.0614,0.0095,0.3807,202.58,-129.21,930.79,26,-266,0
1512179106,-0.0415,0.0217,0.3933,189.70,-100.10,1008.42,26,-266,0
1512179106,-0.0274,0.0316,0.3961,153.63,-106.26,1026.37,26,-266,0
1512179106,0.0249,0.0300,0.4105,123.54,-101.50,1090.94,26,-266,0
1512179106,-0.0240,0.0213,0.4161,136.60,-85.21,946.66,38,-285,28
1512179106,-0.0425,-0.0072,0.4273,113.28,-139.40,879.21,38,-285,28
1512179106,-0.0144,-0.0197,0.4376,97.05,-101.44,952.82,38,-285,28
1512179106,0.0040,-0.0071,0.4325,147.77,-110.66,1016.72,38,-285,28
1512179106,0.0290,-0.0012,0.4361,103.82,-127.81,1007.63,31,-292,28
1512179106,-0.0288,0.0049,0.4345,206.30,-143.92,851.56,31,-292,28
1512179106,-0.0337,0.0342,0.4292,234.19,-164.25,798.46,31,-292,28
1512179106,0.0257,0.0562,0.4337,205.14,-169.31,905.52,31,-292,28
1512179106,-0.0244,0.0545,0.4342,217.96,-202.88,885.74,31,-292,28
1512179106,-0.0285,0.0561,0.4439,195.13,-214.11,887.94,40,-297,20
1512179106,-0.0016,0.0607,0.4529,130.49,-62.26,997.19,40,-297,20
1512179106,0.0210,0.0615,0.4677,187.87,-193.54,881.16,40,-297,20
1512179106,-0.0017,0.0687,0.4586,151.43,-90.39,796.69,40,-297,20
1512179106,0.0293,0.0550,0.4675,86.61,-187.68,967.77,49,-299,15
1512179106,-0.0079,0.0293,0.4675,155.82,-161.32,866.33,49,-299,15
1512179106,0.0439,0.0332,0.4692,135.13,-83.01,1066.89,49,-299,15
1512179106,0.0345,0.0309,0.4665,145.57,-120.30,942.50,49,-299,15
1512179106,0.0228,0.0264,0.4663,140.81,-130.00,981.20,49,-299,15
1512179106,0.0273,0.0261,0.4598,168.21,-175.96,1025.94,59,-313,35
1512179106,0.0542,0.0123,0.4649,142.33,-109.92,1031.62,59,-313,35
1512179106,0.0238,0.0099,0.4666,176.57,-138.06,992.43,59,-313,35
1512179106,0.0206,-0.0061,0.4700,159.24,-148.99,1043.40,59,-313,35
1512179106,0.0547,-0.0084,0.4748,152.77,-84.66,1010.50,66,-313,28
1512179106,0.0736,-0.0132,0.4828,92.77,-129.03,985.84,66,-313,28
1512179106,0.0366,-0.0005,0.4803,164.31,-134.46,837.22,66,-313,28
1512179106,0.0206,0.0268,0.4760,173.46,-126.28,862.92,66,-313,28
1512179107,0.1132,0.0205,0.4864,104.80,-136.90,1041.93,66,-313,28
1512179107,0.0449,0.0230,0.4731,176.27,-109.80,911.74,70,-324,28
1512179107,0.0613,0.0232,0.4730,113.59,-109.62,975.34,70,-324,28
1512179107,0.0973,0.0113,0.4634,153.81,-135.50,987.61,70,-324,28
1512179107,0.0370,0.0178,0.4631,150.45,-137.02,886.78,70,-324,28
1512179107,0.0308,0.0260,0.4607,142.94,-185.24,825.74,70,-324,28
1512179107,0.0595,0.0190,0.4626,165.77,-121.83,843.81,68,-322,23
1512179107,0.0538,0.0332,0.4597,128.11,-149.90,923.77,68,-322,23
1512179107,0.0792,0.0220,0.4597,138.73,-101.93,952.76,68,-322,23
1512179107,0.0537,0.0157,0.4595,132.14,-135.01,904.72,68,-322,23
1512179107,0.0776,0.0129,0.4589,74.10,-99.30,997.07,75,-350,20
1512179107,0.0313,0.0099,0.4577,133.79,-58.84,934.45,75,-350,20
1512179107,0.0483,0.0145,0.4507,40.28,-138.12,1050.11,75,-350,20
1512179107,0.0752,0.0184,0.4533,101.81,-98.08,1041.44,75,-350,20
1512179107,0.0314,0.0157,0.4473,105.53,-104.74,985.35,75,-350,20
1512179107,0.0530,0.0174,0.4438,115.17,-177.06,1028.63,82,-347,27
1512179107,0.0035,0.0186,0.4396,175.35,-108.40,816.89,82,-347,27
1512179107,-0.0004,0.0130,0.4393,118.35,-163.39,801.27,82,-347,27
1512179107,0.0732,0.0133,0.4393,67.63,-100.28,988.83,82,-347,27
1512179107,0.0537,0.0123,0.4409,25.70,-100.65,921.08,82,-347,27
1512179107,0.0467,0.0109,0.4366,57.13,-81.24,1037.60,96,-364,37
1512179107,0.0316,0.0224,0.4392,114.20,-124.94,949.65,96,-364,37
1512179107,0.0233,0.0256,0.4320,113.65,-169.07,898.86,96,-364,37
1512179107,0.0427,0.0189,0.4306,121.70,-90.39,934.14,96,-364,37
1512179107,0.0248,0.0220,0.4228,86.85,-103.94,1036.99,101,-373,28
1512179107,0.0217,0.0193,0.4186,120.30,-185.24,930.73,101,-373,28
1512179107,-0.0004,0.0302,0.4172,138.18,-123.35,893.74,101,-373,28
1512179107,-0.0099,0.0226,0.4193,135.50,-113.04,834.23,101,-373,28
1512179107,0.0660,0.0197,0.4173,89.72,-99.79,995.97,101,-373,28
1512179107,0.0310,0.0210,0.4100,106.81,-106.08,946.11,107,-371,30
1512179107,0.0099,0.0282,0.4016,68.73,-92.71,910.83,107,-371,30
1512179107,0.0397,0.0318,0.3951,104.74,-119.51,937.74,107,-371,30
1512179107,0.0672,0.0442,0.3900,59.08,-74.04,1056.15,107,-371,30
1512179107,0.0240,0.0406,0.3812,108.09,-92.65,942.44,122,-373,32
1512179107,0.0598,0.0507,0.3810,102.72,-37.05,1021.06,122,-373,32
1512179107,0.0088,0.0489,0.3688,116.21,-86.79,961.85,122,-373,32
1512179107,0.0368,0.0435,0.3645,55.30,-109.68,1000.55,122,-373,32
1512179107,-0.0228,0.0282,0.3641,56.70,-105.96,879.33,122,-373,32
1512179108,0.0253,0.0146,0.3695,46.39,-101.93,993.41,130,-377,35
1512179108,0.0178,0.0111,0.3684,84.11,-81.85,919.98,130,-377,35
1512179108,0.0125,0.0033,0.3646,9.89,-119.32,946.47,130,-377,35
1512179108,0.0196,0.0061,0.3622,66.28,-81.36,928.28,130,-377,35
1512179108,0.0067,0.0134,0.3497,97.72,-113.40,963.38,130,-377,35
1512179108,0.0278,0.0064,0.3481,68.24,-140.75,935.97,138,-364,33
1512179108,0.0182,0.0117,0.3334,116.15,-104.19,927.73,138,-364,33
1512179108,0.0220,0.0170,0.3293,109.62,-88.44,982.73,138,-364,33
1512179108,0.0220,0.0128,0.3284,82.82,-95.83,931.88,138,-364,33
1512179108,0.0474,0.0264,0.3266,71.04,-89.42,1018.74,147,-380,15
1512179108,0.0116,0.0253,0.3249,48.83,-103.52,933.72,147,-380,15
1512179108,0.0087,0.0270,0.3236,78.12,-107.67,884.70,147,-380,15
1512179108,0.0015,0.0313,0.3159,89.23,-171.63,931.09,147,-380,15
1512179108,0.0455,0.0312,0.3185,86.43,-113.34,1027.34,147,-380,15
1512179108,0.0648,0.0403,0.3249,70.74,-97.35,984.19,144,-384,1
1512179108,0.0216,0.0210,0.3188,79.04,-133.73,845.03,144,-384,1
1512179108,-0.0137,0.0180,0.3149,146.06,-73.97,913.82,144,-384,1
1512179108,0.0621,0.0129,0.3216,37.35,-78.80,1113.65,144,-384,1
1512179108,0.0794,0.0133,0.3147,37.72,-35.28,1148.01,144,-384,1
1512179108,0.0073,0.0076,0.3166,72.63,-38.15,978.82,170,-379,13
1512179108,0.0140,-0.0121,0.3182,24.23,-66.59,1014.34,170,-379,13
1512179108,0.0249,-0.0088,0.3180,63.35,-57.25,1004.03,170,-379,13
1512179108,-0.0314,-0.0048,0.3103,109.44,-101.81,900.33,170,-379,13
1512179108,0.0278,0.0024,0.3149,77.45,-71.53,1054.99,179,-384,18
1512179108,0.0061,-0.0011,0.3072,121.09,-110.47,1059.88,179,-384,18
1512179108,0.0053,0.0005,0.3080,123.17,-111.45,960.21,179,-384,18
1512179108,-0.0108,0.0051,0.3196,95.46,-100.83,881.04,179,-384,18
1512179108,-0.0168,0.0032,0.3119,130.68,-77.15,923.77,179,-384,18
1512179108,0.0250,0.0016,0.3145,61.46,-96.25,987.37,172,-387,18
1512179108,0.0069,0.0113,0.3097,101.62,-130.13,937.68,172,-387,18
1512179108,-0.0059,0.0115,0.3060,119.75,-97.41,926.94,172,-387,18
1512179108,0.0019,0.0037,0.3083,105.77,-120.61,908.33,172,-387,18
1512179108,0.0089,-0.0021,0.3064,137.51,-89.54,874.21,172,-387,18
1512179108,0.0020,-0.0032,0.3025,111.94,-76.29,846.50,182,-377,11
1512179108,0.0615,0.0085,0.2975,94.36,-80.26,983.89,182,-377,11
1512179108,0.0626,0.0172,0.2977,82.21,-79.41,1016.36,182,-377,11
1512179108,0.0494,0.0206,0.2963,121.83,-66.83,987.18,182,-377,11
1512179108,0.0296,0.0197,0.2937,141.48,-72.57,967.83,209,-396,10
1512179109,0.0423,0.0120,0.2999,74.16,-72.63,1019.96,209,-396,10
1512179109,0.0065,0.0109,0.2939,107.42,-79.28,896.42,209,-396,10
1512179109,0.0197,0.0272,0.2940,96.25,-75.81,1023.62,209,-396,10
1512179109,0.0517,0.0362,0.2899,75.93,-53.71,1035.28,209,-396,10
1512179109,0.0695,0.0431,0.2916,95.64,-53.47,1047.49,210,-391,11
1512179109,0.0768,0.0398,0.2924,105.16,-55.85,940.80,210,-391,11
1512179109,0.0505,0.0463,0.2908,111.69,-92.41,871.28,210,-391,11
1512179109,0.0675,0.0486,0.2902,116.52,-56.03,964.84,210,-391,11
1512179109,0.0358,0.0479,0.2890,134.16,-21.30,902.59,210,-391,11
1512179109,0.0965,0.0425,0.2951,57.01,-32.35,1087.95,203,-377,22
1512179109,0.0037,0.0450,0.2959,103.33,-42.60,850.95,203,-377,22
1512179109,0.0317,0.0426,0.2984,62.56,-29.42,994.38,203,-377,22
1512179109,0.0686,0.0286,0.2995,90.58,-17.58,1003.97,203,-377,22
1512179109,0.0119,0.0140,0.2969,105.77,-61.16,932.92,210,-387,8
1512179109,0.0052,0.0088,0.2992,99.43,-76.54,959.66,210,-387,8
1512179109,0.0461,0.0064,0.3052,76.90,-34.30,1045.10,210,-387,8
1512179109,0.0257,0.0052,0.3084,82.82,-20.87,919.92,210,-387,8
1512179109,0.0415,0.0138,0.3065,63.42,-45.65,1071.17,210,-387,8
1512179109,0.0244,0.0081,0.3071,56.27,-65.61,928.47,224,-391,15
1512179109,-0.0447,0.0064,0.3021,159.67,-64.15,809.33,224,-391,15
1512179109,-0.0515,0.0001,0.3092,142.94,-145.51,805.48,224,-391,15
1512179109,-0.0149,-0.0024,0.3083,155.58,-81.18,906.86,224,-391,15
1512179109,-0.0037,0.0105,0.3198,164.43,-39.92,940.06,224,-391,15
1512179109,0.0057,0.0137,0.3229,134.16,-101.75,928.16,238,-391,25
1512179109,0.0292,0.0233,0.3237,161.74,-42.30,948.36,238,-391,25
1512179109,0.0281,0.0290,0.3196,138.67,-26.18,1084.84,238,-391,25
1512179109,0.0466,0.0127,0.3296,134.28,-9.64,1026.25,238,-391,25
1512179109,0.0013,0.0140,0.3194,157.23,-21.06,930.24,247,-382,13
1512179109,0.0057,0.0277,0.3280,114.81,-49.26,980.83,247,-382,13
1512179109,0.0189,0.0124,0.3316,113.59,-49.62,978.58,247,-382,13
1512179109,0.0117,0.0418,0.3309,147.09,-55.18,905.88,247,-382,13
1512179109,0.0063,0.0362,0.3345,157.17,-145.08,965.39,247,-382,13
1512179109,-0.0208,-0.0073,0.3393,142.40,-86.73,900.63,245,-409,18
1512179109,-0.0043,-0.0041,0.3433,144.17,-88.50,943.05,245,-409,18
1512179109,0.0028,-0.0081,0.3433,157.78,-94.18,862.24,245,-409,18
1512179109,0.0063,0.0099,0.3453,163.27,-106.14,950.26,245,-409,18
1512179109,-0.0027,-0.0001,0.3446,189.64,-112.00,940.49,245,-409,18
1512179109,0.0297,-0.0047,0.3542,153.69,-96.31,903.02,253,-409,11
1512179110,0.0418,0.0079,0.3543,178.59,-97.72,924.38,253,-409,11
1512179110,0.0353,0.0162,0.3555,153.87,-77.09,934.08,253,-409,11
1512179110,0.0103,0.0061,0.3557,169.25,-121.09,847.96,253,-409,11
1512179110,0.0029,0.0065,0.3562,162.90,-132.51,930.66,270,-394,15
1512179110,0.0141,0.0032,0.3601,156.98,-84.66,927.86,270,-394,15
1512179110,0.0079,0.0169,0.3637,171.08,-100.77,897.77,270,-394,15
1512179110,-0.0138,0.0088,0.3671,149.35,-118.23,874.51,270,-394,15
1512179110,0.0310,0.0057,0.3776,103.21,-63.84,998.41,270,-394,15
1512179110,-0.0051,-0.0072,0.3806,141.11,-56.95,879.82,277,-394,25
1512179110,-0.0017,0.0052,0.3771,100.59,-75.26,982.73,277,-394,25
1512179110,0.0204,0.0222,0.3823,134.16,-101.99,924.80,277,-394,25
1512179110,0.0305,0.0350,0.3792,146.73,-83.07,923.77,277,-394,25
1512179110,0.0856,0.0410,0.3806,148.68,-78.06,1084.41,279,-379,27
1512179110,0.0115,0.0288,0.3848,160.58,-133.61,904.48,279,-379,27
1512179110,0.0302,0.0340,0.3870,169.86,-58.84,951.11,279,-379,27
1512179110,0.0153,0.0353,0.3924,126.16,-97.53,929.20,279,-379,27
1512179110,0.0708,0.0337,0.4005,111.08,-74.34,960.94,279,-379,27
1512179110,0.0606,0.0469,0.4053,132.81,-110.60,895.14,288,-380,32
1512179110,0.0623,0.0390,0.4007,125.00,-105.41,937.56,288,-380,32
1512179110,0.0422,0.0253,0.4071,119.51,-95.46,920.65,288,-380,32
1512179110,0.0218,0.0119,0.4063,90.76,-63.54,914.49,288,-380,32
1512179110,0.0206,0.0152,0.4032,115.84,-109.74,936.77,288,-380,32
1512179110,0.0415,0.0314,0.3977,132.14,-113.89,869.57,303,-375,30
1512179110,0.0571,0.0241,0.4055,115.97,-46.20,918.03,303,-375,30
1512179110,0.0621,0.0115,0.3900,102.05,-111.45,1034.61,303,-375,30
1512179110,0.0615,0.0005,0.3947,144.23,-94.85,905.09,303,-375,30
1512179110,0.0141,-0.0182,0.4008,69.58,-38.82,869.51,326,-366,38
1512179110,0.0121,-0.0321,0.3999,93.81,-139.22,868.35,326,-366,38
1512179110,0.0446,-0.0265,0.4084,72.45,-62.93,906.25,326,-366,38
1512179110,-0.0087,-0.0361,0.4061,65.37,-87.10,927.19,326,-366,38
1512179110,0.0221,-0.0506,0.4097,25.15,-42.42,1088.93,326,-366,38
1512179110,0.0108,-0.0567,0.4068,54.87,-69.52,994.14,339,-375,27
1512179110,0.0068,-0.0525,0.4085,42.91,-83.25,1065.25,339,-375,27
1512179110,-0.0119,-0.0403,0.3955,94.67,-134.34,981.99,339,-375,27
1512179110,-0.0433,-0.0478,0.4001,106.02,-122.44,898.32,339,-375,27
1512179110,-0.0306,-0.0393,0.3991,160.40,-95.46,913.45,339,-375,27
1512179110,0.0092,-0.0414,0.4009,133.36,-100.16,1001.40,326,-384,38
1512179110,0.0132,-0.0458,0.3991,120.00,-130.25,990.23,326,-384,38
1512179111,0.0035,-0.0483,0.3997,112.43,-165.65,930.11,326,-384,38
1512179111,0.0455,-0.0506,0.4068,85.88,-136.54,1012.15,326,-384,38
1512179111,0.0527,-0.0184,0.4007,94.73,-146.00,1043.82,333,-377,28
1512179111,0.0784,0.0107,0.3977,145.81,-92.53,1033.69,333,-377,28
1512179111,0.0648,0.0513,0.3867,137.45,-163.02,1033.57,333,-377,28
1512179111,0.0835,0.0989,0.3758,162.11,-170.04,997.56,333,-377,28
1512179111,0.0716,0.0963,0.3803,122.19,-169.86,920.10,333,-377,28
1512179111,0.0221,0.0591,0.3796,82.03,-181.95,918.88,360,-364,27
1512179111,0.0103,0.0368,0.3900,51.70,-153.56,800.78,360,-364,27
1512179111,0.0475,0.0144,0.3955,-29.42,-111.15,960.63,360,-364,27
1512179111,0.0210,-0.0064,0.3936,20.32,-74.95,884.70,360,-364,27
1512179111,0.0245,-0.0258,0.3915,18.86,-133.85,908.39,360,-364,27
1512179111,0.0284,-0.0406,0.3911,73.30,-173.95,868.84,358,-345,25
1512179111,0.0293,-0.0260,0.3760,67.38,-149.05,845.52,358,-345,25
1512179111,0.0385,-0.0148,0.3686,145.94,-185.06,867.86,358,-345,25
1512179111,0.0013,-0.0228,0.3625,95.89,-211.67,916.93,358,-345,25
1512179111,0.0177,-0.0336,0.3669,147.40,-190.43,959.59,349,-354,37
1512179111,-0.0127,-0.0382,0.3811,48.03,-142.70,968.69,349,-354,37
1512179111,-0.0441,-0.0337,0.3940,94.36,-186.40,925.84,349,-354,37
1512179111,-0.0277,-0.0288,0.3949,83.01,-163.94,1068.48,349,-354,37
1512179111,-0.0808,-0.0334,0.3923,61.95,-230.96,868.77,349,-354,37
1512179111,-0.0193,-0.0320,0.3943,91.00,-180.30,981.20,376,-331,32
1512179111,-0.0618,-0.0115,0.3830,110.60,-189.88,791.32,376,-331,32
1512179111,-0.0031,-0.0221,0.3826,78.00,-229.13,1016.78,376,-331,32
1512179111,-0.0127,-0.0300,0.3770,88.07,-136.54,990.30,376,-331,32
1512179111,-0.0174,-0.0285,0.3795,82.89,-212.40,992.07,384,-333,16
1512179111,0.0463,-0.0353,0.3854,99.12,-177.67,985.29,384,-333,16
1512179111,-0.0138,-0.0266,0.3856,91.43,-225.46,924.26,384,-333,16
1512179111,-0.0096,-0.0241,0.3856,90.45,-245.36,960.33,384,-333,16
1512179111,-0.0029,-0.0254,0.3964,56.76,-193.79,908.45,384,-333,16
1512179111,0.0031,-0.0205,0.3896,51.45,-205.38,1065.86,391,-333,33
1512179111,0.0129,-0.0049,0.3863,78.55,-239.81,1065.98,391,-333,33
1512179111,0.0025,0.0115,0.3812,98.33,-233.40,965.64,391,-333,33
1512179111,0.0453,0.0085,0.3788,136.05,-204.35,992.74,391,-333,33
1512179111,0.0360,-0.0113,0.3702,180.24,-191.53,988.65,391,-333,33
1512179111,0.1016,0.0133,0.3539,144.23,-246.70,1097.66,391,-333,20
1512179111,0.1491,0.0385,0.3566,75.50,-191.22,1063.42,391,-333,20
1512179112,0.1595,0.0268,0.3558,7.69,-236.94,1029.79,391,-333,20
1512179112,0.1084,0.0427,0.3526,78.43,-167.97,796.81,391,-333,20
1512179112,0.0822,0.0350,0.3593,20.02,-191.16,941.10,402,-315,33
1512179112,0.0200,0.0228,0.3736,11.05,-178.34,822.33,402,-315,33
1512179112,-0.0096,0.0173,0.3727,-3.17,-181.64,885.01,402,-315,33
1512179112,-0.0350,0.0206,0.3718,-5.13,-205.08,913.82,402,-315,33
1512179112,-0.0276,0.0433,0.3645,40.65,-188.54,917.11,402,-315,33
1512179112,-0.0073,0.0407,0.3577,53.10,-217.59,1013.98,411,-317,28
1512179112,-0.0273,0.0241,0.3474,86.06,-225.71,923.65,411,-317,28
1512179112,-0.0321,0.0149,0.3426,83.74,-235.84,924.87,411,-317,28
1512179112,-0.0241,0.0055,0.3294,69.15,-209.41,1009.34,411,-317,28
1512179112,-0.0097,0.0142,0.3268,74.83,-167.18,957.82,404,-299,42
1512179112,0.0101,0.0077,0.3244,9.46,-244.63,1012.82,404,-299,42
1512179112,0.0212,0.0236,0.3230,52.80,-215.70,980.53,404,-299,42
1512179112,0.0189,0.0477,0.3155,97.90,-223.57,977.84,404,-299,42
1512179112,0.0051,0.0268,0.3104,68.48,-250.12,995.48,404,-299,42
1512179112,-0.0099,0.0160,0.3091,84.53,-215.45,976.56,419,-287,27
1512179112,-0.0320,-0.0152,0.3060,41.08,-229.25,1041.69,419,-287,27
1512179112,-0.0222,-0.0290,0.3012,39.98,-171.14,1082.58,419,-287,27
1512179112,-0.0177,-0.0238,0.3092,5.62,-195.74,1017.09,419,-287,27
1512179112,-0.0200,-0.0170,0.3035,17.46,-257.69,941.53,419,-287,27
1512179112,-0.0072,-0.0021,0.3017,84.17,-238.10,885.01,428,-278,38
1512179112,-0.0318,-0.0053,0.2919,128.42,-240.17,854.25,428,-278,38
1512179112,-0.0077,0.0040,0.2860,99.67,-261.84,937.93,428,-278,38
1512179112,-0.0105,0.0100,0.2830,121.70,-283.14,882.26,428,-278,38
1512179112,0.0120,0.0257,0.2787,61.65,-284.73,989.56,434,-283,37
1512179112,0.0036,0.0316,0.2752,102.97,-234.19,924.07,434,-283,37
1512179112,0.0144,0.0505,0.2752,98.88,-195.31,896.42,434,-283,37
1512179112,0.0157,0.0387,0.2671,68.48,-241.76,981.81,434,-283,37
1512179112,-0.0016,0.0458,0.2605,101.14,-229.74,867.43,434,-283,37
1512179112,0.0421,0.0550,0.2559,24.60,-216.86,1012.88,430,-273,23
1512179112,0.0380,0.0555,0.2505,52.19,-196.23,975.59,430,-273,23
1512179112,0.0260,0.0495,0.2425,33.14,-180.11,972.35,430,-273,23
1512179112,0.0180,0.0591,0.2360,33.94,-236.15,928.65,430,-273,23
1512179112,0.0602,0.0827,0.2265,49.87,-174.80,957.34,430,-273,23
1512179112,0.0775,0.0940,0.2161,-2.20,-184.81,1037.29,435,-253,38
1512179112,0.0543,0.0896,0.2021,55.24,-205.75,965.39,435,-253,38
1512179112,0.0418,0.0816,0.1948,0.12,-187.38,959.05,435,-253,38
1512179113,0.0349,0.0691,0.1794,-19.41,-175.17,964.17,435,-253,38
1512179113,0.0330,0.0694,0.1711,-6.59,-141.42,978.03,444,-276,37
1512179113,0.0164,0.0663,0.1619,-33.69,-144.41,954.90,444,-276,37
1512179113,0.0328,0.0638,0.1529,-32.04,-170.10,1004.76,444,-276,37
