RTC has set the system time
Mag Calibration: Wave device in a figure 8 until done!
  4 seconds to get ready followed by 15 seconds of sampling)
  Mag Calibration done!
  time_unix,rotate_x,rotate_y,rotate_z,acc_x,acc_y,acc_z,mag_x,mag_y,mag_z
  1512178738,0.0017,-0.0008,-0.0008,-39.37,-34.61,997.38,-12,0,1
  1512178738,-0.0216,0.0077,-0.0001,-49.13,-47.61,1004.33,-12,0,1
  1512178738,0.0145,-0.0035,-0.0015,-37.48,-39.67,1008.30,-12,0,1
  1512178738,-0.0079,0.0019,-0.0013,-44.19,-38.82,983.34,1,-3,1
  1512178738,-0.0154,0.0077,-0.0007,-45.65,-49.44,1001.22,1,-3,1
  1512178738,0.0108,-0.0049,-0.0007,-43.64,-42.24,1006.16,1,-3,1
  1512178738,-0.0084,0.0027,0.0003,-44.68,-41.75,978.21,1,-3,1
  1512178738,-0.0145,0.0060,-0.0005,-43.09,-48.46,1000.43,-1,-7,-8
  1512178738,0.0173,-0.0071,-0.0019,-41.69,-43.15,1005.31,-1,-7,-8
  1512178738,-0.0224,0.0077,0.0003,-45.84,-46.14,983.83,-1,-7,-8
  1512178738,-0.0044,0.0033,-0.0004,-36.62,-41.56,1003.78,-1,-7,-8
  1512178738,0.0071,-0.0015,-0.0011,-37.05,-39.67,1010.01,-1,-7,-8
  1512178738,-0.0123,0.0049,-0.0004,-49.93,-45.72,1003.30,-1,-10,-1
  1512178738,-0.0036,0.0032,-0.0021,-37.17,-43.76,1006.23,-1,-10,-1
  1512178738,0.0093,-0.0016,-0.0024,-37.11,-33.94,999.27,-1,-10,-1
  1512178738,-0.0274,0.0093,0.0012,-50.35,-46.57,1000.85,-1,-10,-1
  1512178738,0.0077,-0.0029,-0.0019,-41.75,-44.74,998.41,-1,-10,-1
  1512178738,0.0004,0.0009,-0.0001,-18.25,-17.15,982.24,-14,-12,0
  1512178738,0.0047,0.0000,-0.0113,-56.27,-91.86,957.95,-14,-12,0
  1512178738,0.0061,-0.0088,-0.0011,-57.07,-47.55,1013.31,-14,-12,0
  1512178738,-0.0273,0.0004,0.0000,-64.76,-80.26,979.00,-14,-12,0
  1512178738,-0.0103,0.0029,0.0003,-56.15,-71.59,1019.53,-3,1,0
  1512178738,0.0109,-0.0021,-0.0009,-61.95,-73.06,1006.77,-3,1,0
  1512178738,-0.0292,0.0125,0.0019,-91.13,-70.31,1004.76,-3,1,0
  1512178738,0.0153,0.0000,0.0029,-70.62,-58.41,1024.54,-3,1,0
  1512178738,-0.0193,0.0099,0.0000,-59.63,-72.39,980.29,-3,1,0
  1512178738,-0.0080,0.0013,0.0001,-84.29,-84.59,1010.19,-5,-7,25
  1512178738,0.0225,-0.0084,-0.0027,-71.96,-70.92,1005.98,-5,-7,25
  1512178739,-0.0338,0.0120,0.0023,-75.07,-63.54,997.92,-5,-7,25
  1512178739,0.0213,-0.0057,0.0000,-78.43,-76.35,1009.83,-5,-7,25
  1512178739,0.0043,0.0024,0.0012,-80.63,-64.76,1010.62,-14,-1,6
  1512178739,-0.0229,0.0085,0.0032,-83.98,-59.69,981.99,-14,-1,6
  1512178739,-0.0037,0.0015,0.0045,-92.10,-82.89,1002.50,-14,-1,6
  1512178739,0.0224,-0.0084,0.0029,-71.53,-76.11,1000.85,-14,-1,6
  1512178739,-0.0357,0.0109,0.0065,-77.64,-67.75,977.36,-14,-1,6
  1512178739,-0.0052,0.0036,0.0032,-86.24,-80.99,1007.08,-10,8,-3
  1512178739,0.0321,-0.0096,0.0003,-65.86,-75.81,1004.39,-10,8,-3
  1512178739,-0.0317,0.0123,0.0015,-82.52,-75.81,977.29,-10,8,-3
  1512178739,0.0112,-0.0017,0.0031,-86.98,-87.40,999.33,-10,8,-3
  1512178739,0.0186,-0.0053,0.0008,-72.69,-79.83,1001.16,-10,8,-3
  1512178739,-0.0269,0.0085,0.0057,-80.38,-78.86,984.86,-8,-7,8
  1512178739,0.0188,-0.0031,0.0031,-84.90,-79.90,1012.02,-8,-7,8
  1512178739,0.0210,-0.0067,0.0048,-73.24,-70.19,1002.20,-8,-7,8
  1512178739,-0.0457,0.0144,0.0099,-80.38,-73.97,978.82,-8,-7,8
  1512178739,0.0130,-0.0057,0.0051,-70.31,-70.13,1017.70,5,-3,-11
  1512178739,-0.0067,0.0017,0.0057,-66.10,-69.34,989.50,5,-3,-11
  1512178739,-0.0273,0.0088,0.0056,-73.30,-72.94,985.60,5,-3,-11
  1512178739,0.0313,-0.0112,0.0028,-75.99,-75.99,1003.85,5,-3,-11
  1512178739,-0.0124,0.0048,0.0061,-70.13,-65.61,1002.62,5,-3,-11
  1512178739,-0.0312,0.0120,0.0072,-77.27,-73.43,982.60,-3,5,6
  1512178739,0.0236,-0.0077,0.0052,-81.12,-74.65,996.58,-3,5,6
  1512178739,-0.0184,0.0069,0.0067,-78.43,-66.77,998.23,-3,5,6
  1512178739,-0.0268,0.0076,0.0079,-80.99,-68.12,988.95,-3,5,6
  1512178739,0.0130,-0.0039,0.0055,-80.99,-76.97,994.87,-3,5,6
  1512178739,0.0065,-0.0039,0.0072,-75.07,-66.35,1008.79,-12,-3,11
  1512178739,-0.0320,0.0115,0.0060,-88.44,-71.47,995.36,-12,-3,11
  1512178739,0.0280,-0.0116,0.0061,-81.12,-81.24,999.33,-12,-3,11
  1512178739,-0.0161,0.0039,0.0055,-65.92,-71.78,1003.30,-12,-3,11
  1512178739,-0.0264,0.0071,0.0076,-77.70,-80.81,985.47,-5,-10,8
  1512178739,0.0173,-0.0064,0.0079,-81.42,-82.21,996.09,-5,-10,8
  1512178739,0.0111,-0.0043,0.0068,-68.42,-73.30,1009.70,-5,-10,8
  1512178739,-0.0411,0.0172,0.0091,-71.53,-79.28,1009.22,-5,-10,8
  1512178739,0.0182,-0.0057,0.0084,-88.87,-79.28,1003.66,-5,-10,8
  1512178739,-0.0170,0.0083,0.0083,-71.84,-77.45,1010.44,5,7,8
  1512178739,0.0003,-0.0033,0.0101,-85.51,-75.56,995.18,5,7,8
  1512178739,-0.0313,0.0115,0.0088,-88.56,-76.11,978.39,5,7,8
  1512178740,0.0301,-0.0113,0.0081,-95.76,-87.10,1001.34,5,7,8
  1512178740,-0.0197,0.0037,0.0100,-87.59,-80.81,992.74,5,7,8
  1512178740,-0.0382,0.0130,0.0087,-91.67,-84.59,1013.18,8,14,8
  1512178740,-0.0156,0.0100,0.0085,-105.16,-91.06,979.92,8,14,8
  1512178740,0.0254,-0.0068,0.0075,-111.82,-83.25,987.61,8,14,8
  1512178740,0.0055,0.0012,0.0084,-99.18,-90.15,1016.48,8,14,8
  1512178740,-0.0378,0.0101,0.0105,-94.91,-96.98,990.78,-1,3,8
  1512178740,-0.0138,0.0043,0.0109,-98.39,-101.07,1002.44,-1,3,8
  1512178740,-0.0154,0.0040,0.0119,-107.60,-98.88,998.47,-1,3,8
  1512178740,0.0208,-0.0089,0.0123,-114.14,-89.90,975.16,-1,3,8
  1512178740,-0.0113,0.0075,0.0123,-126.95,-116.88,1020.51,-1,3,8
  1512178740,-0.0056,0.0076,0.0096,-105.35,-109.50,1018.98,-5,-10,1
  1512178740,-0.0465,0.0153,0.0113,-112.43,-115.17,999.15,-5,-10,1
  1512178740,-0.0425,0.0136,0.0121,-116.15,-117.43,980.53,-5,-10,1
  1512178740,-0.0115,0.0059,0.0115,-120.18,-109.80,1011.41,-5,-10,1
  1512178740,-0.0125,0.0052,0.0140,-129.94,-115.91,1022.89,-5,-10,1
  1512178740,-0.0085,0.0028,0.0140,-133.48,-124.76,992.80,0,-5,3
  1512178740,0.0152,-0.0068,0.0149,-132.75,-123.84,980.71,0,-5,3
  1512178740,-0.0278,0.0101,0.0140,-137.39,-125.31,999.51,0,-5,3
  1512178740,0.0224,-0.0060,0.0148,-127.08,-130.07,979.80,0,-5,3
  1512178740,0.0079,-0.0023,0.0138,-130.49,-129.58,972.72,-10,5,13
  1512178740,-0.0055,0.0012,0.0152,-141.91,-123.66,1013.73,-10,5,13
  1512178740,-0.0197,0.0091,0.0177,-133.12,-128.97,970.83,-10,5,13
  1512178740,0.0121,-0.0068,0.0141,-142.76,-114.20,978.88,-10,5,13
  1512178740,-0.0234,0.0084,0.0130,-133.97,-140.38,1016.42,-10,5,13
  1512178740,0.0057,-0.0011,0.0138,-129.88,-133.06,1006.41,-12,-7,5
  1512178740,-0.0077,-0.0011,0.0166,-145.14,-133.24,976.38,-12,-7,5
  1512178740,-0.0057,0.0032,0.0156,-137.21,-137.45,1028.02,-12,-7,5
  1512178740,0.0112,0.0012,0.0164,-123.23,-131.53,1022.09,-12,-7,5
  1512178740,-0.0015,0.0060,0.0150,-129.27,-141.42,1025.88,-12,-7,5
  1512178740,0.0294,-0.0137,0.0169,-145.81,-147.89,1026.06,-15,-10,15
  1512178740,-0.0176,0.0065,0.0184,-119.81,-135.62,1038.02,-15,-10,15
  1512178740,0.0109,-0.0041,0.0158,-137.51,-148.25,1017.94,-15,-10,15
  1512178740,-0.0708,0.0246,0.0228,-139.65,-130.98,1001.40,-15,-10,15
  1512178740,0.0470,-0.0168,0.0189,-140.81,-127.08,993.29,1,10,15
  1512178740,-0.0141,0.0064,0.0164,-143.68,-136.60,1034.79,1,10,15
  1512178740,0.0217,-0.0073,0.0230,-115.23,-121.03,978.33,1,10,15
  1512178741,-0.0111,0.0011,0.0277,-130.80,-130.13,991.15,1,10,15
  1512178741,-0.0349,0.0149,0.0246,-111.94,-122.56,1006.65,1,10,15
  1512178741,0.0168,-0.0069,0.0245,-119.57,-118.41,981.69,-5,-24,5
  1512178741,-0.0194,0.0008,0.0265,-125.24,-129.76,982.18,-5,-24,5
  1512178741,0.0158,-0.0112,0.0264,-127.38,-103.94,976.20,-5,-24,5
  1512178741,0.0453,-0.0136,0.0218,-97.90,-130.25,990.91,-5,-24,5
  1512178741,-0.0446,0.0174,0.0273,-110.05,-138.98,982.24,1,-14,18
  1512178741,0.0083,-0.0041,0.0266,-120.54,-125.79,958.92,1,-14,18
  1512178741,-0.0150,0.0028,0.0228,-115.48,-140.56,1007.63,1,-14,18
  1512178741,-0.0043,-0.0036,0.0249,-117.74,-144.29,986.69,1,-14,18
  1512178741,0.0285,-0.0138,0.0278,-109.07,-124.39,988.04,1,-14,18
  1512178741,-0.0272,0.0127,0.0309,-112.92,-126.83,1025.57,-29,-7,5
  1512178741,0.0015,-0.0019,0.0333,-119.14,-129.82,1022.64,-29,-7,5
  1512178741,-0.0130,0.0004,0.0342,-96.86,-129.21,987.00,-29,-7,5
  1512178741,0.0048,-0.0092,0.0346,-99.37,-133.85,982.36,-29,-7,5
  1512178741,-0.0127,-0.0052,0.0354,-108.58,-118.29,967.77,-29,-7,5
  1512178741,0.0461,-0.0168,0.0317,-86.36,-143.43,1024.41,-24,-5,20
  1512178741,-0.0419,0.0120,0.0381,-95.09,-151.49,1017.76,-24,-5,20
  1512178741,-0.0028,-0.0049,0.0382,-82.58,-147.77,991.52,-24,-5,20
  1512178741,-0.0569,0.0133,0.0427,-100.71,-147.09,1009.22,-24,-5,20
  1512178741,-0.0201,0.0017,0.0467,-125.49,-129.21,993.53,-17,-8,13
  1512178741,-0.0298,0.0101,0.0501,-100.77,-133.91,1012.57,-17,-8,13
  1512178741,-0.0248,0.0027,0.0566,-110.78,-144.84,985.84,-17,-8,13
  1512178741,-0.0165,0.0105,0.0558,-104.49,-119.02,1021.48,-17,-8,13
  1512178741,-0.0368,0.0194,0.0551,-122.74,-163.33,1000.06,-17,-8,13
  1512178741,0.0241,0.0001,0.0537,-91.00,-123.47,966.80,-15,-17,5
  1512178741,0.0643,-0.0101,0.0554,-118.77,-160.10,1037.96,-15,-17,5
  1512178741,-0.0059,0.0115,0.0575,-92.65,-143.80,1045.17,-15,-17,5
  1512178741,0.0039,0.0045,0.0595,-102.60,-159.97,1035.95,-15,-17,5
  1512178741,0.0093,-0.0032,0.0617,-93.20,-145.63,999.02,-15,-17,5
  1512178741,0.0668,-0.0241,0.0633,-116.03,-118.47,1040.59,-10,1,13
  1512178741,0.0064,-0.0020,0.0692,-133.06,-142.70,1057.80,-10,1,13
  1512178741,0.0109,-0.0100,0.0686,-123.05,-123.96,1030.40,-10,1,13
  1512178741,-0.0238,0.0011,0.0755,-133.24,-100.95,978.88,-10,1,13
  1512178741,0.0445,-0.0189,0.0703,-140.50,-128.17,1031.56,-26,-7,11
  1512178741,-0.0342,0.0165,0.0687,-123.78,-113.89,978.45,-26,-7,11
  1512178741,0.0111,0.0032,0.0742,-113.59,-127.32,954.71,-26,-7,11
  1512178741,-0.0033,0.0088,0.0703,-140.26,-154.36,1014.53,-26,-7,11
  1512178742,-0.0558,0.0300,0.0795,-95.70,-129.52,964.97,-26,-7,11
  1512178742,0.0326,0.0001,0.0831,-151.25,-152.77,980.59,-12,-7,22
  1512178742,-0.0278,0.0270,0.0856,-99.37,-120.91,964.29,-12,-7,22
  1512178742,-0.0209,0.0240,0.0929,-116.70,-129.94,961.67,-12,-7,22
  1512178742,0.0434,-0.0083,0.0886,-107.06,-145.57,1028.50,-12,-7,22
  1512178742,-0.0517,0.0216,0.0940,-103.94,-146.55,996.83,-12,-7,22
  1512178742,0.0229,-0.0136,0.0936,-121.34,-161.32,1010.44,0,5,0
  1512178742,-0.0225,0.0049,0.0964,-117.37,-126.71,999.39,0,5,0
  1512178742,-0.0224,0.0085,0.0937,-90.88,-165.34,1028.63,0,5,0
  1512178742,-0.0257,0.0129,0.0921,-89.29,-159.73,1033.02,0,5,0
  1512178742,-0.0485,0.0216,0.0975,-132.87,-101.75,991.88,-26,-17,-8
  1512178742,-0.0455,0.0232,0.0991,-135.13,-107.06,1023.13,-26,-17,-8
  1512178742,-0.0383,0.0125,0.0967,-135.62,-117.00,1021.79,-26,-17,-8
  1512178742,-0.0281,0.0107,0.1009,-106.63,-107.42,990.78,-26,-17,-8
  1512178742,0.0120,0.0060,0.0941,-127.69,-186.89,1016.66,-26,-17,-8
  1512178742,-0.0072,0.0162,0.0915,-92.96,-189.64,989.32,-10,-12,6
  1512178742,0.0352,0.0003,0.0939,-114.26,-175.35,1019.71,-10,-12,6
  1512178742,-0.0128,0.0011,0.1027,-104.86,-179.32,968.20,-10,-12,6
  1512178742,0.0240,-0.0125,0.1029,-116.70,-166.14,1000.61,-10,-12,6
  1512178742,0.0053,-0.0083,0.1065,-147.28,-150.51,990.91,-21,-15,16
  1512178742,0.0238,-0.0212,0.1065,-105.47,-144.47,965.33,-21,-15,16
  1512178742,-0.0152,-0.0049,0.1084,-124.94,-145.94,1003.05,-21,-15,16
  1512178742,-0.0233,-0.0023,0.1104,-91.67,-166.32,964.29,-21,-15,16
  1512178742,0.0378,-0.0144,0.0996,-87.89,-172.42,1013.55,-21,-15,16
  1512178742,0.0225,-0.0138,0.0985,-114.14,-184.45,1018.98,-1,-21,8
  1512178742,0.0214,-0.0033,0.0997,-78.37,-169.01,999.94,-1,-21,8
  1512178742,-0.0016,0.0116,0.1117,-100.22,-146.48,1018.92,-1,-21,8
  1512178742,0.0001,0.0133,0.1055,-107.85,-170.96,1004.64,-1,-21,8
  1512178742,0.0555,-0.0036,0.1115,-55.54,-146.73,962.10,-1,-21,8
  1512178742,0.0036,0.0056,0.1101,-77.82,-181.76,1003.66,-10,-19,6
  1512178742,-0.0294,0.0052,0.1182,-105.22,-170.35,1000.67,-10,-19,6
  1512178742,0.0487,-0.0213,0.1157,-95.03,-144.04,1021.85,-10,-19,6
  1512178742,-0.0631,0.0093,0.1216,-137.70,-146.00,1001.77,-10,-19,6
  1512178742,-0.0015,-0.0120,0.1190,-106.26,-170.53,990.17,-17,-19,6
  1512178742,0.0190,-0.0269,0.1169,-96.68,-137.08,1018.86,-17,-19,6
  1512178742,-0.0675,0.0121,0.1112,-84.17,-197.94,997.01,-17,-19,6
  1512178742,0.0486,-0.0390,0.1150,-118.53,-149.48,1002.08,-17,-19,6
  1512178742,-0.0603,0.0111,0.1162,-97.11,-127.62,1042.79,-17,-19,6
  1512178743,-0.0498,0.0140,0.1208,-88.68,-174.50,1001.89,-15,-31,1
  1512178743,0.0012,-0.0103,0.1293,-136.35,-147.09,1040.53,-15,-31,1
  1512178743,-0.0457,0.0092,0.1248,-98.51,-147.03,993.04,-15,-31,1
  1512178743,0.0172,-0.0254,0.1248,-110.29,-152.10,1016.54,-15,-31,1
  1512178743,0.0160,-0.0284,0.1240,-84.96,-162.23,1025.09,-22,-38,5
  1512178743,-0.0129,-0.0198,0.1252,-109.80,-161.44,1017.52,-22,-38,5
  1512178743,-0.0036,-0.0185,0.1262,-118.10,-188.23,996.28,-22,-38,5
  1512178743,0.0178,-0.0276,0.1204,-109.50,-179.75,1039.12,-22,-38,5
  1512178743,-0.0463,-0.0109,0.1269,-101.38,-147.03,950.38,-22,-38,5
  1512178743,0.0308,-0.0314,0.1266,-87.77,-162.72,966.31,-24,-26,16
  1512178743,-0.0144,-0.0119,0.1364,-86.49,-128.91,1007.26,-24,-26,16
  1512178743,-0.0647,0.0150,0.1402,-103.64,-129.03,1021.79,-24,-26,16
  1512178743,-0.0634,0.0152,0.1497,-71.17,-97.84,958.56,-24,-26,16
  1512178743,0.0232,-0.0116,0.1389,-39.00,-125.98,988.04,-24,-26,16
  1512178743,-0.0563,0.0178,0.1435,-78.92,-149.78,963.32,-33,-38,5
  1512178743,0.0067,0.0007,0.1415,-57.74,-162.54,997.80,-33,-38,5
  1512178743,-0.0204,0.0206,0.1430,-115.91,-154.36,1030.82,-33,-38,5
  1512178743,-0.0494,0.0269,0.1503,-95.03,-149.35,1000.06,-33,-38,5
  1512178743,0.0080,-0.0152,0.1426,-76.29,-159.12,970.46,-19,-35,22
  1512178743,-0.0088,-0.0123,0.1407,-105.90,-123.54,1003.42,-19,-35,22
  1512178743,0.0005,-0.0021,0.1346,-82.89,-153.99,970.34,-19,-35,22
  1512178743,0.0003,-0.0048,0.1441,-62.87,-150.88,951.29,-19,-35,22
  1512178743,-0.0013,-0.0124,0.1430,-63.35,-184.45,976.81,-19,-35,22
  1512178743,-0.0623,0.0057,0.1513,-56.34,-145.94,973.57,-33,-38,1
  1512178743,-0.0029,-0.0065,0.1514,-47.97,-143.01,1021.36,-33,-38,1
  1512178743,-0.0708,0.0202,0.1507,-62.32,-176.51,1026.98,-33,-38,1
  1512178743,-0.0482,0.0023,0.1498,-81.42,-145.75,999.02,-33,-38,1
  1512178743,0.0539,-0.0334,0.1418,-71.11,-141.66,1003.11,-22,-42,-5
  1512178743,-0.0149,-0.0019,0.1403,-22.95,-199.77,1008.24,-22,-42,-5
  1512178743,0.0497,-0.0348,0.1425,-49.32,-200.99,1068.24,-22,-42,-5
  1512178743,-0.0109,-0.0194,0.1453,-50.84,-166.38,1027.77,-22,-42,-5
  1512178743,-0.0557,-0.0111,0.1553,-68.66,-170.23,960.63,-22,-42,-5
  1512178743,-0.0079,-0.0308,0.1518,-84.90,-143.86,982.30,-35,-44,10
  1512178743,0.0028,-0.0308,0.1515,-68.24,-161.50,1018.98,-35,-44,10
  1512178743,-0.0059,-0.0201,0.1499,-48.58,-164.79,1026.00,-35,-44,10
  1512178743,0.0350,-0.0240,0.1457,-27.10,-187.01,993.96,-35,-44,10
  1512178743,-0.0344,0.0064,0.1577,-42.30,-186.28,1007.63,-35,-44,10
  1512178744,-0.0202,-0.0019,0.1859,-34.85,-182.92,970.40,-24,-47,3
  1512178744,-0.0176,-0.0072,0.2185,-30.58,-188.11,1029.05,-24,-47,3
  1512178744,-0.0079,-0.0036,0.2113,-43.70,-180.91,1011.29,-24,-47,3
  1512178744,-0.0734,0.0236,0.2256,-37.72,-165.83,977.42,-24,-47,3
  1512178744,0.0149,-0.0027,0.2325,-42.05,-131.53,1017.70,-12,-31,5
  1512178744,0.1278,-0.0486,0.2365,78.92,-123.66,980.71,-12,-31,5
  1512178744,-0.0132,0.0178,0.2249,111.51,-142.52,975.52,-12,-31,5
  1512178744,-0.0418,0.0185,0.2087,-8.06,-145.57,1005.37,-12,-31,5
  1512178744,0.0206,-0.0109,0.2059,-52.31,-157.10,973.51,-12,-31,5
  1512178744,-0.0202,0.0056,0.1951,-40.83,-171.45,1032.17,-7,-33,-30
  1512178744,-0.0124,0.0087,0.1718,-41.50,-151.67,953.12,-7,-33,-30
  1512178744,0.0057,0.0161,0.1525,-18.92,-135.31,1007.81,-7,-33,-30
  1512178744,-0.0035,0.0218,0.1522,-24.78,-135.80,1050.42,-7,-33,-30
  1512178744,-0.0081,0.0266,0.1477,-5.31,-140.81,1024.35,-7,-33,-30
  1512178744,0.0104,0.0023,0.1442,-4.03,-152.10,1035.03,-14,-37,-27
  1512178744,-0.0261,0.0008,0.1485,0.00,-95.09,1021.73,-14,-37,-27
  1512178744,-0.0087,-0.0103,0.1470,-11.05,-83.07,1010.74,-14,-37,-27
  1512178744,-0.0019,-0.0194,0.1449,16.30,-107.91,981.81,-14,-37,-27
  1512178744,0.0117,-0.0192,0.1459,24.05,-129.46,1051.09,-22,-38,-32
  1512178744,-0.0166,-0.0015,0.1494,58.53,-166.08,998.41,-22,-38,-32
  1512178744,-0.0104,-0.0107,0.1511,52.73,-142.15,916.26,-22,-38,-32
  1512178744,0.0205,-0.0128,0.1451,49.07,-165.59,985.47,-22,-38,-32
  1512178744,-0.0016,-0.0099,0.1446,16.11,-84.11,973.94,-22,-38,-32
  1512178744,-0.0166,-0.0032,0.1453,-29.42,-107.91,993.53,7,-47,-50
  1512178744,0.0562,-0.0123,0.1354,18.62,-109.50,1041.75,7,-47,-50
  1512178744,-0.0067,0.0071,0.1392,-1.40,-87.71,1040.53,7,-47,-50
  1512178744,0.0049,-0.0037,0.1431,25.33,-98.82,986.51,7,-47,-50
  1512178744,0.0035,-0.0080,0.1378,-2.50,-83.25,986.15,7,-47,-50
  1512178744,0.0099,-0.0020,0.1380,-6.04,-105.41,997.01,-15,-56,-28
  1512178744,-0.0061,0.0067,0.1381,9.22,-65.98,982.91,-15,-56,-28
  1512178744,0.0035,-0.0127,0.1377,7.20,-96.74,962.71,-15,-56,-28
  1512178744,-0.0180,-0.0009,0.1346,17.76,-87.22,1044.37,-15,-56,-28
  1512178744,-0.0142,-0.0023,0.1302,20.69,-63.48,979.25,-7,-54,-50
  1512178744,-0.0077,0.0028,0.1296,-11.47,-120.42,996.58,-7,-54,-50
  1512178744,0.0332,0.0052,0.1234,43.52,-84.05,991.21,-7,-54,-50
  1512178744,0.0053,0.0079,0.1277,14.53,-105.22,947.27,-7,-54,-50
  1512178744,0.0150,-0.0208,0.1250,16.42,-95.21,993.47,-7,-54,-50
  1512178744,-0.0047,-0.0193,0.1258,10.93,-46.20,967.71,-17,-72,-30
  1512178745,0.0233,-0.0245,0.1273,7.14,-53.59,1013.55,-17,-72,-30
  1512178745,0.0264,-0.0198,0.1265,32.90,-72.81,967.96,-17,-72,-30
  1512178745,-0.0117,-0.0064,0.1300,15.93,-70.80,933.59,-17,-72,-30
  1512178745,0.0258,-0.0052,0.1214,40.89,-90.21,972.96,-5,-63,-52
  1512178745,0.0120,0.0001,0.1188,25.45,-75.13,1017.94,-5,-63,-52
  1512178745,-0.0001,0.0016,0.1202,40.10,-88.81,1017.58,-5,-63,-52
  1512178745,0.0469,-0.0172,0.1186,46.75,-28.32,1021.67,-5,-63,-52
  1512178745,-0.0523,0.0130,0.1257,12.76,-58.96,985.78,-5,-63,-52
  1512178745,0.0077,0.0000,0.1157,31.19,-104.37,998.60,1,-74,-32
  1512178745,0.0117,0.0068,0.1136,36.38,-100.28,989.14,1,-74,-32
  1512178745,0.0515,-0.0124,0.1142,57.13,-132.26,967.83,1,-74,-32
  1512178745,0.0587,-0.0154,0.1115,62.32,-116.21,1005.25,1,-74,-32
  1512178745,0.0157,-0.0119,0.1107,57.07,-127.01,1041.93,1,-74,-32
  1512178745,0.0119,-0.0134,0.1108,53.71,-108.64,978.70,5,-70,-52
  1512178745,0.0622,-0.0306,0.1076,62.38,-49.99,1020.02,5,-70,-52
  1512178745,-0.0123,-0.0096,0.1127,50.78,-69.27,1034.42,5,-70,-52
  1512178745,-0.0372,-0.0137,0.1115,63.48,-75.26,1024.72,5,-70,-52
  1512178745,0.0025,-0.0257,0.1135,49.56,-89.48,1038.33,-8,-91,-32
  1512178745,-0.0071,-0.0068,0.1089,76.42,-99.91,975.95,-8,-91,-32
  1512178745,-0.0125,0.0015,0.1182,71.41,-125.43,984.44,-8,-91,-32
  1512178745,0.0021,-0.0154,0.1041,87.22,-124.33,960.08,-8,-91,-32
  1512178745,-0.0225,-0.0003,0.1055,48.95,-100.34,981.14,-8,-91,-32
  1512178745,-0.0201,-0.0055,0.1107,70.50,-66.04,1001.77,0,-86,-40
  1512178745,0.0149,-0.0133,0.1105,45.72,-57.25,1003.60,0,-86,-40
  1512178745,-0.0819,0.0441,0.1073,76.78,-85.75,1013.98,0,-86,-40
  1512178745,0.0831,-0.0108,0.1044,76.05,-72.51,1032.04,0,-86,-40
  1512178745,-0.0557,0.0308,0.1128,17.21,-84.78,1010.68,0,-86,-40
  1512178745,0.0306,-0.0005,0.1077,86.43,-107.36,970.58,1,-88,-42
  1512178745,0.0209,0.0017,0.1069,69.40,-82.15,1021.00,1,-88,-42
  1512178745,-0.0093,0.0096,0.1059,57.98,-59.81,983.64,1,-88,-42
  1512178745,0.0182,-0.0028,0.1041,53.71,-63.17,990.97,1,-88,-42
  1512178745,-0.0160,0.0152,0.1039,83.98,-59.81,975.77,0,-82,-54
  1512178745,0.0232,0.0007,0.1024,57.98,-110.60,994.81,0,-82,-54
  1512178745,-0.0282,0.0256,0.1087,59.51,-103.58,939.51,0,-82,-54
  1512178745,0.0403,-0.0016,0.1079,66.71,-117.86,1014.04,0,-82,-54
  1512178745,-0.0506,0.0136,0.1120,38.76,-86.18,986.08,0,-82,-54
  1512178745,0.0133,-0.0048,0.1019,56.27,-96.50,997.62,1,-84,-32
  1512178745,0.0032,-0.0012,0.1072,6.23,-55.18,950.56,1,-84,-32
  1512178746,-0.0116,0.0085,0.1040,11.23,-63.78,1021.85,1,-84,-32
  1512178746,-0.0376,0.0072,0.1051,20.08,-95.28,1026.79,1,-84,-32
  1512178746,0.0129,-0.0302,0.1087,18.80,-40.77,1005.68,5,-88,-45
  1512178746,-0.0471,0.0039,0.1067,51.70,-103.58,1041.14,5,-88,-45
  1512178746,0.0048,-0.0190,0.1017,19.96,-101.56,1065.43,5,-88,-45
  1512178746,-0.0308,0.0067,0.1020,66.96,-113.95,962.04,5,-88,-45
  1512178746,0.0467,-0.0301,0.1027,29.48,-90.09,966.19,5,-88,-45
  1512178746,-0.0561,0.0044,0.1072,9.22,-85.69,951.60,-7,-86,-47
  1512178746,0.0273,-0.0214,0.1039,31.19,-87.46,1011.78,-7,-86,-47
  1512178746,-0.0261,0.0169,0.1056,61.40,-121.34,1002.93,-7,-86,-47
  1512178746,0.0197,-0.0005,0.1045,4.09,-78.25,1040.47,-7,-86,-47
  1512178746,-0.0116,0.0152,0.1021,39.92,-115.54,962.71,-7,-86,-47
  1512178746,0.0550,-0.0019,0.0979,35.46,-132.14,993.10,-8,-95,-38
  1512178746,0.0043,0.0132,0.1004,27.83,-81.54,989.07,-8,-95,-38
  1512178746,0.0182,-0.0016,0.1032,12.33,-62.93,1007.20,-8,-95,-38
  1512178746,-0.0517,0.0234,0.1019,17.46,-79.53,1011.23,-8,-95,-38
  1512178746,0.0514,-0.0285,0.0993,-6.77,-37.54,1024.96,-7,-89,-30
  1512178746,-0.0174,0.0133,0.1068,15.93,-31.74,1006.96,-7,-89,-30
  1512178746,-0.0027,0.0053,0.1111,-6.47,-58.17,977.48,-7,-89,-30
  1512178746,0.0269,0.0041,0.1037,41.99,-78.49,1012.76,-7,-89,-30
  1512178746,0.0165,0.0056,0.1033,40.53,-54.87,968.02,-7,-89,-30
  1512178746,0.0011,0.0063,0.1053,2.87,-56.34,1001.40,1,-95,-32
  1512178746,0.0425,-0.0095,0.1017,21.18,-80.75,1034.91,1,-95,-32
  1512178746,-0.0178,0.0109,0.1084,-1.83,-36.50,990.66,1,-95,-32
  1512178746,0.0084,-0.0059,0.1125,5.19,-66.10,956.12,1,-95,-32
  1512178746,0.0252,-0.0048,0.1140,16.66,-23.07,972.05,-21,-107,-37
  1512178746,0.0471,-0.0097,0.1128,31.37,-60.61,1020.14,-21,-107,-37
  1512178746,-0.0186,0.0210,0.1137,30.46,-81.79,976.20,-21,-107,-37
  1512178746,0.0570,-0.0024,0.1097,39.86,-89.23,1073.12,-21,-107,-37
  1512178746,-0.0357,0.0254,0.1136,11.78,-52.49,1041.69,-21,-107,-37
  1512178746,0.0130,0.0077,0.1135,11.60,-49.68,1081.91,-7,-100,-44
  1512178746,-0.0052,0.0157,0.1128,37.41,-22.28,1032.35,-7,-100,-44
  1512178746,0.0045,0.0146,0.1185,26.86,-51.88,971.86,-7,-100,-44
  1512178746,-0.0583,0.0214,0.1190,-4.03,-82.03,995.24,-7,-100,-44
  1512178746,0.0554,-0.0273,0.1152,52.55,-47.06,989.20,-7,-100,-44
  1512178746,-0.0109,-0.0013,0.1248,9.64,-45.53,976.81,3,-100,-44
  1512178746,-0.0067,0.0142,0.1252,27.77,-91.61,946.47,3,-100,-44
  1512178746,0.0368,0.0039,0.1222,52.98,-81.85,989.62,3,-100,-44
  1512178747,0.0081,0.0170,0.1256,49.01,-114.38,938.96,3,-100,-44
  1512178747,0.0033,0.0075,0.1308,24.78,-80.08,1001.83,1,-98,-38
  1512178747,-0.0170,0.0017,0.1346,7.20,-54.75,1006.10,1,-98,-38
  1512178747,0.0079,0.0043,0.1372,44.68,-51.21,1026.12,1,-98,-38
  1512178747,-0.0157,0.0168,0.1482,36.07,-56.46,1011.17,1,-98,-38
  1512178747,0.0325,0.0121,0.1465,34.00,-86.91,1011.35,1,-98,-38
  1512178747,-0.0008,0.0185,0.1506,40.71,-116.27,995.36,-7,-114,-30
  1512178747,-0.0084,0.0170,0.1507,47.79,-136.66,990.30,-7,-114,-30
  1512178747,0.0342,-0.0084,0.1543,36.32,-76.23,976.14,-7,-114,-30
  1512178747,-0.0248,0.0067,0.1615,31.01,-101.38,930.79,-7,-114,-30
  1512178747,0.0482,-0.0213,0.1663,30.15,-104.19,949.40,-7,-114,-30
  1512178747,0.0318,-0.0043,0.1723,50.35,-87.77,997.56,3,-132,-50
  1512178747,0.0678,-0.0069,0.1723,81.97,-142.64,948.12,3,-132,-50
  1512178747,0.0884,-0.0063,0.1795,62.26,-126.16,1039.61,3,-132,-50
  1512178747,0.0414,0.0031,0.1810,41.02,-125.85,977.54,3,-132,-50
  1512178747,0.0860,-0.0166,0.1756,68.05,-114.93,979.06,-3,-128,-40
  1512178747,0.0561,-0.0177,0.1788,51.51,-92.35,1048.03,-3,-128,-40
  1512178747,-0.0005,-0.0015,0.1850,59.02,-104.00,970.40,-3,-128,-40
  1512178747,0.0834,-0.0270,0.1884,52.43,-92.10,998.72,-3,-128,-40
  1512178747,-0.0166,0.0020,0.1991,26.37,-90.70,997.01,-3,-128,-40
  1512178747,0.0563,-0.0329,0.1992,54.14,-98.57,1002.20,-12,-133,-35
  1512178747,-0.0035,-0.0254,0.2021,58.11,-123.17,967.47,-12,-133,-35
  1512178747,0.0040,-0.0346,0.2095,54.02,-97.47,1005.19,-12,-133,-35
  1512178747,-0.0258,-0.0293,0.2135,45.04,-86.30,960.21,-12,-133,-35
  1512178747,0.0109,-0.0286,0.2135,45.29,-111.21,998.54,-22,-137,-32
  1512178747,0.0349,-0.0322,0.2153,60.18,-130.92,983.64,-22,-137,-32
  1512178747,0.0370,-0.0264,0.2164,86.98,-128.91,983.28,-22,-137,-32
  1512178747,-0.0104,-0.0079,0.2257,82.82,-160.46,1009.34,-22,-137,-32
  1512178747,0.0241,-0.0337,0.2310,68.91,-113.10,995.18,-22,-137,-32
  1512178747,0.0044,-0.0173,0.2345,54.87,-91.86,1004.64,-26,-148,-32
  1512178747,0.0246,-0.0077,0.2340,47.61,-137.88,1000.06,-26,-148,-32
  1512178747,0.0752,-0.0063,0.2330,72.81,-115.66,996.09,-26,-148,-32
  1512178747,0.0080,0.0234,0.2563,93.08,-168.03,981.02,-26,-148,-32
  1512178747,0.0542,-0.0129,0.2435,50.60,-133.42,978.64,-26,-148,-32
  1512178747,-0.0348,0.0134,0.2509,78.49,-144.10,968.02,-22,-148,-52
  1512178747,0.0132,-0.0111,0.2547,29.17,-69.70,931.27,-22,-148,-52
  1512178747,0.0136,0.0007,0.2553,45.59,-80.51,957.28,-22,-148,-52
  1512178748,0.0138,0.0115,0.2561,47.85,-146.61,987.06,-22,-148,-52
  1512178748,0.0593,-0.0047,0.2542,79.10,-93.26,980.65,-22,-148,-52
  1512178748,0.0483,0.0003,0.2561,90.52,-154.36,1024.54,-15,-158,-38
  1512178748,0.0242,-0.0028,0.2602,95.46,-135.07,1062.07,-15,-158,-38
  1512178748,-0.0193,0.0083,0.2563,86.98,-111.08,1031.01,-15,-158,-38
  1512178748,0.0169,-0.0103,0.2609,49.26,-73.12,1017.52,-15,-158,-38
  1512178748,0.0145,0.0068,0.2582,55.36,-61.83,1000.67,-10,-167,-33
  1512178748,-0.0134,0.0182,0.2639,50.54,-98.51,932.80,-10,-167,-33
  1512178748,0.0184,-0.0092,0.2595,20.81,-66.65,1006.71,-10,-167,-33
  1512178748,-0.0115,-0.0020,0.2686,42.79,-85.08,927.49,-10,-167,-33
  1512178748,0.0222,-0.0116,0.2682,38.76,-92.53,952.03,-10,-167,-33
  1512178748,0.0204,0.0004,0.2682,73.61,-119.45,968.26,-7,-185,-33
  1512178748,0.0252,-0.0033,0.2686,95.15,-139.89,1018.62,-7,-185,-33
  1512178748,0.0244,0.0019,0.2688,98.57,-108.40,1073.91,-7,-185,-33
  1512178748,-0.0216,0.0217,0.2724,86.00,-204.41,959.11,-7,-185,-33
  1512178748,0.0985,-0.0285,0.2653,110.17,-173.34,970.89,1,-169,-45
  1512178748,0.0360,-0.0132,0.2680,123.90,-149.41,967.96,1,-169,-45
  1512178748,0.0507,-0.0193,0.2675,110.17,-172.85,1031.07,1,-169,-45
  1512178748,0.0153,0.0063,0.2680,122.50,-130.74,1056.52,1,-169,-45
  1512178748,0.0237,-0.0072,0.2723,70.37,-94.85,1074.65,1,-169,-45
  1512178748,-0.0389,0.0093,0.2747,56.27,-88.87,988.40,-8,-179,-38
  1512178748,0.0411,-0.0208,0.2716,94.97,-126.65,1074.10,-8,-179,-38
  1512178748,-0.0491,-0.0016,0.2762,50.54,-106.81,1020.57,-8,-179,-38
  1512178748,-0.0426,-0.0100,0.2800,55.24,-127.50,969.18,-8,-179,-38
  1512178748,-0.0241,-0.0019,0.2804,60.36,-115.91,953.00,-8,-179,-38
  1512178748,-0.0654,0.0278,0.2855,83.44,-157.71,997.56,7,-192,-33
  1512178748,-0.0233,-0.0009,0.2884,85.02,-122.25,932.37,7,-192,-33
  1512178748,-0.0041,-0.0184,0.2895,55.91,-135.31,940.61,7,-192,-33
  1512178748,-0.0912,0.0077,0.2969,79.59,-158.02,934.45,7,-192,-33
  1512178748,0.0439,-0.0672,0.2984,49.50,-158.33,966.92,5,-193,-35
  1512178748,-0.0194,-0.0441,0.2944,56.03,-144.53,1006.16,5,-193,-35
  1512178748,-0.0671,-0.0200,0.3068,36.93,-170.17,1018.62,5,-193,-35
  1512178748,-0.0150,-0.0505,0.2902,28.38,-100.83,1012.57,5,-193,-35
  1512178748,0.0011,-0.0389,0.2824,56.58,-107.60,987.67,5,-193,-35
  1512178748,-0.0704,-0.0081,0.2866,45.04,-147.34,981.20,15,-204,-38
  1512178748,0.0987,-0.0691,0.2782,54.50,-122.13,1019.17,15,-204,-38
  1512178748,-0.0573,0.0172,0.2992,60.18,-155.40,1030.82,15,-204,-38
  1512178748,0.0321,-0.0004,0.2836,89.84,-121.77,1036.01,15,-204,-38
  1512178749,0.0506,-0.0021,0.2798,89.72,-137.76,1110.66,15,-204,-38
  1512178749,-0.0305,0.0486,0.2791,111.63,-134.40,1050.54,28,-195,-44
  1512178749,0.0141,0.0399,0.2880,81.18,-203.06,939.21,28,-195,-44
  1512178749,-0.0350,0.0426,0.2864,-5.68,-142.76,997.56,28,-195,-44
  1512178749,0.0060,0.0201,0.3017,53.83,-183.23,914.25,28,-195,-44
  1512178749,0.0079,0.0284,0.2953,80.63,-184.14,983.64,19,-208,-38
  1512178749,-0.0068,0.0270,0.3077,36.07,-119.26,1020.69,19,-208,-38
  1512178749,-0.0527,0.0451,0.2972,53.77,-89.29,958.68,19,-208,-38
  1512178749,0.0799,-0.0012,0.2919,50.29,-131.90,1042.66,19,-208,-38
  1512178749,0.0133,0.0282,0.2864,39.00,-144.04,989.50,19,-208,-38
  1512178749,0.0489,0.0067,0.2843,71.78,-120.24,1023.19,36,-211,-32
  1512178749,0.0080,0.0213,0.2822,89.29,-152.16,1072.51,36,-211,-32
  1512178749,0.0209,0.0108,0.2883,95.70,-168.52,1018.49,36,-211,-32
  1512178749,-0.0561,0.0450,0.2999,31.98,-119.75,979.68,36,-211,-32
  1512178749,0.0156,0.0146,0.2965,-13.24,-112.30,1036.80,36,-211,-32
  1512178749,-0.0652,0.0537,0.2991,19.65,-131.59,1018.37,49,-213,-44
  1512178749,-0.0320,0.0286,0.3140,7.26,-117.43,947.81,49,-213,-44
  1512178749,-0.0200,0.0198,0.3079,24.05,-124.45,959.29,49,-213,-44
  1512178749,-0.0419,0.0218,0.3186,37.54,-153.14,955.69,49,-213,-44
  1512178749,-0.0196,0.0184,0.3155,15.99,-172.91,977.78,45,-216,-40
  1512178749,-0.0662,0.0260,0.3281,64.58,-134.09,1003.11,45,-216,-40
  1512178749,-0.0880,0.0289,0.3469,-12.51,-164.43,895.14,45,-216,-40
  1512178749,-0.0423,0.0136,0.3229,16.48,-159.55,987.85,45,-216,-40
  1512178749,0.0710,-0.0174,0.3135,47.49,-128.54,1068.60,45,-216,-40
  1512178749,-0.0756,0.0526,0.3233,26.86,-177.00,1007.26,54,-218,-32
  1512178749,0.0594,0.0067,0.3214,60.49,-211.06,1063.96,54,-218,-32
  1512178749,0.0867,-0.0123,0.3236,71.35,-173.16,1057.19,54,-218,-32
  1512178749,0.0028,0.0069,0.3382,66.22,-205.93,1082.40,54,-218,-32
  1512178749,0.0658,-0.0292,0.3117,6.47,-138.67,1021.85,54,-218,-32
  1512178749,0.0281,-0.0185,0.3156,-41.14,-27.28,944.27,59,-227,-44
  1512178749,-0.0280,0.0234,0.3244,-18.37,-139.95,976.56,59,-227,-44
  1512178749,-0.0044,-0.0003,0.3213,-44.62,-88.93,984.37,59,-227,-44
  1512178749,-0.0040,-0.0055,0.3325,37.78,-111.88,938.11,59,-227,-44
  1512178749,-0.1045,0.0265,0.3419,20.14,-126.53,931.52,63,-230,-37
  1512178749,-0.0166,-0.0189,0.3454,19.29,-149.66,967.77,63,-230,-37
  1512178749,-0.0543,0.0019,0.3419,77.88,-143.37,980.77,63,-230,-37
  1512178749,-0.0446,-0.0121,0.3495,35.77,-200.87,937.01,63,-230,-37
  1512178749,0.0101,-0.0278,0.3398,97.17,-237.30,1049.07,63,-230,-37
  1512178750,0.0185,-0.0245,0.3404,98.27,-202.51,1002.50,77,-241,-50
  1512178750,-0.0107,-0.0032,0.3826,66.04,-200.87,991.21,77,-241,-50
  1512178750,0.1625,-0.0642,0.4844,37.05,-160.64,1014.65,77,-241,-50
  1512178750,0.0052,0.0141,0.6064,58.41,-159.79,1000.12,77,-241,-50
  1512178750,0.0469,0.0216,0.6714,37.41,-153.99,932.43,119,-209,-91
  1512178750,0.1631,0.0100,0.8171,98.94,-219.54,1490.05,119,-209,-91
  1512178750,0.6591,0.2928,1.1979,45.04,-106.69,704.16,119,-209,-91
  1512178750,1.5846,1.6034,1.4510,44.25,-327.51,1390.56,119,-209,-91
  1512178750,0.6649,1.0388,1.4502,28.44,-332.34,1075.44,119,-209,-91
  1512178750,-1.2502,-0.6989,1.0706,-225.77,-9.95,423.77,200,-86,-176
  1512178750,-0.5008,0.0754,0.5507,-14.65,-65.86,1274.90,200,-86,-176
  1512178750,-0.0087,0.0716,0.3498,64.64,-161.38,944.64,200,-86,-176
  1512178750,0.2987,-0.0345,0.3971,-14.34,-25.82,1094.24,200,-86,-176
  1512178750,0.0021,-0.0166,0.3546,27.47,-75.99,973.69,200,-86,-176
  1512178750,0.1232,0.0683,0.3638,-37.54,-90.21,1070.56,224,-51,-230
  1512178750,0.0651,-0.0622,0.3558,-32.96,-68.54,1020.57,224,-51,-230
  1512178750,0.0310,0.0687,0.3663,-65.06,-79.41,1031.74,224,-51,-230
  1512178750,0.0543,-0.0274,0.3581,5.25,-66.71,1038.33,224,-51,-230
  1512178750,0.1161,-0.0296,0.3647,-7.57,-65.67,1012.39,223,-45,-245
  1512178750,0.0892,-0.0441,0.3605,-37.29,-61.83,1007.14,223,-45,-245
  1512178750,0.1124,0.0035,0.3665,27.22,-46.69,995.24,223,-45,-245
  1512178750,0.0678,-0.0085,0.3715,-49.74,-117.80,1025.33,223,-45,-245
  1512178750,-0.0463,-0.0730,0.3680,-0.49,-151.98,957.40,223,-45,-245
  1512178750,-0.0546,0.0027,0.3657,15.26,-187.32,971.25,226,-56,-245
  1512178750,0.0150,0.0000,0.3692,4.52,-152.65,976.38,226,-56,-245
  1512178750,-0.0455,-0.0523,0.3669,-17.64,-179.26,965.58,226,-56,-245
  1512178750,-0.0710,-0.0089,0.3680,17.88,-173.77,961.55,226,-56,-245
  1512178750,-0.0822,0.0053,0.3607,26.49,-182.98,1049.93,226,-56,-245
  1512178750,-0.0071,-0.0241,0.3594,40.04,-132.32,995.06,249,-47,-267
  1512178750,0.0071,-0.0029,0.3634,27.16,-136.90,1009.70,249,-47,-267
  1512178750,0.0057,-0.0221,0.3645,3.78,-94.73,994.32,249,-47,-267
  1512178750,-0.0065,0.0144,0.3599,31.56,-140.69,1007.08,249,-47,-267
  1512178750,-0.0330,-0.0064,0.3637,-22.71,-131.47,964.17,267,-65,-240
  1512178750,-0.0425,-0.0003,0.3637,51.09,-145.81,942.50,267,-65,-240
  1512178750,0.0334,-0.0107,0.3658,74.28,-81.30,942.02,267,-65,-240
  1512178750,0.0947,0.0306,0.3617,40.59,-50.90,1014.28,267,-65,-240
  1512178750,0.0559,-0.0313,0.3655,54.99,-49.87,986.45,267,-65,-240
  1512178750,0.0589,0.0008,0.3615,42.11,-74.10,969.54,270,-58,-250
  1512178751,0.0253,-0.0028,0.3687,18.43,-83.37,1009.09,270,-58,-250
  1512178751,0.0393,-0.0049,0.3634,77.39,-105.47,987.30,270,-58,-250
  1512178751,-0.0257,0.0172,0.3633,47.55,-179.81,958.92,270,-58,-250
  1512178751,0.0679,-0.0431,0.3669,38.45,-107.73,1000.31,274,-54,-247
  1512178751,0.0186,0.0113,0.3633,29.05,-78.55,995.18,274,-54,-247
  1512178751,-0.0268,-0.0276,0.3522,1.46,-134.89,982.30,274,-54,-247
  1512178751,0.0981,0.0123,0.5677,46.45,-24.84,955.57,274,-54,-247
  1512178751,0.0900,-0.0132,0.5497,54.26,-81.36,1009.03,274,-54,-247
  1512178751,-0.0880,-0.0995,0.4097,25.45,-92.16,986.27,282,-52,-245
  1512178751,-0.0562,0.0356,0.3888,76.42,-144.29,937.99,282,-52,-245
  1512178751,-0.0316,0.0469,0.3498,34.30,-140.20,979.92,282,-52,-245
  1512178751,-0.0932,0.0322,0.3416,61.28,-198.00,948.85,282,-52,-245
  1512178751,-0.0469,0.0832,0.3048,43.58,-137.27,988.28,282,-52,-245
  1512178751,-0.0963,0.0041,0.3396,49.56,-131.35,941.96,286,-52,-242
  1512178751,-0.0706,0.0350,0.3704,36.38,-112.43,968.81,286,-52,-242
  1512178751,-0.0607,0.0244,0.3911,42.54,-124.02,1012.21,286,-52,-242
  1512178751,0.0029,0.0184,0.3756,19.59,-134.40,989.62,286,-52,-242
  1512178751,-0.0141,0.0313,0.3422,47.85,-82.46,1027.95,311,-59,-245
  1512178751,-0.0085,0.0025,0.3471,59.14,-92.22,994.20,311,-59,-245
  1512178751,-0.1399,-0.0012,0.3220,51.94,-139.53,974.06,311,-59,-245
  1512178751,0.0304,0.0427,0.3382,50.48,-121.64,987.79,311,-59,-245
  1512178751,-0.0577,0.0442,0.3314,40.41,-169.31,1032.90,311,-59,-245
  1512178751,-0.0844,0.0280,0.3226,24.11,-147.34,986.21,316,-68,-236
  1512178751,-0.0264,0.0369,0.3392,55.79,-139.95,990.42,316,-68,-236
  1512178751,-0.0887,0.0162,0.3951,87.52,-156.98,945.37,316,-68,-236
  1512178751,-0.0393,0.0538,0.3329,98.21,-111.76,987.79,316,-68,-236
  1512178751,-0.0515,0.0342,0.3394,93.99,-113.34,1005.55,316,-68,-236
  1512178751,-0.1040,0.0028,0.3435,101.26,-156.13,986.82,314,-66,-242
  1512178751,-0.1578,0.0128,0.3393,36.38,-126.22,966.00,314,-66,-242
  1512178751,-0.2289,0.0009,0.3329,40.41,-211.18,933.47,314,-66,-242
  1512178751,-0.1282,-0.0001,0.3325,15.32,-177.37,940.86,314,-66,-242
  1512178751,-0.1573,0.0296,0.3277,56.52,-163.09,976.50,339,-56,-228
  1512178751,-0.1674,0.0337,0.3336,54.38,-175.48,956.54,339,-56,-228
  1512178751,0.0220,0.0597,0.3510,84.17,-127.75,986.82,339,-56,-228
  1512178751,-0.0272,0.0286,0.3341,68.66,-131.35,1002.32,339,-56,-228
  1512178751,-0.0405,-0.0079,0.3137,40.28,-73.06,971.92,339,-56,-228
  1512178751,0.0726,0.0200,0.3217,21.79,-17.03,974.91,340,-65,-236
  1512178751,0.0961,0.0437,0.3181,14.28,-31.98,1055.30,340,-65,-236
  1512178752,0.0340,-0.0308,0.3040,66.53,-44.49,1029.42,340,-65,-236
  1512178752,-0.0418,0.0044,0.3064,41.99,-74.58,980.22,340,-65,-236
  1512178752,0.0304,0.0574,0.2968,86.67,-38.02,1015.26,340,-65,-236
  1512178752,0.0108,-0.0076,0.2417,61.34,-68.60,1027.34,337,-54,-226
  1512178752,-0.0515,0.0724,0.2562,141.85,-116.52,969.60,337,-54,-226
  1512178752,-0.0911,0.0602,0.2932,90.33,-116.09,1003.54,337,-54,-226
  1512178752,-0.1049,0.0198,0.3017,38.57,-62.74,967.96,337,-54,-226
  1512178752,-0.0992,0.0457,0.3007,84.23,-51.03,962.52,358,-40,-243
  1512178752,-0.0989,0.0349,0.3015,15.32,-14.04,935.12,358,-40,-243
  1512178752,-0.0003,0.0382,0.2996,51.27,-92.35,1027.22,358,-40,-243
  1512178752,-0.0306,0.0461,0.2944,73.73,-95.03,1026.31,358,-40,-243
  1512178752,-0.0498,0.0473,0.3165,77.21,-127.38,997.80,358,-40,-243
  1512178752,-0.1403,0.0166,0.2952,106.08,-99.91,988.10,349,-42,-245
  1512178752,-0.1571,0.0220,0.2856,68.42,-117.43,996.22,349,-42,-245
  1512178752,-0.1162,0.0119,0.2791,58.11,-68.05,971.80,349,-42,-245
  1512178752,-0.0454,0.0642,0.2819,38.27,-4.70,986.15,349,-42,-245
  1512178752,0.0033,0.0172,0.2840,49.44,-21.12,1039.79,349,-42,-245
  1512178752,0.0644,0.0011,0.2786,69.03,20.75,1033.51,361,-40,-236
  1512178752,-0.0803,0.0578,0.2807,81.36,-56.64,1029.85,361,-40,-236
  1512178752,-0.1269,0.0011,0.2754,86.91,-40.59,969.24,361,-40,-236
  1512178752,-0.0437,0.0469,0.2730,48.77,-13.06,969.67,361,-40,-236
  1512178752,-0.0036,0.0449,0.2690,48.28,13.98,1087.28,372,-37,-253
  1512178752,-0.1968,0.0497,0.2704,86.18,-79.83,1013.73,372,-37,-253
  1512178752,-0.1321,0.0949,0.3876,35.52,-45.23,1033.26,372,-37,-253
  1512178752,-0.1040,0.0278,0.4462,101.68,-42.24,1023.62,372,-37,-253
  1512178752,-0.1611,0.0806,0.4329,67.81,-67.08,976.75,372,-37,-253
  1512178752,-0.1775,0.0229,0.3591,96.01,-114.20,940.86,368,-37,-247
  1512178752,-0.0795,0.0565,0.3123,64.03,-32.35,993.10,368,-37,-247
  1512178752,-0.2192,-0.0169,0.2792,73.18,-90.82,937.07,368,-37,-247
  1512178752,-0.1328,0.0356,0.2622,31.80,-48.10,958.68,368,-37,-247
  1512178752,-0.0916,0.0346,0.2589,78.74,-19.10,1006.96,368,-37,-247
  1512178752,-0.1458,-0.0293,0.1802,103.64,-78.67,994.69,390,-26,-247
  1512178752,-0.1268,-0.0035,0.1723,61.52,-79.65,983.95,390,-26,-247
  1512178752,-0.1036,0.0028,0.1445,63.42,-3.66,1023.50,390,-26,-247
  1512178752,0.0446,0.0397,0.2325,21.18,-13.00,1068.60,390,-26,-247
  1512178752,-0.0105,-0.0864,0.2316,0.92,36.44,1044.49,384,-31,-245
  1512178752,0.0880,-0.0305,0.2450,-15.56,63.66,1014.65,384,-31,-245
  1512178752,0.0213,-0.0895,0.2465,15.38,13.24,918.64,384,-31,-245
  1512178753,0.0268,-0.0072,0.2437,65.43,-43.46,922.73,384,-31,-245
  1512178753,0.0377,-0.0360,0.2502,24.60,-8.48,988.77,384,-31,-245
  1512178753,0.0236,-0.0020,0.2377,56.58,-30.33,1001.77,397,-37,-253
  1512178753,-0.0569,-0.0461,0.2373,70.50,-51.82,984.80,397,-37,-253
  1512178753,-0.1000,0.0033,0.2274,71.59,-103.21,1018.37,397,-37,-253
  1512178753,-0.0262,-0.0076,0.2248,65.25,-70.31,1033.69,397,-37,-253
  1512178753,-0.0566,-0.0157,0.2205,26.98,-91.92,973.69,397,-37,-253
  1512178753,-0.0278,0.0365,0.2198,34.00,-54.57,1007.39,398,-45,-231
  1512178753,0.0172,-0.0071,0.2244,60.91,-55.79,960.14,398,-45,-231
  1512178753,0.0069,0.0124,0.2213,74.28,-86.55,1005.31,398,-45,-231
  1512178753,-0.0138,0.0447,0.2237,62.87,-52.19,979.43,398,-45,-231
  1512178753,-0.0190,0.0138,0.2254,21.36,-33.14,1007.51,414,-29,-243
  1512178753,-0.0447,-0.0041,0.2206,72.08,-51.76,1003.05,414,-29,-243
  1512178753,-0.0583,-0.0015,0.2148,-12.63,-85.21,1015.56,414,-29,-243
  1512178753,-0.0188,0.0260,0.2169,14.65,-82.70,932.56,414,-29,-243
  1512178753,-0.0023,0.0349,0.2172,28.93,-60.06,949.89,414,-29,-243
  1512178753,0.0107,0.0201,0.2206,12.57,-85.08,977.17,419,-24,-245
  1512178753,0.0724,-0.0156,0.2184,41.63,-27.95,972.90,419,-24,-245
  1512178753,0.0234,-0.0754,0.0830,14.83,-30.40,1011.96,419,-24,-245
  1512178753,0.1615,0.1780,0.1284,14.40,-28.08,906.37,419,-24,-245
  1512178753,-0.0236,-0.1172,0.1890,11.05,-15.99,1131.47,419,-3,-258
  1512178753,-0.1772,-0.1393,0.2278,-19.53,-58.35,928.16,419,-3,-258
  1512178753,-0.0672,0.0013,0.3202,29.30,-12.70,1031.37,419,-3,-258
  1512178753,-0.2262,-0.2798,0.2551,-33.69,-34.91,1053.28,419,-3,-258
  1512178753,-0.1277,-0.2370,0.1241,17.88,-24.96,965.45,419,-3,-258
  1512178753,0.1594,0.1443,0.0860,41.08,-36.80,1029.85,416,-3,-245
  1512178753,0.0277,0.0674,0.2060,15.63,-31.98,1022.46,416,-3,-245
  1512178753,-0.0557,-0.0886,0.1216,5.62,-44.86,991.52,416,-3,-245
  1512178753,-0.0268,-0.0257,0.0591,68.97,-50.72,998.35,416,-3,-245
  1512178753,-0.0028,0.0216,-0.0623,98.88,-55.42,1009.58,416,-3,-245
  1512178753,0.0386,-0.0326,-0.3390,41.69,-84.96,921.08,416,-31,-238
  1512178753,0.0401,0.1775,-0.2217,21.91,-36.87,961.43,416,-31,-238
  1512178753,0.0265,0.0633,-0.1447,-40.83,12.82,1018.80,416,-31,-238
  1512178753,-0.0563,-0.0164,-0.2659,38.45,-18.43,971.92,416,-31,-238
  1512178753,0.0064,-0.0025,0.2080,0.73,19.71,956.91,439,-89,-91
  1512178753,0.0045,0.0044,0.2083,-4.58,-5.92,1039.25,439,-89,-91
  1512178753,0.0013,0.0003,0.2692,20.51,-42.54,991.33,439,-89,-91
  1512178754,-0.0345,0.0067,0.1963,-4.21,-36.62,934.14,439,-89,-91
  1512178754,-0.0527,-0.0241,0.1871,9.09,-17.64,947.08,439,-89,-91
  1512178754,-0.0852,-0.0097,0.1519,-1.59,-36.44,966.06,430,-70,-110
  1512178754,-0.0968,0.0177,0.1609,-2.69,-23.56,959.84,430,-70,-110
  1512178754,-0.0399,0.0230,0.1927,-16.36,-45.17,1050.90,430,-70,-110
  1512178754,-0.0369,0.1254,0.2076,30.82,-26.73,1011.90,430,-70,-110
  1512178754,0.2309,0.1879,0.1730,15.69,-57.62,972.72,430,-70,-110
  1512178754,0.3397,0.4169,-0.1413,-78.74,7.75,1129.15,434,-102,-86
  1512178754,0.0158,0.1084,-0.2252,-1.10,-55.18,1001.46,434,-102,-86
  1512178754,-0.0795,0.0013,-0.0879,-15.38,-97.90,1022.34,434,-102,-86
  1512178754,-0.0467,0.0261,-0.0969,-60.73,-37.96,1046.33,434,-102,-86
  1512178754,0.0652,0.2186,-0.2629,-41.50,-27.77,1038.64,469,-63,-89
  1512178754,-0.0406,0.3376,-0.2784,-55.66,-128.48,964.84,469,-63,-89
  1512178754,0.2053,0.1896,-0.0578,-6.96,-145.51,969.18,469,-63,-89
  1512178754,0.1981,0.0794,0.1710,-43.40,-74.28,1087.40,469,-63,-89
  1512178754,-0.0072,-0.0144,0.2190,-36.32,-44.13,997.86,469,-63,-89
  1512178754,-0.0059,-0.0033,0.2169,-62.62,-63.05,980.53,514,-42,-69
  1512178754,0.0625,-0.0342,0.2619,-79.10,-55.91,966.06,514,-42,-69
  1512178754,0.0089,-0.1214,0.2453,-53.47,-55.73,997.31,514,-42,-69
  1512178754,0.1057,-0.2968,0.3674,45.96,-32.23,1229.19,514,-42,-69
  1512178754,-0.0666,-0.3068,0.4453,43.70,-26.86,1033.26,527,-15,-81
  1512178754,0.0736,-0.0823,0.3708,25.76,-58.47,1090.58,527,-15,-81
  1512178754,0.0503,-0.0221,0.3012,16.66,-71.96,1047.91,527,-15,-81
  1512178754,0.0172,-0.0619,0.2762,30.58,-102.11,999.33,527,-15,-81
  1512178754,0.0115,-0.0716,0.4802,-15.63,-125.43,924.44,527,-15,-81
  1512178754,0.0321,-0.0730,0.4772,-61.65,13.73,876.16,516,-26,-91
  1512178754,-0.0569,0.0273,0.2633,-72.75,-24.78,981.63,516,-26,-91
  1512178754,-0.0376,0.1370,0.3028,-78.31,-80.08,932.19,516,-26,-91
  1512178754,-0.0346,0.3999,0.5824,-70.01,-40.47,933.11,516,-26,-91
  1512178754,-0.0184,0.4137,0.5314,-140.38,-40.83,981.38,516,-26,-91
  1512178754,0.1659,0.0025,0.3736,-35.52,4.09,1076.97,491,-47,-88
  1512178754,-0.0063,-0.1831,0.1913,-53.28,-29.42,990.78,491,-47,-88
  1512178754,-0.1557,-0.0019,0.2252,-55.66,-58.47,988.34,491,-47,-88
  1512178754,-0.0878,-0.0656,0.2240,-90.21,-93.75,1021.42,491,-47,-88
  1512178754,-0.2278,-0.0593,0.2091,-70.62,-77.82,996.89,484,-58,-101
  1512178754,-0.0871,0.1036,0.1529,-117.98,-106.20,963.01,484,-58,-101
  1512178754,0.1808,0.2151,0.0639,1.28,-83.19,1041.08,484,-58,-101
  1512178754,0.2422,0.5025,0.0031,-94.91,-155.64,985.96,484,-58,-101
  1512178755,0.0380,0.5346,-0.1081,-131.53,-121.89,1024.78,484,-58,-101
  1512178755,-0.3244,0.3666,-0.1740,-115.97,-156.92,979.37,402,-109,-269
  1512178755,0.5260,0.6037,-0.1800,0.18,-147.46,891.66,402,-109,-269
  1512178755,1.5188,0.7830,0.0093,132.51,216.98,960.82,402,-109,-269
  1512178755,0.1302,0.2398,0.3521,-101.50,-32.71,1123.11,402,-109,-269
  1512178755,-1.1012,0.1081,0.7067,-117.86,-23.62,1016.72,402,-109,-269
  1512178755,-1.6625,0.1723,0.7864,-128.17,-255.74,832.64,275,-306,-333
  1512178755,-0.2826,0.0237,0.4888,-101.50,-105.71,827.51,275,-306,-333
  1512178755,0.0999,-0.2579,0.2929,-100.16,-74.16,984.13,275,-306,-333
  1512178755,0.5246,-0.6462,0.2173,-66.83,-21.30,1003.23,275,-306,-333
  1512178755,-0.5820,-0.3453,0.5838,-186.34,-66.22,1101.14,319,-163,-338
  1512178755,-0.2174,-0.5722,0.5939,-164.43,-168.70,977.11,319,-163,-338
  1512178755,-0.3229,-0.4043,0.5465,-12.88,-151.31,916.20,319,-163,-338
  1512178755,-0.0153,-0.1210,0.6344,-34.30,-84.17,1034.73,319,-163,-338
  1512178755,0.2337,-0.2676,0.5533,-69.40,-22.58,1042.42,319,-163,-338
  1512178755,0.2228,-0.1617,0.4466,-26.12,-142.15,968.44,351,-100,-280
  1512178755,0.2683,-0.0325,0.5293,-8.97,-80.38,977.23,351,-100,-280
  1512178755,0.3891,-0.0325,0.5180,-71.78,-56.58,1009.70,351,-100,-280
  1512178755,0.1736,-0.0670,0.3906,-49.07,-2.14,1008.97,351,-100,-280
  1512178755,0.2188,-0.0124,0.3093,-43.76,-75.38,1007.02,342,-56,-231
  1512178755,0.4534,-0.0589,0.3409,-53.28,-15.99,1012.21,342,-56,-231
  1512178755,0.2049,-0.0007,0.1752,-22.77,20.69,955.02,342,-56,-231
  1512178755,0.3184,-0.0212,0.0768,34.18,-5.37,950.74,342,-56,-231
  1512178755,0.1529,-0.0253,0.2404,74.95,22.64,1067.93,342,-56,-231
  1512178755,-0.1264,-0.0574,0.4328,28.14,32.17,1002.62,426,-7,-154
  1512178755,-0.0720,0.0111,0.3676,-151.06,-185.97,1123.23,426,-7,-154
  1512178755,0.2129,0.0820,0.1374,50.84,8.48,1009.83,426,-7,-154
  1512178755,0.1366,0.0591,0.1565,-21.12,-20.87,1015.50,426,-7,-154
  1512178755,-0.0153,-0.0266,0.1925,21.24,-26.00,1043.27,426,-7,-154
  1512178755,-0.1539,-0.0654,0.2471,43.46,-2.20,1109.13,477,12,-81
  1512178755,-0.1855,-0.0676,0.2811,-11.23,-46.69,1038.45,477,12,-81
  1512178755,0.0534,-0.0514,0.3065,-27.40,-16.36,1119.02,477,12,-81
  1512178755,0.1728,-0.1300,0.3121,-5.62,17.94,829.41,477,12,-81
  1512178755,0.1648,-0.0314,0.3107,-3.30,-4.70,908.14,470,5,-84
  1512178755,0.0479,0.0328,0.3063,-21.30,1.22,964.97,470,5,-84
  1512178755,-0.0209,0.0523,0.3072,0.06,-3.36,956.30,470,5,-84
  1512178755,-0.0193,0.0762,0.3419,-35.77,16.66,964.36,470,5,-84
  1512178755,-0.0949,0.1131,0.3459,-46.69,-9.89,945.25,470,5,-84
  1512178756,-0.2318,0.0883,0.3348,-44.13,-20.69,973.33,490,0,-89
  1512178756,-0.0450,0.0309,0.3413,-21.24,-60.36,1003.85,490,0,-89
  1512178756,-0.0719,0.0550,0.3234,7.75,-76.54,1005.07,490,0,-89
  1512178756,-0.1013,0.0662,0.2890,-4.15,-48.89,1010.01,490,0,-89
  1512178756,-0.0566,0.0214,0.2511,-48.65,-70.74,1017.52,490,0,-89
  1512178756,-0.0051,0.0137,0.3337,-26.79,-82.40,1019.71,486,31,-93
  1512178756,0.4712,-0.1157,0.4735,-48.58,-10.19,1085.75,486,31,-93
  1512178756,-0.0854,0.2495,0.4531,-33.87,-44.07,976.20,486,31,-93
  1512178756,-0.5746,0.4834,0.4036,-22.46,-3.78,1016.60,486,31,-93
  1512178756,-0.3217,0.3874,0.3225,-58.11,-93.02,970.40,467,19,-77
  1512178756,-0.0483,0.2699,0.2916,-28.32,-62.19,979.25,467,19,-77
  1512178756,0.1236,0.0993,0.2992,-54.63,-56.52,1029.24,467,19,-77
  1512178756,0.1602,0.0732,0.3565,17.64,-108.95,966.31,467,19,-77
  1512178756,0.7740,0.1871,0.3804,-16.42,-56.76,983.52,467,19,-77
  1512178756,0.1157,0.0273,0.3887,-113.10,72.88,1002.32,467,40,-57
  1512178756,-0.0254,0.0107,0.3503,-58.96,21.79,1003.97,467,40,-57
  1512178756,-0.0001,0.0005,0.4017,-81.54,0.67,1043.76,467,40,-57
  1512178756,0.0937,0.1874,0.4622,-61.65,-25.39,978.03,467,40,-57
  1512178756,0.5119,0.2683,0.4117,-6.10,11.54,1047.61,467,40,-57
  1512178756,0.0722,0.0715,0.3384,-55.66,-47.79,958.56,441,35,-42
  1512178756,0.0770,0.0246,0.2614,-8.06,-14.71,989.93,441,35,-42
  1512178756,-0.0313,0.0168,0.1407,-52.61,20.57,1048.95,441,35,-42
  1512178756,-0.1618,0.1173,0.1221,-64.88,1.16,1051.82,441,35,-42
  1512178756,-0.2505,0.1720,0.0217,-56.64,28.63,987.43,469,52,-69
  1512178756,-0.4875,0.2241,-0.2281,-41.44,21.12,956.18,469,52,-69
  1512178756,-0.1859,0.0280,-0.2921,-82.89,19.47,998.66,469,52,-69
  1512178756,-0.3071,-0.0569,-0.2221,-69.40,-59.08,998.23,469,52,-69
  1512178756,-0.4044,-0.0196,-0.0506,-80.99,-60.24,972.53,469,52,-69
  1512178756,-0.4220,0.0337,0.0345,-137.88,-69.21,962.59,569,68,-64
  1512178756,-0.1871,-0.0486,0.0382,-56.64,-59.81,1001.04,569,68,-64
  1512178756,0.2124,-0.0398,0.0407,-80.99,-65.98,1040.41,569,68,-64
  1512178756,0.1294,0.0706,-0.0706,-100.10,-47.61,1025.70,569,68,-64
  1512178756,0.6927,-0.0188,-0.1875,-35.52,12.57,1028.08,611,61,-23
  1512178756,0.2226,-0.1539,-0.0274,-55.60,-86.55,993.77,611,61,-23
  1512178756,-0.2760,0.0501,0.1664,-104.13,-30.27,965.39,611,61,-23
  1512178756,-0.3059,-0.2069,0.0629,-61.34,-4.15,1066.28,611,61,-23
  1512178756,-0.2084,-0.1385,0.2220,-8.36,-163.33,991.27,611,61,-23
  1512178757,0.0055,0.1318,0.3633,-107.36,-50.96,1017.03,653,72,0
  1512178757,0.1330,0.3586,0.2623,-220.83,-99.49,881.90,653,72,0
  1512178757,0.2995,0.4892,0.2546,-49.93,-0.18,1108.09,653,72,0
  1512178757,0.0915,0.2393,0.2887,-46.02,43.76,965.39,653,72,0
  1512178757,0.5429,0.0399,0.0450,-88.50,31.68,989.44,653,72,0
  1512178757,0.5502,-0.0039,0.0575,-91.98,-10.01,1055.54,609,14,-25
  1512178757,0.3558,-0.0019,0.0397,-84.35,46.88,1093.38,609,14,-25
  1512178757,0.3855,-0.3727,-0.1822,-170.47,15.50,1286.38,609,14,-25
  1512178757,0.1956,-0.9159,-0.0772,-86.61,19.17,1202.51,609,14,-25
  1512178757,0.0176,-1.0912,0.2767,28.99,107.54,1153.56,493,-144,89
  1512178757,-0.6517,-1.3342,0.3365,-94.91,-57.13,1053.77,493,-144,89
  1512178757,-1.1634,-1.4040,0.2983,-66.16,-171.45,935.00,493,-144,89
  1512178757,-1.6119,-0.9061,0.0523,25.76,-210.63,786.62,493,-144,89
  1512178757,-0.3104,-0.4439,-0.5284,42.60,-144.41,659.73,493,-144,89
  1512178757,1.1854,0.3353,-1.0392,167.18,-24.60,760.07,426,-342,38
  1512178757,1.2332,1.2647,-0.8220,72.27,-25.57,794.86,426,-342,38
  1512178757,0.8477,1.9305,-0.6727,-11.60,47.30,898.19,426,-342,38
  1512178757,-0.2583,0.0973,0.0333,-57.31,124.02,1206.91,426,-342,38
  1512178757,-0.1525,-0.1040,0.1514,-29.11,60.24,1017.76,426,-342,38
  1512178757,-0.8533,0.0234,0.2242,-13.98,18.62,1029.79,365,-273,3
  1512178757,-0.0471,-0.0928,0.1804,-53.10,-50.11,1025.15,365,-273,3
  1512178757,-0.5021,0.0260,0.0738,-50.11,-108.76,1001.04,365,-273,3
  1512178757,-0.9633,0.0570,-0.2241,-48.65,-127.50,990.48,365,-273,3
  1512178757,-1.2136,-0.0194,-0.5004,-18.80,-61.46,1041.44,365,-237,-6
  1512178757,0.3646,-0.3499,-0.6613,1.34,-37.23,1021.91,365,-237,-6
  1512178757,0.0164,-0.2057,-0.4039,-58.53,-14.10,1015.08,365,-237,-6
  1512178757,-0.1119,-0.1389,0.2458,-28.75,-54.08,1005.13,365,-237,-6
  1512178757,0.3454,-0.1329,0.5131,33.63,20.08,1022.09,365,-237,-6
  1512178757,-0.0791,0.0606,0.2377,7.39,220.70,962.16,309,-230,47
  1512178757,0.1397,-0.0666,0.6838,-156.80,-102.48,1039.49,309,-230,47
  1512178757,0.1831,-0.0818,0.6952,-89.72,-75.87,1018.43,309,-230,47
  1512178757,0.0369,-0.0146,0.5514,-91.61,-37.48,1047.42,309,-230,47
  1512178757,-0.0128,0.0104,0.3929,-20.20,-77.03,1041.32,309,-230,47
  1512178757,0.0059,0.0173,0.3198,32.65,-15.32,991.88,318,-204,86
  1512178757,-0.6282,-0.1502,0.2533,-154.42,-109.25,1119.32,318,-204,86
  1512178757,-0.8221,-0.0654,0.1609,28.02,-79.90,1029.85,318,-204,86
  1512178757,-0.2929,0.0598,0.3667,-41.63,-125.55,921.39,318,-204,86
  1512178757,0.7792,0.0839,0.3302,-43.76,-108.52,906.43,337,-206,54
  1512178758,1.0768,-0.0087,0.1435,-66.41,0.18,1396.79,337,-206,54
  1512178758,-0.0755,-0.0081,0.1579,-38.09,-71.29,908.94,337,-206,54
  1512178758,-0.0644,-0.0229,0.1603,-71.59,-64.94,1006.96,337,-206,54
  1512178758,-0.3084,-0.0462,0.1501,-61.04,-57.80,1016.54,337,-206,54
  1512178758,-0.6324,-0.0410,0.1619,-47.67,-55.48,1044.25,326,-188,50
  1512178758,-1.0591,-0.0438,0.1952,-58.90,-95.40,969.42,326,-188,50
  1512178758,-0.9189,-0.0791,0.3245,-24.23,-39.43,908.02,326,-188,50
  1512178758,-1.2996,-0.0959,0.3606,-53.83,-149.35,1019.84,326,-188,50
  1512178758,-1.2348,-0.1217,0.5418,-27.77,-186.83,970.03,326,-188,50
  1512178758,-0.0887,-0.1229,0.6510,-6.71,-144.71,783.63,395,-193,28
  1512178758,0.4577,-0.0878,0.5808,-59.75,-193.91,1108.40,395,-193,28
  1512178758,-0.0083,0.0015,0.5681,-14.95,-241.03,941.04,395,-193,28
  1512178758,0.2055,-0.0642,0.5056,-23.80,-222.90,978.39,395,-193,28
  1512178758,0.1185,-0.0395,0.1860,-59.33,-191.83,965.21,412,-179,55
  1512178758,0.2285,-0.0526,-0.0153,-133.67,-181.64,1005.43,412,-179,55
  1512178758,0.3148,-0.0487,-0.0437,-98.14,-188.84,1044.07,412,-179,55
  1512178758,-0.0180,0.0577,0.0237,-81.30,-199.16,985.35,412,-179,55
  1512178758,-0.0965,0.0646,-0.0457,-59.08,-164.06,1006.65,412,-179,55
  1512178758,0.0883,0.0037,-0.1047,-72.63,-135.86,979.74,419,-179,62
  1512178758,0.0874,-0.0148,-0.1402,-90.52,-180.60,963.50,419,-179,62
  1512178758,-0.1153,0.0513,-0.0561,-82.15,-184.39,968.87,419,-179,62
  1512178758,0.1542,-0.0031,0.0308,-54.44,-194.46,965.82,419,-179,62
  1512178758,0.2726,-0.0294,-0.0395,-75.56,-194.82,969.54,419,-179,62
  1512178758,0.2545,-0.0258,-0.0164,-148.74,-193.85,1002.87,421,-195,60
  1512178758,0.1454,0.0075,-0.0269,-107.73,-171.14,983.58,421,-195,60
  1512178758,0.3750,-0.0615,-0.0160,-98.21,-152.40,1014.22,421,-195,60
  1512178758,0.4543,-0.0887,-0.0308,-117.13,-136.11,1034.12,421,-195,60
  1512178758,0.3575,-0.0525,-0.0273,-102.66,-121.58,1029.85,395,-197,69
  1512178758,0.4128,-0.0362,-0.0173,-100.10,-127.26,1128.54,395,-197,69
  1512178758,0.2313,-0.0072,-0.0193,-112.85,-128.66,1034.85,395,-197,69
  1512178758,-0.0113,-0.0040,-0.0261,-125.18,-131.23,981.45,395,-197,69
  1512178758,0.1230,-0.0096,-0.0511,-119.38,-107.97,1010.38,395,-197,69
  1512178758,0.0198,0.0310,-0.0457,-76.05,-109.74,1024.60,370,-179,86
  1512178758,0.0499,0.0321,-0.0049,-73.91,-142.88,964.72,370,-179,86
  1512178758,-0.0654,0.0334,0.0072,-58.65,-139.83,998.78,370,-179,86
  1512178758,-0.1525,0.0463,0.0356,-155.27,-101.87,1005.68,370,-179,86
  1512178758,-0.0332,0.0316,-0.0361,-151.98,-92.77,997.44,384,-186,82
  1512178758,0.0240,0.0240,-0.0710,-104.43,-125.12,1034.18,384,-186,82
  1512178759,-0.0834,0.0372,-0.0776,-102.17,-117.74,1011.54,384,-186,82
  1512178759,0.0743,0.0305,-0.0755,-101.81,-119.26,1000.73,384,-186,82
  1512178759,0.0858,0.0242,-0.0863,-128.66,-133.48,1014.59,384,-186,82
  1512178759,0.0980,0.0111,-0.0955,-117.49,-144.23,1027.77,383,-199,71
  1512178759,-0.0113,0.0293,-0.0804,-123.90,-98.02,1016.17,383,-199,71
  1512178759,0.0241,0.0115,-0.0957,-121.95,-113.46,984.31,383,-199,71
  1512178759,0.1228,0.0017,-0.0964,-123.66,-108.70,989.38,383,-199,71
  1512178759,0.0940,0.0101,-0.0941,-137.39,-111.76,970.46,383,-199,71
  1512178759,0.0320,0.0109,-0.0711,-88.20,-138.18,987.61,367,-193,79
  1512178759,0.0716,0.0053,-0.0610,-146.42,-108.15,1024.54,367,-193,79
  1512178759,0.0049,0.0085,-0.1025,-91.74,-86.24,964.84,367,-193,79
  1512178759,0.1197,-0.0186,-0.0927,-167.97,-109.37,1063.84,367,-193,79
  1512178759,-0.0188,0.0029,-0.0447,-168.03,-101.44,897.52,367,-197,82
  1512178759,0.1360,-0.0197,0.0036,-99.49,-107.79,995.30,367,-197,82
  1512178759,0.0531,-0.0097,-0.0567,-97.35,-120.85,1064.70,367,-197,82
  1512178759,-0.0134,0.0113,-0.0281,-75.99,-118.84,1077.03,367,-197,82
  1512178759,-0.0686,0.0124,0.0168,-135.74,-118.35,929.93,367,-197,82
  1512178759,-0.0213,-0.0224,-0.0095,-115.60,-125.24,940.92,368,-192,71
  1512178759,0.0190,0.0031,-0.0278,-74.83,-129.64,992.61,368,-192,71
  1512178759,0.0358,0.0060,-0.0826,-156.31,-166.87,1091.19,368,-192,71
  1512178759,-0.0450,0.0262,-0.0863,-100.77,-107.42,1038.51,368,-192,71
  1512178759,-0.0961,0.0144,-0.1125,-131.29,-55.11,981.93,368,-192,71
  1512178759,0.0871,-0.0309,-0.1081,-162.54,-122.31,1027.28,368,-209,77
  1512178759,-0.0188,-0.0169,0.1517,-85.63,-102.48,977.60,368,-209,77
  1512178759,0.0634,-0.0201,0.2177,1.16,-163.70,1033.02,368,-209,77
  1512178759,-0.0169,-0.0008,0.1507,-121.22,-140.44,955.44,368,-209,77
  1512178759,-0.0176,0.0037,0.0775,-113.71,-142.46,1010.50,391,-197,62
  1512178759,-0.0182,0.0133,0.0107,-118.96,-138.06,1053.65,391,-197,62
  1512178759,-0.0591,0.0236,-0.0639,-97.11,-140.93,974.98,391,-197,62
  1512178759,0.0459,-0.0031,-0.0828,-113.53,-107.18,1013.67,391,-197,62
  1512178759,0.0217,-0.0108,-0.1072,-140.69,-89.05,1006.59,391,-197,62
  1512178759,-0.0003,-0.0065,-0.1298,-148.38,-71.96,969.24,404,-188,77
  1512178759,0.0091,0.0029,-0.0427,-112.18,-91.86,997.13,404,-188,77
  1512178759,0.0280,0.0011,0.1001,-68.97,-132.26,1015.14,404,-188,77
  1512178759,-0.0116,-0.0039,0.2092,-98.69,-140.69,984.44,404,-188,77
  1512178759,0.0206,-0.0036,0.1394,-148.38,-112.43,1014.04,404,-188,77
  1512178759,-0.0029,-0.0053,0.0193,-135.38,-122.68,931.27,428,-202,60
  1512178759,0.0285,-0.0071,-0.0186,-146.55,-133.79,944.95,428,-202,60
  1512178760,0.0378,0.0000,-0.0138,-103.82,-97.29,970.95,428,-202,60
  1512178760,-0.0358,-0.0052,-0.0144,-153.63,-95.52,965.45,428,-202,60
  1512178760,0.0166,-0.0173,-0.0770,-174.50,-121.34,1038.09,414,-199,88
  1512178760,-0.0498,0.0020,-0.0896,-155.40,-57.31,984.92,414,-199,88
  1512178760,-0.0771,0.0085,-0.1614,-145.63,-109.07,944.15,414,-199,88
  1512178760,0.1479,-0.0284,-0.1045,-153.20,-89.42,1022.28,414,-199,88
  1512178760,0.1119,-0.0156,-0.0855,-144.65,-56.88,963.81,414,-199,88
  1512178760,0.0076,0.0040,-0.1401,-143.13,-79.41,963.13,414,-206,71
  1512178760,0.0422,-0.0216,-0.1139,-98.14,-137.45,1019.65,414,-206,71
  1512178760,0.0581,-0.0193,-0.0848,-128.78,-97.35,1006.96,414,-206,71
  1512178760,0.0735,-0.0174,-0.0527,-143.49,-87.59,1002.44,414,-206,71
  1512178760,0.0256,-0.0176,-0.0736,-119.51,-86.73,990.11,425,-206,81
  1512178760,-0.0431,-0.0085,-0.1039,-97.60,-112.85,992.68,425,-206,81
  1512178760,-0.0723,-0.0016,-0.1699,-158.45,-72.08,927.37,425,-206,81
  1512178760,-0.0555,-0.0056,-0.2358,-125.49,-60.67,1060.00,425,-206,81
  1512178760,-0.0727,-0.0107,-0.1732,-134.46,-133.48,1064.09,425,-206,81
  1512178760,-0.0921,-0.0093,-0.0530,-138.31,-101.26,969.67,425,-213,71
  1512178760,0.0212,-0.0334,-0.0692,-148.74,-82.28,978.39,425,-213,71
  1512178760,-0.0748,-0.0217,-0.1008,-130.13,-69.21,939.82,425,-213,71
  1512178760,0.0087,-0.0165,-0.1316,-102.60,-191.16,975.83,425,-213,71
  1512178760,-0.0340,-0.0148,-0.0911,-147.77,-96.07,977.78,425,-213,71
  1512178760,-0.2221,0.0453,-0.0301,-137.33,-123.72,934.88,414,-227,88
  1512178760,-0.0872,-0.0083,0.0310,-125.55,-137.33,949.28,414,-227,88
  1512178760,0.2935,-0.0999,-0.1099,-107.67,-101.93,1019.04,414,-227,88
  1512178760,-0.0521,-0.0063,-0.1398,-119.14,-105.04,1097.41,414,-227,88
  1512178760,-0.3949,0.0840,-0.0015,-135.31,-99.49,979.98,398,-232,72
  1512178760,-0.0768,-0.0037,-0.0083,-105.90,-116.58,934.75,398,-232,72
  1512178760,0.1148,-0.0478,-0.1631,-90.21,-83.98,999.51,398,-232,72
  1512178760,0.2477,-0.0706,-0.3425,-69.46,-30.46,1000.55,398,-232,72
  1512178760,0.1756,-0.0756,-0.1270,-60.61,-26.86,999.45,398,-232,72
  1512178760,0.1724,-0.0759,-0.0229,-55.36,-55.30,995.06,391,-236,76
  1512178760,0.0899,-0.0750,-0.0376,24.29,27.89,971.19,391,-236,76
  1512178760,0.2172,-0.0538,-0.0201,-95.34,-43.21,1010.86,391,-236,76
  1512178760,0.0581,-0.0210,-0.0505,-97.35,-75.87,1000.24,391,-236,76
  1512178760,-0.0138,-0.0121,-0.0916,-91.80,-64.45,991.09,374,-232,89
  1512178760,-0.0166,-0.0091,-0.1458,-85.57,16.48,1033.57,374,-232,89
  1512178760,-0.1686,-0.0023,-0.2844,-59.33,-8.54,987.30,374,-232,89
  1512178760,-0.0927,-0.0164,-0.1603,-80.08,-95.83,955.44,374,-232,89
  1512178761,-0.2148,0.0072,0.0047,-95.28,-49.56,961.00,374,-232,89
  1512178761,-0.1019,-0.0027,0.0040,-9.46,-70.31,937.81,402,-239,52
  1512178761,0.3286,-0.0897,-0.0048,-26.31,-101.87,1059.33,402,-239,52
  1512178761,-0.0867,-0.0145,-0.0446,-31.13,-47.00,995.67,402,-239,52
  1512178761,-0.1309,-0.0237,-0.0507,-27.65,-1.28,998.35,402,-239,52
  1512178761,0.1180,-0.0840,-0.1060,-67.57,-53.65,1043.33,402,-239,52
  1512178761,0.0995,-0.0664,-0.0587,-35.03,-37.17,1019.04,400,-252,67
  1512178761,-0.0225,-0.0447,-0.0310,-1.77,-43.21,974.67,400,-252,67
  1512178761,-0.0124,-0.0551,-0.0309,-8.48,-38.02,1051.27,400,-252,67
  1512178761,-0.1028,-0.0317,-0.0601,-43.33,2.56,1041.14,400,-252,67
  1512178761,-0.1037,-0.0008,-0.0889,-16.72,-16.91,1062.07,376,-241,81
  1512178761,-0.1012,0.0065,-0.0843,-14.65,-38.15,1032.71,376,-241,81
  1512178761,-0.0944,0.0228,-0.0707,-30.82,-16.72,1034.55,376,-241,81
  1512178761,-0.0035,0.0049,-0.1142,-58.41,14.16,1027.89,376,-241,81
  1512178761,0.0097,0.0134,-0.1290,-37.84,0.06,1022.52,376,-241,81
  1512178761,-0.0927,0.0348,-0.1226,-42.54,-11.17,955.32,374,-236,106
  1512178761,-0.0788,0.0297,-0.1289,-22.77,-9.77,967.10,374,-236,106
  1512178761,0.0039,-0.0088,-0.1272,-62.38,19.90,1001.53,374,-236,106
  1512178761,-0.1635,0.0100,-0.1390,-55.42,-8.42,944.82,374,-236,106
  1512178761,-0.2092,0.0338,-0.0864,-76.84,-25.70,922.55,374,-236,106
  1512178761,-0.0694,0.0108,-0.0908,-67.02,146.61,923.40,400,-216,111
  1512178761,-0.0224,0.0008,-0.1581,-28.93,-29.54,984.56,400,-216,111
  1512178761,0.0866,-0.0185,-0.1594,8.73,26.98,1003.66,400,-216,111
  1512178761,0.0985,-0.0222,-0.1735,-28.50,24.17,1038.09,400,-216,111
  1512178761,-0.0157,0.0125,-0.1758,-23.68,5.68,1053.47,404,-227,94
  1512178761,0.0862,-0.0099,-0.1836,-39.92,15.50,986.08,404,-227,94
  1512178761,0.0630,-0.0258,-0.2016,-20.45,-19.59,1013.79,404,-227,94
  1512178761,-0.0870,-0.0181,-0.1668,-63.11,37.05,977.78,404,-227,94
  1512178761,-0.0799,-0.0111,-0.1493,-58.65,22.83,1044.37,404,-227,94
  1512178761,-0.0265,-0.0069,-0.1559,-43.09,53.89,1038.21,395,-225,89
  1512178761,0.0017,-0.0008,-0.1551,-36.68,49.99,1008.79,395,-225,89
  1512178761,0.0924,-0.0256,-0.1723,-42.42,-13.79,1061.89,395,-225,89
  1512178761,0.0025,-0.0111,-0.1828,-17.70,-8.61,1019.71,395,-225,89
  1512178761,-0.1105,0.0166,-0.1631,-55.66,27.28,991.52,393,-241,84
  1512178761,-0.0109,0.0040,-0.1815,-31.19,34.24,988.71,393,-241,84
  1512178761,0.0029,0.0057,-0.1931,-25.21,66.96,937.99,393,-241,84
  1512178761,0.0550,-0.0185,-0.1811,-90.27,58.53,988.46,393,-241,84
  1512178762,-0.0184,0.0089,-0.1707,-62.81,85.75,972.23,393,-241,84
  1512178762,-0.0648,0.0348,-0.1627,-49.13,60.06,962.16,391,-232,69
  1512178762,-0.0382,0.0081,-0.1658,-78.06,38.21,1000.12,391,-232,69
  1512178762,-0.0426,0.0103,-0.1858,-57.13,24.66,954.22,391,-232,69
  1512178762,-0.0349,0.0008,-0.1878,-59.08,32.35,969.24,391,-232,69
  1512178762,-0.0063,-0.0149,-0.2087,-30.21,28.38,1052.98,391,-232,69
  1512178762,-0.0200,-0.0083,-0.2310,-28.44,50.23,972.72,390,-241,71
  1512178762,-0.0208,0.0012,-0.2288,-68.48,35.58,943.30,390,-241,71
  1512178762,0.0917,-0.0172,-0.2132,-25.94,31.25,1008.36,390,-241,71
  1512178762,0.0678,-0.0214,-0.2096,-36.56,72.63,961.98,390,-241,71
  1512178762,-0.0443,0.0059,-0.2129,-53.96,31.56,1001.04,377,-246,79
  1512178762,0.0117,-0.0053,-0.2124,-37.11,55.24,977.42,377,-246,79
  1512178762,0.0281,0.0031,-0.2172,-43.03,42.66,989.20,377,-246,79
  1512178762,-0.0065,0.0084,-0.2165,-34.85,44.07,1052.67,377,-246,79
  1512178762,0.1047,-0.0092,-0.2269,-17.27,56.82,1067.44,377,-246,79
  1512178762,0.0190,0.0152,-0.2306,-53.65,67.02,1033.69,383,-252,57
  1512178762,0.0342,0.0185,-0.2356,-51.27,73.36,1054.20,383,-252,57
  1512178762,0.0242,0.0297,-0.2376,-57.62,78.06,1030.27,383,-252,57
  1512178762,-0.0149,0.0176,-0.2348,-77.15,72.33,1016.48,383,-252,57
  1512178762,0.0083,0.0269,-0.2365,-45.59,78.06,1057.98,383,-252,57
  1512178762,-0.0180,0.0293,-0.2361,-39.00,46.08,969.60,368,-259,67
  1512178762,-0.0507,0.0128,-0.2329,-82.89,38.09,983.03,368,-259,67
  1512178762,-0.0658,0.0459,-0.2382,-27.77,56.27,960.63,368,-259,67
  1512178762,-0.0621,0.0443,-0.2316,-69.52,20.81,1009.64,368,-259,67
  1512178762,0.0028,0.0225,-0.2433,-61.77,63.11,1004.21,368,-266,67
  1512178762,-0.0807,0.0573,-0.2356,-56.40,70.74,974.61,368,-266,67
  1512178762,-0.0956,0.0498,-0.2310,-108.22,67.08,961.18,368,-266,67
  1512178762,0.0732,0.0162,-0.2445,-61.28,59.63,1041.44,368,-266,67
  1512178762,-0.0348,0.0313,-0.2374,-57.01,87.22,998.66,368,-266,67
  1512178762,-0.0206,0.0269,-0.2322,-107.12,76.42,968.93,372,-259,74
  1512178762,0.0055,0.0629,-0.2381,-56.09,19.53,1000.92,372,-259,74
  1512178762,0.0449,0.0634,-0.2353,-45.35,59.57,920.47,372,-259,74
  1512178762,-0.0024,0.0776,-0.2392,-41.87,1.40,1063.54,372,-259,74
  1512178762,-0.0134,0.0760,-0.2381,-83.74,39.06,1028.32,372,-259,74
  1512178762,-0.0975,0.0895,-0.2659,-58.65,78.00,1005.55,363,-264,76
  1512178762,0.1043,0.0284,-0.2867,-59.02,56.95,994.08,363,-264,76
  1512178762,0.0762,0.0368,-0.2381,-65.92,83.31,1043.03,363,-264,76
  1512178762,-0.0433,0.0490,-0.2127,-52.61,85.39,1003.30,363,-264,76
  1512178763,-0.0045,0.0276,-0.1997,-88.01,144.59,980.71,368,-269,81
  1512178763,-0.0152,0.0161,-0.2169,-113.34,113.53,1025.45,368,-269,81
  1512178763,0.0241,0.0252,-0.2309,-79.90,82.46,1067.44,368,-269,81
  1512178763,0.0433,0.0144,-0.2407,-47.79,68.60,1028.93,368,-269,81
  1512178763,0.0691,-0.0043,-0.2633,-81.54,49.44,1016.85,368,-269,81
  1512178763,0.0505,-0.0039,-0.2429,-93.57,108.15,1012.02,367,-278,69
  1512178763,-0.0031,0.0099,-0.2308,-64.15,54.08,975.77,367,-278,69
  1512178763,0.0353,0.0198,-0.2318,-49.44,16.91,1018.68,367,-278,69
  1512178763,0.0176,0.0212,-0.2258,-28.14,37.17,950.26,367,-278,69
  1512178763,0.0161,0.0161,-0.2280,-79.22,29.66,987.37,347,-273,74
  1512178763,0.0055,0.0341,-0.2278,-93.51,58.17,959.66,347,-273,74
  1512178763,-0.0023,0.0088,-0.2294,-64.76,46.81,1013.55,347,-273,74
  1512178763,0.0517,-0.0109,-0.3669,-83.80,94.06,998.96,347,-273,74
  1512178763,-0.0411,0.0184,-0.3808,-40.04,55.97,917.36,347,-273,74
  1512178763,0.0349,0.0142,-0.3933,-51.45,44.74,992.00,354,-290,67
  1512178763,-0.0317,0.0369,-0.2449,-74.40,7.32,1015.69,354,-290,67
  1512178763,-0.1976,0.0546,-0.2465,-91.37,73.18,970.28,354,-290,67
  1512178763,0.0361,0.0023,-0.3983,-124.82,106.08,1047.12,354,-290,67
  1512178763,-0.0676,0.0004,-0.4635,-160.89,85.94,908.63,361,-273,67
  1512178763,-0.0866,0.0146,-0.3879,-82.95,18.98,1037.96,361,-273,67
  1512178763,-0.0246,0.0017,-0.1320,81.18,21.06,1015.08,361,-273,67
  1512178763,-0.0056,-0.0132,-0.1305,-35.95,25.45,960.45,361,-273,67
  1512178763,0.0013,-0.0180,-0.1397,-84.96,85.63,1043.27,361,-273,67
  1512178763,0.0218,-0.0132,-0.2001,-71.96,71.04,1006.35,367,-260,35
  1512178763,0.0174,-0.0137,-0.2016,-63.48,43.40,1018.07,367,-260,35
  1512178763,0.0099,-0.0173,-0.1539,7.75,70.31,1011.17,367,-260,35
  1512178763,-0.0477,-0.0288,-0.2019,-82.82,65.61,988.59,367,-260,35
  1512178763,0.0553,-0.0260,-0.0759,-28.99,57.80,968.87,367,-260,35
  1512178763,-0.0101,-0.0021,-0.1332,-24.41,100.40,973.08,367,-260,32
  1512178763,-0.0486,0.0100,-0.2043,17.52,-11.05,988.16,367,-260,32
  1512178763,-0.0268,0.0140,-0.2020,23.32,-14.34,1008.61,367,-260,32
  1512178763,0.0397,-0.0154,-0.1951,74.28,62.50,1026.73,367,-260,32
  1512178763,-0.0312,-0.0819,-0.2818,-50.48,9.77,928.28,349,-264,25
  1512178763,-0.0571,0.0166,-0.3977,59.20,-20.45,1006.77,349,-264,25
  1512178763,-0.0300,-0.0021,-0.6547,-103.27,3.48,983.76,349,-264,25
  1512178763,0.1289,-0.0190,-0.7830,-44.62,-28.02,1056.58,349,-264,25
  1512178763,0.0087,0.0017,-0.6756,50.17,230.83,967.04,349,-264,25
  1512178763,-0.0166,-0.0565,-0.2055,-77.58,-13.00,1052.06,305,-308,54
  1512178764,0.2169,0.0236,-0.2224,45.41,43.76,995.54,305,-308,54
  1512178764,0.6774,-0.0035,-0.4208,19.10,162.54,1196.17,305,-308,54
  1512178764,0.2510,0.0213,-0.5622,-29.36,95.15,1004.70,305,-308,54
  1512178764,-0.0286,-0.0519,-0.6254,-77.27,57.86,999.51,305,-308,54
  1512178764,-0.0889,-0.0711,-0.5222,-143.13,102.48,1012.27,270,-336,104
  1512178764,-0.1641,-0.0756,-0.1502,25.27,23.50,1071.53,270,-336,104
  1512178764,0.0252,-0.0120,-0.1459,49.93,-4.03,1100.71,270,-336,104
  1512178764,0.0667,0.0415,-0.1324,4.39,-5.68,1024.72,270,-336,104
  1512178764,0.0039,0.0519,-0.1146,44.19,3.54,997.68,242,-361,98
  1512178764,-0.0109,0.0330,-0.1091,16.48,68.05,1028.20,242,-361,98
  1512178764,0.1238,0.0936,-0.1154,24.90,42.66,1046.02,242,-361,98
  1512178764,0.0977,0.0383,-0.1598,-10.80,66.59,1118.59,242,-361,98
  1512178764,-0.5772,0.0405,-0.1654,37.66,15.32,970.58,242,-361,98
  1512178764,-0.2000,0.0061,-0.1185,30.27,-15.56,1001.04,251,-342,126
  1512178764,-0.2177,-0.0107,-0.0589,12.02,-7.63,935.12,251,-342,126
  1512178764,-0.2826,0.0182,-0.0541,70.62,-10.50,892.94,251,-342,126
  1512178764,-0.1055,0.0527,-0.0760,-5.55,-14.22,959.17,251,-342,126
  1512178764,-0.0555,0.0771,-0.0856,84.47,5.37,897.95,251,-342,126
  1512178764,-0.1796,-0.0186,-0.1590,139.71,-57.98,962.59,231,-336,132
  1512178764,-0.2210,-0.0498,-0.1586,-8.54,46.26,1044.01,231,-336,132
  1512178764,-0.0599,0.0288,-0.0806,-80.32,17.27,1109.80,231,-336,132
  1512178764,0.3254,0.0431,-0.0437,15.08,53.77,1147.77,231,-336,132
  1512178764,0.0280,-0.0043,-0.0117,45.35,-62.26,918.76,231,-350,135
  1512178764,-0.0121,0.0228,-0.0310,55.18,-10.07,960.82,231,-350,135
  1512178764,-0.0085,0.0024,-0.0531,81.12,-38.09,944.76,231,-350,135
  1512178764,-0.0625,-0.0397,0.0425,20.08,3.11,1025.21,231,-350,135
  1512178764,-0.1047,-0.0212,0.0557,76.66,-43.21,1008.42,231,-350,135
  1512178764,0.0929,0.0921,0.0305,57.07,7.63,1051.51,231,-350,132
  1512178764,0.0233,0.0453,0.0438,80.51,-41.99,1062.74,231,-350,132
  1512178764,0.0164,0.0012,0.0197,68.42,-70.68,1045.10,231,-350,132
  1512178764,-0.0169,0.0301,-0.0304,-40.77,-43.09,905.64,231,-350,132
  1512178764,0.0854,0.0838,-0.1039,82.76,-31.62,957.46,247,-324,106
  1512178764,0.1546,0.0707,-0.0598,197.88,34.73,917.60,247,-324,106
  1512178764,0.0314,-0.0679,0.0348,159.36,-63.48,997.07,247,-324,106
  1512178764,-0.0197,-0.0097,0.0471,-79.90,-30.15,1096.01,247,-324,106
  1512178764,0.1951,0.1272,0.1418,37.90,4.21,1150.94,247,-324,106
  1512178764,0.1638,0.0872,0.1740,-47.00,13.73,1048.71,230,-331,133
  1512178765,0.0185,-0.0196,0.2065,60.67,36.01,912.23,230,-331,133
  1512178765,-0.2278,-0.1648,0.2092,194.46,14.95,1045.29,230,-331,133
  1512178765,-0.0647,-0.0587,0.0988,-8.48,14.89,1032.78,230,-331,133
  1512178765,0.1779,0.0273,0.1033,75.50,8.67,1118.47,230,-331,133
  1512178765,0.0292,0.0174,0.1174,67.93,2.01,1031.37,237,-324,110
  1512178765,-0.0269,0.0158,0.1241,68.85,-12.70,1066.28,237,-324,110
  1512178765,0.0020,-0.0358,0.1478,27.10,-83.31,1017.33,237,-324,110
  1512178765,0.0300,0.0268,0.1097,112.24,9.03,1066.77,237,-324,110
  1512178765,0.1225,0.0840,0.1008,102.97,-59.27,1120.73,237,-324,110
  1512178765,0.0775,0.0410,0.1133,106.63,-11.96,1073.79,238,-322,101
  1512178765,0.0783,0.0891,0.1093,74.10,-39.37,955.44,238,-322,101
  1512178765,0.1085,0.0625,0.0863,55.36,-11.17,983.46,238,-322,101
  1512178765,-0.0618,-0.0449,0.0851,49.19,39.73,1067.38,238,-322,101
  1512178765,0.0076,-0.0127,0.1447,44.86,-20.51,1047.67,251,-306,113
  1512178765,0.0981,0.0364,0.1457,35.58,-66.35,971.98,251,-306,113
  1512178765,-0.0128,-0.0040,0.1859,97.53,-41.87,965.64,251,-306,113
  1512178765,-0.0495,0.0020,0.1955,47.97,-72.27,986.76,251,-306,113
  1512178765,0.0415,0.0458,0.1429,66.22,-51.15,911.56,251,-306,113
  1512178765,-0.0224,0.0142,0.1389,95.34,-35.16,906.98,247,-310,126
  1512178765,-0.0294,-0.0244,0.0884,150.88,-24.72,989.69,247,-310,126
  1512178765,-0.0912,-0.0276,0.0441,62.50,-65.00,955.81,247,-310,126
  1512178765,-0.0391,-0.0076,0.0115,53.04,-33.75,997.31,247,-310,126
  1512178765,-0.0357,0.0474,0.1621,120.54,-62.56,931.58,247,-310,126
  1512178765,-0.0547,0.1076,0.1574,134.40,-119.63,857.24,238,-297,111
  1512178765,-0.0734,0.0290,0.1732,113.71,-82.28,889.83,238,-297,111
  1512178765,-0.0804,0.0310,0.1708,98.69,-61.16,855.65,238,-297,111
  1512178765,-0.0107,0.0419,0.1664,63.11,-41.44,975.10,238,-297,111
  1512178765,0.0887,0.0076,0.1631,112.12,1.53,1034.55,245,-297,135
  1512178765,0.0205,-0.0041,0.1920,60.00,0.31,1084.11,245,-297,135
  1512178765,0.0776,0.0289,0.2147,82.95,-34.48,1041.56,245,-297,135
  1512178765,0.0582,-0.0162,0.2313,98.82,-22.40,1032.90,245,-297,135
  1512178765,0.0513,-0.0513,0.2176,94.91,-21.36,1013.49,245,-297,135
  1512178765,0.0120,-0.0602,0.2092,129.03,-43.82,1004.33,238,-294,142
  1512178765,-0.0531,-0.0407,0.2200,134.89,-11.35,940.06,238,-294,142
  1512178765,-0.0872,-0.0174,0.2246,114.14,-34.91,989.26,238,-294,142
  1512178765,-0.0766,-0.0222,0.2254,128.85,-76.66,958.80,238,-294,142
  1512178765,-0.0107,0.0011,0.2256,153.26,-15.08,984.31,238,-294,142
  1512178765,-0.0166,0.0157,0.2252,93.87,-50.84,953.43,240,-313,147
  1512178766,-0.0017,0.0194,0.2332,126.28,-16.91,941.16,240,-313,147
  1512178766,-0.0156,-0.0361,0.2583,78.25,23.19,1047.85,240,-313,147
  1512178766,0.1222,-0.0115,0.2607,48.52,-1.10,1067.81,240,-313,147
  1512178766,0.2799,0.0265,0.2574,85.88,44.25,1135.19,245,-304,128
  1512178766,0.2031,-0.0184,0.2782,37.41,6.96,1111.39,245,-304,128
  1512178766,0.1719,0.0032,0.2795,93.26,-11.54,1068.05,245,-304,128
  1512178766,0.1589,0.0222,0.2747,97.84,4.33,1091.74,245,-304,128
  1512178766,0.1439,0.0157,0.2605,116.33,27.71,981.26,245,-304,128
  1512178766,0.0399,0.0039,0.2551,119.20,-46.26,992.37,254,-292,126
  1512178766,0.1071,0.0453,0.2497,137.08,-26.25,941.41,254,-292,126
  1512178766,0.0374,0.0021,0.2629,95.70,-10.01,993.23,254,-292,126
  1512178766,0.0929,-0.0027,0.2481,88.44,-0.73,1054.26,254,-292,126
  1512178766,0.1052,0.0072,0.2481,105.96,-15.01,1061.77,265,-282,133
  1512178766,0.0443,-0.0222,0.2891,83.80,-2.56,1007.02,265,-282,133
  1512178766,-0.0064,0.0025,0.3072,92.35,-46.20,935.79,265,-282,133
  1512178766,-0.0487,0.0069,0.3124,137.21,-12.02,951.17,265,-282,133
  1512178766,0.1366,0.0304,0.2924,137.57,-64.09,1104.55,265,-282,133
  1512178766,-0.0194,-0.0095,0.2923,123.66,-30.15,1014.77,265,-271,133
  1512178766,-0.2406,-0.0383,0.3388,135.25,9.70,880.37,265,-271,133
  1512178766,-0.3129,-0.0502,0.3189,109.62,21.85,912.35,265,-271,133
  1512178766,-0.0003,-0.0035,0.2955,117.68,-22.46,1049.99,265,-271,133
  1512178766,-0.0200,0.0410,0.2768,139.40,-3.05,1012.76,265,-271,133
  1512178766,0.0182,0.0341,0.2808,150.15,-44.31,1075.26,279,-285,133
  1512178766,-0.0711,0.0334,0.2791,109.13,-34.85,975.04,279,-285,133
  1512178766,-0.1234,-0.0076,0.2851,164.55,-52.12,980.77,279,-285,133
  1512178766,-0.0233,-0.0141,0.2875,128.97,-14.53,1045.53,279,-285,133
  1512178766,-0.1100,0.0272,0.2878,137.88,-25.33,950.50,270,-259,132
  1512178766,-0.0594,0.0318,0.3007,64.21,-6.84,867.43,270,-259,132
  1512178766,0.0836,0.0486,0.2904,95.21,-22.52,1073.12,270,-259,132
  1512178766,-0.0095,0.0455,0.2883,98.27,-1.46,1019.23,270,-259,132
  1512178766,0.0558,0.0334,0.2842,67.87,-6.90,1029.30,270,-259,132
  1512178766,0.1178,0.0377,0.2818,65.37,27.53,1021.12,282,-250,130
  1512178766,0.0072,0.0201,0.2886,89.72,7.75,1047.12,282,-250,130
  1512178766,0.1340,0.0571,0.2973,80.51,-21.24,1077.33,282,-250,130
  1512178766,0.0614,0.0582,0.3092,97.72,-60.30,969.12,282,-250,130
  1512178766,-0.1200,0.0181,0.3121,68.12,-22.95,929.50,279,-246,150
  1512178766,-0.1368,-0.0554,0.3075,111.88,-28.38,1100.65,279,-246,150
  1512178766,0.1107,-0.0035,0.3013,100.46,2.50,1112.30,279,-246,150
  1512178767,0.1119,-0.0105,0.3361,107.60,-16.30,1105.22,279,-246,150
  1512178767,0.1583,0.0401,0.3558,76.60,-59.75,1041.81,279,-246,150
  1512178767,0.1385,0.0386,0.3630,128.05,-26.12,1000.31,282,-257,147
  1512178767,0.0178,-0.0368,0.3422,126.71,-65.80,1163.82,282,-257,147
  1512178767,0.0710,0.0325,0.3406,114.01,-48.71,1069.64,282,-257,147
  1512178767,0.0117,0.0692,0.3599,133.73,-69.09,958.98,282,-257,147
  1512178767,-0.0567,0.0190,0.3768,112.85,-8.79,949.71,282,-257,147
  1512178767,0.0426,0.0053,0.3804,95.03,-26.37,1011.05,286,-229,143
  1512178767,0.0727,0.0051,0.3739,63.84,-35.83,974.37,286,-229,143
  1512178767,0.0242,-0.0023,0.3791,119.51,-48.65,1070.19,286,-229,143
  1512178767,0.0433,0.0210,0.4260,86.49,9.40,1018.07,286,-229,143
  1512178767,0.0089,0.0376,0.4751,112.18,-78.25,1000.49,286,-229,143
  1512178767,0.0646,0.0200,0.4530,149.23,-86.55,1046.75,300,-215,160
  1512178767,-0.0059,0.0097,0.4346,146.67,-52.73,991.64,300,-215,160
  1512178767,-0.1210,0.0526,0.4290,120.36,-36.68,862.73,300,-215,160
  1512178767,0.0270,0.0511,0.3927,99.67,-62.01,977.05,300,-215,160
  1512178767,0.0325,0.0692,0.3871,177.00,-115.72,1032.96,302,-223,142
  1512178767,0.0419,0.0732,0.3995,126.28,-22.46,1091.49,302,-223,142
  1512178767,-0.0530,0.0431,0.4151,96.25,10.38,1047.42,302,-223,142
  1512178767,-0.0162,0.0642,0.4321,47.73,-28.63,969.36,302,-223,142
  1512178767,-0.0415,0.0545,0.5236,46.08,29.66,862.98,302,-223,142
  1512178767,-0.0446,0.0044,0.5674,123.29,-71.23,998.78,305,-202,145
  1512178767,0.0469,0.0080,0.4317,76.42,16.30,1073.06,305,-202,145
  1512178767,-0.0064,-0.0065,0.4400,80.51,-2.69,1056.27,305,-202,145
  1512178767,0.0558,0.0242,0.4289,39.00,-32.23,972.23,305,-202,145
  1512178767,0.1292,0.0698,0.4059,125.31,-63.35,936.22,305,-202,145
  1512178767,-0.0561,-0.0109,0.4136,99.43,-61.34,930.91,307,-190,140
  1512178767,-0.0538,0.0056,0.4084,90.33,-66.53,884.09,307,-190,140
  1512178767,-0.0678,-0.0132,0.4029,108.34,-91.55,920.84,307,-190,140
  1512178767,0.0067,-0.0009,0.4205,91.49,-63.96,990.30,307,-190,140
  1512178767,-0.0226,0.0095,0.4338,82.21,-48.34,940.19,319,-178,138
  1512178767,0.0445,0.0451,0.4221,111.15,-21.30,1096.19,319,-178,138
  1512178767,0.1198,0.0393,0.4225,90.52,-23.07,1089.72,319,-178,138
  1512178767,0.1093,0.0360,0.4593,113.65,-36.93,1079.65,319,-178,138
  1512178767,-0.0569,0.0422,0.4886,92.71,-85.02,1000.79,319,-178,138
  1512178767,-0.0538,0.0680,0.4357,122.38,-135.74,949.04,318,-179,147
  1512178767,-0.0710,0.0788,0.4141,84.72,-130.68,854.68,318,-179,147
  1512178767,0.0194,0.0798,0.4175,58.29,-128.48,1077.09,318,-179,147
  1512178768,0.1402,0.1045,0.4332,48.95,-84.72,1043.52,318,-179,147
  1512178768,0.1007,0.1197,0.4470,51.33,-102.91,994.08,318,-179,147
  1512178768,0.0834,0.0876,0.4497,13.49,-75.01,1009.09,316,-156,142
  1512178768,0.0699,0.0667,0.4417,-6.77,-88.68,1042.36,316,-156,142
  1512178768,0.1081,0.0623,0.4557,10.80,-61.89,1013.73,316,-156,142
  1512178768,0.0582,0.0381,0.4441,-0.73,-67.26,1048.71,316,-156,142
  1512178768,0.1177,0.0185,0.4483,28.69,-59.33,1053.65,312,-146,135
  1512178768,-0.0429,-0.0490,0.4625,16.97,-48.52,1049.99,312,-146,135
  1512178768,-0.1061,-0.0095,0.4727,15.38,-13.55,1019.84,312,-146,135
  1512178768,0.0356,-0.0021,0.4938,26.37,0.31,1036.19,312,-146,135
  1512178768,0.0623,-0.0031,0.4985,20.51,-39.67,1021.06,312,-146,135
  1512178768,0.0364,0.0084,0.4862,54.08,-117.07,980.04,307,-151,143
  1512178768,0.0129,-0.0021,0.4815,77.76,-69.09,989.75,307,-151,143
  1512178768,0.0253,0.0072,0.4661,105.65,-117.98,1051.09,307,-151,143
  1512178768,0.0678,0.0164,0.4742,39.12,-67.99,978.70,307,-151,143
  1512178768,0.0140,0.0120,0.4722,58.35,-136.47,941.77,307,-151,143
  1512178768,0.0683,0.0228,0.4767,49.99,-138.18,982.36,325,-116,126
  1512178768,0.0772,0.0188,0.4859,103.82,-139.16,1034.30,325,-116,126
  1512178768,-0.0324,-0.0161,0.5071,84.84,-65.31,1072.57,325,-116,126
  1512178768,-0.0719,-0.0250,0.5093,63.90,-67.87,1098.82,325,-116,126
  1512178768,-0.2229,-0.0455,0.5249,42.97,-63.66,941.96,303,-119,154
  1512178768,-0.0746,-0.0718,0.5273,67.20,-73.91,911.13,303,-119,154
  1512178768,0.0051,-0.0680,0.5505,71.29,-29.48,1112.12,303,-119,154
  1512178768,-0.0848,-0.0543,0.6141,22.52,1.53,1097.05,303,-119,154
  1512178768,-0.1626,-0.0735,0.6324,-9.28,-14.53,1010.62,303,-119,154
  1512178768,-0.1651,-0.0695,0.5334,51.88,-4.09,1090.33,309,-121,135
  1512178768,-0.1991,-0.0514,0.5172,82.76,-39.00,1008.61,309,-121,135
  1512178768,-0.1815,-0.0461,0.5218,7.39,-62.19,1008.97,309,-121,135
  1512178768,-0.1101,-0.0107,0.4858,73.85,-105.29,986.57,309,-121,135
  1512178768,-0.1874,-0.0229,0.4550,54.81,-141.36,979.61,303,-116,133
  1512178768,-0.0786,-0.0258,0.4471,102.11,-137.02,910.34,303,-116,133
  1512178768,-0.0678,-0.0103,0.4344,95.52,-172.30,925.42,303,-116,133
  1512178768,-0.0387,-0.0264,0.4318,143.01,-157.17,988.83,303,-116,133
  1512178768,0.0558,-0.0423,0.4398,119.02,-116.94,1008.97,303,-116,133
  1512178768,-0.0306,-0.0514,0.4663,77.45,-174.44,956.24,314,-119,137
  1512178768,0.0574,-0.0148,0.5184,100.77,-161.38,1011.60,314,-119,137
  1512178768,0.1281,-0.0077,0.5277,103.82,-137.02,966.80,314,-119,137
  1512178768,0.0839,-0.0025,0.5655,107.12,-153.32,1007.08,314,-119,137
  1512178769,0.0246,-0.0302,0.4999,90.33,-91.13,1100.89,314,-119,137
  1512178769,0.0474,0.0206,0.5400,114.56,-94.91,1036.44,319,-121,135
  1512178769,-0.0463,0.0534,0.5380,129.33,-140.20,1000.73,319,-121,135
  1512178769,-0.0810,0.0518,0.5338,159.97,-106.45,1127.44,319,-121,135
  1512178769,-0.0322,0.0767,0.5080,172.91,-78.74,1120.06,319,-121,135
  1512178769,0.0157,0.1555,0.5374,135.13,-118.23,1061.34,298,-96,142
  1512178769,-0.1053,0.1694,0.5743,143.37,-70.98,987.98,298,-96,142
  1512178769,-0.0648,0.1652,0.5490,174.38,-71.17,1057.31,298,-96,142
  1512178769,0.0660,0.2429,0.4935,49.74,-127.01,1024.11,298,-96,142
  1512178769,0.2188,0.2719,0.5101,12.27,-76.72,1018.01,298,-96,142
  1512178769,0.1720,0.2664,0.5044,97.53,-127.56,1024.41,305,-61,135
  1512178769,0.0467,0.2511,0.3730,-36.62,-98.63,951.48,305,-61,135
  1512178769,0.1353,0.2810,0.3280,11.72,-108.46,919.01,305,-61,135
  1512178769,0.1767,0.2953,0.3270,-49.32,-88.32,941.96,305,-61,135
  1512178769,0.1111,0.1862,0.4003,-117.49,-93.02,1037.72,305,-61,135
  1512178769,-0.0214,0.0838,0.4939,-156.98,-104.31,1003.78,249,-82,172
  1512178769,-0.1084,-0.0076,0.4932,-82.64,-161.62,986.76,249,-82,172
  1512178769,-0.2421,-0.1127,0.5043,1.46,-126.59,972.78,249,-82,172
  1512178769,-0.3394,-0.2883,0.5353,-49.68,-1.95,1080.87,249,-82,172
  1512178769,-0.2286,-0.2192,0.5534,-29.97,-105.71,1275.76,244,-70,160
  1512178769,-0.1193,-0.1712,0.6164,33.75,-59.08,1044.07,244,-70,160
  1512178769,-0.1617,-0.1782,0.6015,17.09,-142.52,1013.00,244,-70,160
  1512178769,-0.1812,-0.2253,0.5951,7.87,-148.62,1008.36,244,-70,160
  1512178769,-0.0403,-0.1614,0.5876,27.65,-124.57,984.25,244,-70,160
  1512178769,-0.0579,-0.1392,0.5822,23.13,-172.49,988.40,249,-58,162
  1512178769,0.0107,-0.1141,0.5237,21.30,-163.70,1034.61,249,-58,162
  1512178769,0.0125,-0.1081,0.5270,23.62,-135.56,944.15,249,-58,162
  1512178769,-0.0571,-0.1172,0.5316,89.17,-166.44,894.90,249,-58,162
  1512178769,-0.0862,-0.1031,0.5330,130.43,-221.86,925.05,249,-58,162
  1512178769,0.0250,-0.0333,0.5832,149.60,-218.99,898.13,230,-66,164
  1512178769,-0.0726,-0.0272,0.5843,70.56,-172.55,891.36,230,-66,164
  1512178769,0.0055,-0.0284,0.5903,72.08,-168.33,1001.46,230,-66,164
  1512178769,-0.0056,-0.0182,0.6197,35.64,-185.36,1089.84,230,-66,164
  1512178769,0.0437,0.0166,0.6069,54.57,-180.11,1051.09,230,-52,170
  1512178769,0.1071,0.1103,0.6004,58.96,-197.81,1056.76,230,-52,170
  1512178769,0.1585,0.0870,0.5252,70.07,-154.11,1088.81,230,-52,170
  1512178769,0.1411,0.0770,0.4863,33.02,-156.80,1118.35,230,-52,170
  1512178769,0.0932,0.1067,0.4578,9.95,-176.70,1072.69,230,-52,170
  1512178770,0.3028,0.1148,0.4268,47.42,-180.85,969.73,240,-56,150
  1512178770,0.3577,0.1334,0.4025,-5.19,-173.52,1018.31,240,-56,150
  1512178770,0.2739,0.1320,0.4420,-0.55,-166.99,887.76,240,-56,150
  1512178770,0.1040,0.0842,0.4613,-16.85,-190.12,824.16,240,-56,150
  1512178770,0.1308,0.0987,0.5442,-14.71,-185.55,868.47,195,-24,181
  1512178770,0.2314,0.0734,0.4755,-69.40,-95.89,903.14,195,-24,181
  1512178770,0.0174,0.0185,0.4787,-71.96,-133.61,1010.86,195,-24,181
  1512178770,0.0794,0.0551,0.4890,-64.15,-82.52,1013.79,195,-24,181
  1512178770,0.0130,0.0268,0.4730,-59.88,-126.53,1011.41,195,-24,181
  1512178770,-0.0095,-0.0154,0.4622,-50.11,-99.73,1008.12,173,-28,170
  1512178770,-0.0099,-0.0213,0.4607,-50.29,-133.06,1021.73,173,-28,170
  1512178770,-0.0625,-0.0555,0.4577,-46.26,-121.09,1016.36,173,-28,170
  1512178770,0.0386,0.0063,0.4711,-43.95,-115.91,1004.58,173,-28,170
  1512178770,-0.0244,-0.0032,0.4688,-22.58,-132.63,1006.23,173,-28,170
  1512178770,-0.0061,0.0174,0.4722,0.00,-167.85,979.68,179,-26,169
  1512178770,0.0129,0.0160,0.4760,-9.77,-172.91,965.94,179,-26,169
  1512178770,0.0249,0.0133,0.4800,-1.10,-133.30,1021.61,179,-26,169
  1512178770,0.0111,0.0262,0.4806,-11.84,-169.43,1006.04,179,-26,169
  1512178770,0.0119,0.0474,0.5019,27.10,-167.85,1000.92,173,-21,160
  1512178770,0.0470,0.0561,0.4800,-0.24,-137.33,986.02,173,-21,160
  1512178770,0.0405,0.0228,0.4775,7.93,-172.24,1055.42,173,-21,160
  1512178770,0.0201,0.0386,0.4859,11.60,-140.14,1003.17,173,-21,160
  1512178770,0.0288,0.0246,0.4715,-33.14,-136.90,1020.02,173,-21,160
  1512178770,0.0605,0.0475,0.4796,-17.64,-126.53,993.59,147,-5,172
  1512178770,0.0583,0.0306,0.4699,-30.70,-143.49,985.72,147,-5,172
  1512178770,-0.0256,-0.0040,0.4750,-21.91,-120.79,1024.11,147,-5,172
  1512178770,0.0546,0.0463,0.4707,-16.11,-146.85,981.51,147,-5,172
  1512178770,0.0297,0.0345,0.4673,-18.13,-161.87,997.31,147,-5,172
  1512178770,0.0756,0.0561,0.4569,9.58,-160.83,1029.48,142,-24,181
  1512178770,0.0406,0.0276,0.4506,15.08,-157.35,1033.14,142,-24,181
  1512178770,-0.0262,0.0257,0.4509,-19.10,-161.50,988.59,142,-24,181
  1512178770,0.0326,0.0133,0.4609,-39.67,-93.14,970.40,142,-24,181
  1512178770,0.0395,-0.0107,0.4567,-52.37,-84.96,1003.85,133,-5,172
  1512178770,-0.0130,-0.0067,0.4491,-34.61,-143.37,996.70,133,-5,172
  1512178770,0.0043,0.0024,0.4669,-15.93,-108.34,999.39,133,-5,172
  1512178770,0.0085,-0.0017,0.4639,-32.29,-146.61,1060.12,133,-5,172
  1512178770,0.0092,0.0129,0.4594,3.17,-119.81,999.76,133,-5,172
  1512178770,0.0085,0.0009,0.4493,9.09,-142.33,993.10,110,-14,174
  1512178771,0.1392,0.0445,0.4621,-17.70,-129.21,1011.84,110,-14,174
  1512178771,0.0590,0.0555,0.4497,4.94,-139.10,998.35,110,-14,174
  1512178771,0.0699,0.1152,0.4441,11.35,-189.21,976.75,110,-14,174
  1512178771,0.0882,0.1173,0.4458,7.26,-149.54,986.82,110,-14,174
  1512178771,0.0148,0.1209,0.4439,-38.94,-165.77,932.98,96,7,157
  1512178771,0.0407,0.1313,0.4200,-20.94,-142.82,972.17,96,7,157
  1512178771,0.0803,0.0660,0.4296,-6.53,-126.89,1028.44,96,7,157
  1512178771,0.0519,0.0318,0.4451,-67.57,-125.79,1022.09,96,7,157
  1512178771,0.0403,0.0446,0.4459,-29.05,-148.07,1042.66,93,0,170
  1512178771,0.0875,0.0623,0.4558,-47.18,-121.28,1030.58,93,0,170
  1512178771,-0.0784,-0.0061,0.4449,-22.95,-125.43,1037.41,93,0,170
  1512178771,-0.0080,0.0430,0.4350,-57.31,-108.09,983.40,93,0,170
  1512178771,0.0052,0.0276,0.4354,-28.75,-92.41,982.73,93,0,170
  1512178771,0.0389,0.0364,0.4260,-28.99,-111.21,1036.56,96,0,160
  1512178771,0.0573,0.0891,0.4176,-55.18,-89.29,1010.93,96,0,160
  1512178771,-0.0091,0.0494,0.4125,-63.23,-119.81,1004.33,96,0,160
  1512178771,0.0348,0.0771,0.3972,-42.60,-91.13,946.72,96,0,160
  1512178771,0.0501,0.0041,0.3927,-92.77,-103.52,1002.69,96,0,160
  1512178771,0.0096,-0.0164,0.3993,-90.58,-98.02,1017.64,68,10,170
  1512178771,-0.0447,-0.0282,0.3981,-68.73,-101.93,989.01,68,10,170
  1512178771,0.0051,-0.0059,0.3854,-95.34,-128.85,999.82,68,10,170
  1512178771,-0.0530,-0.0324,0.3860,-94.85,-115.17,983.34,68,10,170
  1512178771,-0.0469,-0.0116,0.3622,-55.11,-140.44,978.33,54,3,164
  1512178771,-0.0344,0.0003,0.3551,-50.72,-120.00,969.73,54,3,164
  1512178771,-0.0083,0.0437,0.3416,-56.21,-125.85,1002.93,54,3,164
  1512178771,0.0142,0.0374,0.3386,-65.31,-122.01,1006.90,54,3,164
  1512178771,0.0133,0.0491,0.3264,-112.55,-138.98,973.21,54,3,164
  1512178771,0.0611,0.0453,0.3143,-62.26,-92.04,992.68,63,5,155
  1512178771,-0.0041,-0.0004,0.3378,-101.56,-135.44,1001.77,63,5,155
  1512178771,-0.0128,-0.0089,0.3402,-69.76,-135.80,991.82,63,5,155
  1512178771,-0.0683,-0.0433,0.3361,-91.98,-114.01,1035.71,63,5,155
  1512178771,0.0124,0.0083,0.3273,-90.09,-91.06,1002.99,28,-12,155
  1512178771,-0.0238,-0.0140,0.3453,-77.70,-101.07,990.60,28,-12,155
  1512178771,-0.0714,-0.0391,0.3214,-87.46,-134.03,979.74,28,-12,155
  1512178771,-0.0878,-0.0575,0.3177,-73.36,-120.36,1021.85,28,-12,155
  1512178771,-0.0639,-0.0639,0.3225,-97.66,-110.11,1033.26,28,-12,155
  1512178771,-0.0473,-0.0318,0.2835,-57.74,-146.48,983.76,22,-17,157
  1512178772,-0.1027,-0.0967,0.2859,-73.55,-108.52,1001.22,22,-17,157
  1512178772,-0.1513,-0.1144,0.2719,-73.36,-146.61,1016.05,22,-17,157
  1512178772,0.0481,0.0041,0.2724,-70.50,-76.78,1038.02,22,-17,157
  1512178772,-0.0791,-0.0407,0.2629,-29.30,-129.09,1043.52,22,-17,157
  1512178772,-0.0008,-0.0057,0.2364,-21.85,-144.47,1038.51,26,-17,150
  1512178772,0.0964,0.0429,0.2407,-28.81,-130.92,1056.70,26,-17,150
  1512178772,0.1268,0.0823,0.2431,-71.04,-117.98,1020.32,26,-17,150
  1512178772,0.1083,0.1048,0.2198,-83.01,-123.47,947.20,26,-17,150
  1512178772,0.0409,0.0482,0.2061,-90.64,-79.47,946.78,10,-12,159
  1512178772,0.0365,0.0281,0.2128,-90.39,-51.51,986.88,10,-12,159
  1512178772,0.0589,0.0222,0.2125,-122.80,-57.98,1017.82,10,-12,159
  1512178772,0.0832,0.0447,0.2166,-99.85,-32.59,981.38,10,-12,159
  1512178772,0.0285,0.0316,0.2434,-137.02,-69.03,966.25,10,-12,159
  1512178772,0.0036,0.0105,0.2361,-85.63,-71.47,955.75,-3,-12,172
  1512178772,-0.0912,-0.0446,0.2017,-105.53,-88.44,976.38,-3,-12,172
  1512178772,-0.0221,0.0097,0.1846,-108.22,-116.46,930.97,-3,-12,172
  1512178772,-0.0285,0.0036,0.1703,-108.64,-112.98,966.67,-3,-12,172
  1512178772,-0.0192,0.0011,0.1651,-111.33,-107.85,994.38,-3,-12,172
  1512178772,0.0196,0.0248,0.1650,-111.51,-93.63,1032.65,-24,-8,162
  1512178772,0.0566,0.0364,0.1630,-104.74,-70.43,996.70,-24,-8,162
  1512178772,0.0341,0.0092,0.1599,-91.00,-84.96,1004.21,-24,-8,162
  1512178772,0.0254,0.0140,0.1567,-90.33,-113.04,997.99,-24,-8,162
  1512178772,0.0459,0.0057,0.1519,-104.25,-103.52,991.88,-24,-22,169
  1512178772,0.0236,-0.0076,0.1523,-117.19,-100.16,987.30,-24,-22,169
  1512178772,-0.0076,-0.0192,0.1531,-121.58,-86.43,987.79,-24,-22,169
  1512178772,-0.0208,-0.0314,0.1515,-106.45,-80.26,1020.69,-24,-22,169
  1512178772,0.0023,-0.0067,0.1499,-101.38,-90.94,993.71,-24,-22,169
  1512178772,0.0442,0.0087,0.1441,-132.87,-98.88,995.36,-35,-22,179
  1512178772,-0.0767,-0.0518,0.1427,-97.29,-89.84,1002.14,-35,-22,179
  1512178772,0.0141,-0.0089,0.1372,-98.33,-95.52,989.44,-35,-22,179
  1512178772,0.0011,-0.0202,0.1300,-91.37,-77.51,1040.77,-35,-22,179
  1512178772,0.0136,0.0048,0.1242,-82.76,-95.15,1058.17,-35,-22,179
  1512178772,0.0457,0.0266,0.1160,-89.42,-88.20,1048.95,-28,-19,169
  1512178772,0.0226,0.0242,0.1156,-67.02,-58.53,1031.19,-28,-19,169
  1512178772,0.0338,0.0101,0.1150,-103.82,-85.69,1022.22,-28,-19,169
  1512178772,0.0720,0.0329,0.1076,-97.53,-103.88,991.33,-28,-19,169
  1512178772,0.0626,-0.0011,0.1270,-126.28,-58.04,969.79,-36,-17,170
  1512178772,0.0286,0.0336,0.1001,-78.98,-118.65,1001.65,-36,-17,170
  1512178773,0.0513,0.0639,0.1176,-116.15,-55.24,913.27,-36,-17,170
  1512178773,-0.0370,0.0007,0.1056,-103.82,-60.24,905.03,-36,-17,170
  1512178773,0.0214,-0.0011,0.0940,-147.77,-77.64,1001.34,-36,-17,170
  1512178773,0.0107,0.0304,0.0988,-99.85,-57.01,957.64,-36,-7,150
  1512178773,0.0041,0.0060,0.1001,-115.54,-68.85,964.48,-36,-7,150
  1512178773,-0.0489,-0.0067,0.1103,-154.17,-35.58,946.59,-36,-7,150
  1512178773,-0.0282,0.0011,0.1087,-116.15,-20.81,979.31,-36,-7,150
  1512178773,0.0387,0.0264,0.0985,-139.71,-59.63,1058.65,-36,-7,150
  1512178773,0.0148,0.0200,0.0907,-116.58,-52.55,1025.70,-42,-12,162
  1512178773,0.0181,0.0377,0.0787,-122.38,-73.55,1030.33,-42,-12,162
  1512178773,-0.0105,0.0310,0.0716,-139.16,-70.07,994.32,-42,-12,162
  1512178773,-0.0329,0.0008,0.0691,-112.49,-40.04,987.49,-42,-12,162
  1512178773,-0.0565,0.0093,0.0629,-161.32,-32.29,991.46,-42,-12,165
  1512178773,-0.0324,0.0549,0.0577,-122.62,-82.82,964.29,-42,-12,165
  1512178773,-0.0601,0.0200,0.0575,-151.98,-36.62,962.83,-42,-12,165
  1512178773,-0.0341,0.0100,0.0586,-156.98,-14.65,1030.15,-42,-12,165
  1512178773,0.0285,0.0694,0.0419,-155.40,-34.48,939.27,-42,-12,165
  1512178773,-0.0794,-0.0344,0.0397,-188.54,-54.20,930.48,-49,-33,162
  1512178773,-0.0695,-0.0130,0.0418,-110.60,-52.49,965.33,-49,-33,162
  1512178773,-0.0642,0.0029,0.0467,-139.83,-23.32,961.30,-49,-33,162
  1512178773,-0.0021,-0.0029,0.0341,-165.71,-44.19,1043.58,-49,-33,162
  1512178773,-0.0084,0.0286,0.0288,-115.17,-33.87,996.70,-52,-37,155
  1512178773,-0.0037,0.0124,0.0225,-129.76,-56.70,989.20,-52,-37,155
  1512178773,-0.0779,-0.0353,0.0274,-137.94,-82.09,1003.42,-52,-37,155
  1512178773,-0.0285,0.0068,0.0236,-108.95,-59.20,1039.79,-52,-37,155
  1512178773,0.0571,0.0221,0.0123,-124.76,-67.02,1051.39,-52,-37,155
  1512178773,-0.0525,0.0104,0.0218,-150.63,-14.53,992.37,-43,-10,174
  1512178773,-0.0993,0.0044,0.0128,-128.60,-78.00,1045.59,-43,-10,174
  1512178773,-0.0041,0.0622,0.0415,-124.08,-44.19,1039.25,-43,-10,174
  1512178773,-0.0708,-0.0007,0.0180,-150.94,-23.44,926.39,-43,-10,174
  1512178773,-0.0164,-0.0447,0.0132,-149.35,-41.87,1041.87,-43,-10,174
  1512178773,0.0145,-0.0553,0.0068,-128.23,-21.91,1009.03,-52,-29,169
  1512178773,-0.0252,-0.0341,0.0185,-149.41,4.03,1038.88,-52,-29,169
  1512178773,-0.0032,-0.0266,0.0091,-138.24,-24.17,997.68,-52,-29,169
  1512178773,-0.0013,-0.0134,0.0077,-98.45,-10.44,986.45,-52,-29,169
  1512178773,-0.0370,-0.0306,0.0044,-142.94,-15.99,940.49,-43,-24,174
  1512178773,-0.0403,-0.0451,0.0091,-150.45,-26.43,954.41,-43,-24,174
  1512178773,0.0029,-0.0316,0.0083,-111.63,5.80,939.03,-43,-24,174
  1512178774,-0.0230,-0.0364,0.0011,-129.03,-57.13,1028.38,-43,-24,174
  1512178774,0.0256,-0.0182,-0.0072,-157.59,-71.04,998.60,-43,-24,174
  1512178774,-0.0443,-0.0483,-0.0032,-131.16,-31.13,1010.25,-43,-21,167
  1512178774,-0.0184,-0.0353,0.0115,-145.08,-14.95,959.05,-43,-21,167
  1512178774,0.0515,-0.0055,0.0158,-193.05,20.87,939.76,-43,-21,167
  1512178774,-0.0164,-0.0362,-0.0028,-109.01,2.20,1059.33,-43,-21,167
  1512178774,-0.0449,-0.0423,-0.0134,-96.44,-36.07,1029.97,-43,-21,167
  1512178774,-0.0449,0.0087,0.0011,-110.29,-75.62,986.08,-56,-19,169
  1512178774,-0.0722,-0.0065,0.0000,-82.09,-61.46,990.30,-56,-19,169
  1512178774,-0.0505,0.0281,-0.0055,-108.09,-53.41,1024.60,-56,-19,169
  1512178774,-0.0435,0.0438,-0.0091,-99.73,-56.40,967.16,-56,-19,169
  1512178774,-0.0471,0.0092,-0.0036,-137.39,-39.92,1022.83,-59,-26,172
  1512178774,-0.0807,-0.0091,-0.0015,-147.28,-52.00,984.13,-59,-26,172
  1512178774,0.0703,0.0402,0.0037,-114.14,2.87,1010.01,-59,-26,172
  1512178774,0.0960,-0.0241,0.0217,-109.37,78.43,966.43,-59,-26,172
  1512178774,-0.0923,-0.0670,0.0192,-115.30,72.14,1023.38,-59,-26,172
  1512178774,-0.0185,-0.0402,0.0210,-75.99,38.15,989.81,-63,-15,189
  1512178774,-0.1409,-0.0936,0.0650,-72.75,24.66,911.07,-63,-15,189
  1512178774,-0.1385,-0.1100,0.0490,-102.42,-25.70,998.29,-63,-15,189
  1512178774,0.0533,0.0305,0.0061,-131.35,-11.29,1063.90,-63,-15,189
  1512178774,0.0197,0.0775,-0.0272,-56.15,-52.43,1030.40,-63,-15,189
  1512178774,-0.0583,0.0598,-0.0221,-55.73,-16.78,1032.65,-50,-38,201
  1512178774,0.0455,0.1374,-0.0670,-50.72,-42.60,1040.83,-50,-38,201
  1512178774,0.0149,0.0895,-0.1589,-122.31,-35.03,1014.95,-50,-38,201
  1512178774,-0.0830,0.0257,-0.1281,-103.82,35.28,951.84,-50,-38,201
  1512178774,-0.0274,0.0728,-0.0001,-32.35,1.77,987.73,-47,-28,177
  1512178774,0.0166,-0.0141,0.0144,-92.35,40.83,934.81,-47,-28,177
  1512178774,-0.0071,-0.0360,0.0039,-81.67,6.84,1074.89,-47,-28,177
  1512178774,-0.0395,0.0437,0.0166,-61.16,6.04,964.54,-47,-28,177
  1512178774,-0.0622,-0.0123,0.0252,-47.67,28.26,1007.93,-47,-28,177
  1512178774,-0.0610,-0.0127,0.0011,-34.61,13.61,987.24,-45,-15,182
  1512178774,-0.0529,0.0032,0.0084,-46.14,8.18,933.47,-45,-15,182
  1512178774,-0.0883,-0.0515,0.0132,-56.95,10.19,976.68,-45,-15,182
  1512178774,0.0658,0.0475,0.0047,-45.90,53.89,1055.73,-45,-15,182
  1512178774,0.0011,0.0205,0.0047,-79.83,-1.71,1022.83,-36,-21,187
  1512178774,-0.0557,0.0073,0.0104,-58.29,54.63,1002.32,-36,-21,187
  1512178774,-0.0212,0.0031,0.0125,-75.99,53.89,994.93,-36,-21,187
  1512178774,-0.0683,-0.0192,0.0132,-59.08,28.20,984.68,-36,-21,187
  1512178775,-0.0316,-0.0166,0.0133,-58.53,-26.25,1028.32,-36,-21,187
  1512178775,-0.0423,-0.0270,0.0254,-69.70,23.19,1001.59,-43,-24,167
  1512178775,-0.0052,0.0161,0.0198,-54.75,-7.93,993.10,-43,-24,167
  1512178775,0.0044,-0.0241,0.0292,5.55,4.52,1044.62,-43,-24,167
  1512178775,-0.0264,-0.0266,0.0466,-72.69,40.16,929.20,-43,-24,167
  1512178775,-0.0606,-0.0168,0.0511,-5.25,20.69,963.38,-43,-24,167
  1512178775,-0.0723,-0.0567,0.0551,-5.68,-13.79,1040.28,-36,-35,170
  1512178775,-0.0202,-0.0154,0.0562,-17.40,0.31,1041.87,-36,-35,170
  1512178775,0.0839,-0.0087,0.0622,42.60,21.42,1044.13,-36,-35,170
  1512178775,-0.0664,-0.1125,0.0631,16.54,49.74,1067.26,-36,-35,170
  1512178775,0.0539,0.0020,0.0983,18.86,-16.66,1072.88,-29,-17,160
  1512178775,-0.0417,0.0077,0.1019,27.65,-46.45,1006.16,-29,-17,160
  1512178775,-0.0144,0.0127,0.0764,35.52,-43.27,1057.37,-29,-17,160
  1512178775,0.0112,0.0545,0.0724,21.91,-28.99,969.85,-29,-17,160
  1512178775,0.0429,-0.0181,0.0915,26.61,11.54,1035.89,-29,-17,160
  1512178775,0.0403,0.0001,0.0969,20.57,-6.29,1186.95,-40,-21,150
  1512178775,0.0000,0.0623,0.1148,32.29,-19.90,1001.59,-40,-21,150
  1512178775,-0.0268,-0.0170,0.1237,19.96,26.98,956.60,-40,-21,150
  1512178775,-0.0186,0.0165,0.1140,20.69,-6.41,946.90,-40,-21,150
  1512178775,0.0362,0.0113,0.1192,26.37,-7.08,929.75,-40,-21,150
  1512178775,0.0057,-0.0115,0.1320,-21.55,-13.85,934.81,-43,-21,157
  1512178775,-0.0995,0.0000,0.1397,-7.81,-27.28,877.81,-43,-21,157
  1512178775,-0.0417,-0.0079,0.1415,15.69,-29.91,963.38,-43,-21,157
  1512178775,-0.0640,-0.0591,0.1422,22.22,-46.69,1132.57,-43,-21,157
  1512178775,0.0562,0.0057,0.1461,40.04,-14.40,1099.73,-36,-28,160
  1512178775,0.0087,-0.0265,0.1664,10.68,30.46,1051.09,-36,-28,160
  1512178775,-0.0671,-0.0514,0.1578,66.04,-9.34,1038.21,-36,-28,160
  1512178775,-0.0072,-0.0656,0.1499,54.57,-6.90,1090.15,-36,-28,160
  1512178775,0.0551,0.0036,0.1652,17.76,19.04,1086.73,-36,-28,160
  1512178775,0.0852,0.0241,0.1569,18.49,-6.59,1077.33,-47,-35,164
  1512178775,-0.0142,-0.0170,0.1542,97.72,-40.83,1095.15,-47,-35,164
  1512178775,0.0471,0.0302,0.1510,78.49,-49.44,1142.58,-47,-35,164
  1512178775,0.0959,0.0332,0.1613,48.46,0.73,1070.37,-47,-35,164
  1512178775,-0.0534,0.0361,0.1782,42.24,-46.14,1005.43,-47,-35,164
  1512178775,-0.0517,0.0594,0.1802,69.03,-53.16,966.00,-43,-38,177
  1512178775,-0.0847,0.0594,0.1842,64.09,-56.27,958.68,-43,-38,177
  1512178775,-0.1012,0.0457,0.1854,53.16,-48.28,914.92,-43,-38,177
  1512178775,-0.1088,0.0289,0.1913,64.39,-47.42,898.44,-43,-38,177
  1512178776,-0.0744,0.0200,0.1908,39.55,-73.00,927.06,-54,-52,177
  1512178776,-0.0714,0.0249,0.1815,17.52,-53.59,879.70,-54,-52,177
  1512178776,0.0258,0.0284,0.2027,44.80,-21.42,947.45,-54,-52,177
  1512178776,-0.0558,-0.0212,0.2005,44.49,-50.84,998.29,-54,-52,177
  1512178776,0.0304,0.0170,0.2079,48.03,-66.89,1042.36,-54,-52,177
  1512178776,-0.0176,0.0164,0.2184,61.10,-30.76,948.67,-59,-47,192
  1512178776,-0.0527,-0.0087,0.2186,72.51,-35.22,976.01,-59,-47,192
  1512178776,-0.0618,-0.0589,0.2158,73.30,-50.35,1005.55,-59,-47,192
  1512178776,-0.0545,-0.0473,0.2180,80.08,-55.24,1007.69,-59,-47,192
  1512178776,0.0454,0.0075,0.2337,52.55,-1.77,986.45,-65,-42,177
  1512178776,0.0506,-0.0380,0.2234,62.99,-41.69,1134.95,-65,-42,177
  1512178776,0.1509,0.0423,0.2246,92.35,-17.82,1043.46,-65,-42,177
  1512178776,-0.0024,-0.0229,0.2349,81.48,-25.57,1083.98,-65,-42,177
  1512178776,0.0095,-0.0253,0.2095,97.23,-107.60,1081.36,-65,-42,177
  1512178776,0.0475,0.0583,0.2328,64.39,-44.68,957.46,-61,-66,187
  1512178776,-0.0288,0.0300,0.2213,73.55,-99.61,999.57,-61,-66,187
  1512178776,0.0956,0.0591,0.2166,109.44,-63.78,1091.25,-61,-66,187
  1512178776,0.0835,0.0609,0.2172,44.74,-60.79,1076.29,-61,-66,187
  1512178776,0.0752,0.0868,0.2181,72.27,-85.75,953.00,-61,-66,187
  1512178776,-0.1851,-0.0376,0.2288,52.19,-47.97,929.08,-77,-58,182
  1512178776,-0.0549,0.0224,0.2350,36.99,-44.13,948.12,-77,-58,182
  1512178776,-0.0137,0.0463,0.2385,39.73,-52.49,995.67,-77,-58,182
  1512178776,0.0344,0.0694,0.2337,36.13,-47.24,945.68,-77,-58,182
  1512178776,0.0293,0.0414,0.2254,32.96,-49.13,1006.35,-87,-58,165
  1512178776,0.0376,0.0140,0.2095,15.56,-63.84,978.70,-87,-58,165
  1512178776,-0.0672,-0.0266,0.1963,-14.59,-39.86,977.97,-87,-58,165
  1512178776,-0.0208,-0.0256,0.2028,43.95,-54.44,1013.43,-87,-58,165
  1512178776,0.0541,0.0218,0.1890,43.58,-97.84,1028.08,-87,-58,165
  1512178776,-0.0843,-0.0084,0.1923,-28.69,-60.67,1013.31,-103,-66,160
  1512178776,-0.1039,0.0397,0.2477,62.44,-91.49,964.29,-103,-66,160
  1512178776,-0.0435,-0.0417,0.2439,85.33,-85.27,1087.16,-103,-66,160
  1512178776,0.0397,-0.0321,0.2402,34.24,-89.78,1122.44,-103,-66,160
  1512178776,0.0635,-0.0012,0.2103,46.26,-65.67,1032.35,-103,-66,160
  1512178776,-0.0626,-0.0277,0.2060,122.99,-96.50,980.04,-87,-58,172
  1512178776,0.0491,0.0507,0.2326,89.05,-156.49,993.59,-87,-58,172
  1512178776,0.0506,0.0610,0.2551,43.27,-131.41,988.34,-87,-58,172
  1512178776,0.0228,0.0091,0.2518,98.94,-75.81,992.74,-87,-58,172
  1512178776,-0.0462,-0.0254,0.2597,70.37,-116.82,976.56,-87,-58,172
  1512178777,0.0838,-0.0041,0.2586,48.16,-109.13,1073.36,-93,-77,143
  1512178777,0.0675,0.0253,0.2667,78.31,-82.40,1012.82,-93,-77,143
  1512178777,0.0678,0.0234,0.2590,112.79,-104.68,1049.07,-93,-77,143
  1512178777,0.0372,-0.0205,0.2650,38.82,-79.22,1009.70,-93,-77,143
  1512178777,-0.1115,-0.0498,0.2567,70.13,-86.30,929.32,-98,-82,162
  1512178777,-0.0495,-0.0250,0.2615,33.02,-90.52,952.39,-98,-82,162
  1512178777,-0.1398,-0.1230,0.2858,41.02,-64.27,982.18,-98,-82,162
  1512178777,-0.0921,-0.0626,0.3065,47.73,-106.51,1013.31,-98,-82,162
  1512178777,-0.0362,-0.0079,0.2959,59.08,-106.14,1055.36,-98,-82,162
  1512178777,0.0101,0.0201,0.2700,92.96,-86.30,1010.68,-108,-75,165
  1512178777,-0.0658,0.0313,0.2550,133.79,-150.51,978.33,-108,-75,165
  1512178777,0.0011,0.0308,0.2414,91.43,-161.44,1018.86,-108,-75,165
  1512178777,0.0290,0.0984,0.2469,98.94,-120.42,1002.38,-108,-75,165
  1512178777,0.1690,0.1899,0.2518,51.09,-117.55,929.26,-98,-75,172
  1512178777,0.0782,0.0953,0.2056,54.20,-105.04,952.94,-98,-75,172
  1512178777,0.0133,0.0513,0.2084,26.18,-135.56,968.81,-98,-75,172
  1512178777,-0.0249,0.0325,0.2024,39.49,-127.81,970.95,-98,-75,172
  1512178777,-0.0023,0.0117,0.2856,68.42,-71.84,931.40,-98,-75,172
  1512178777,-0.0402,-0.0449,0.2755,36.50,-130.19,948.85,-108,-89,165
  1512178777,0.0096,-0.0240,0.2875,47.30,-103.03,983.52,-108,-89,165
  1512178777,-0.0333,-0.0123,0.2854,28.81,-80.38,905.58,-108,-89,165
  1512178777,-0.0975,-0.0473,0.2796,15.75,-85.69,960.63,-108,-89,165
  1512178777,-0.0100,-0.0105,0.2557,59.39,-122.25,1048.58,-108,-89,165
  1512178777,0.0045,0.0256,0.2654,98.39,-132.87,1072.81,-101,-93,169
  1512178777,0.0557,0.0558,0.2671,70.50,-126.22,1074.71,-101,-93,169
  1512178777,-0.0505,-0.0178,0.2490,35.77,-89.23,1035.28,-101,-93,169
  1512178777,-0.0112,0.0268,0.1791,63.29,-123.41,1012.76,-101,-93,169
  1512178777,-0.0017,-0.0364,0.1525,36.44,-75.68,1006.29,-115,-96,159
  1512178777,-0.0028,-0.0021,0.2212,52.61,-121.83,984.25,-115,-96,159
  1512178777,0.0266,0.0196,0.2282,39.61,-132.39,987.06,-115,-96,159
  1512178777,0.0156,-0.0132,0.2349,33.75,-85.27,964.97,-115,-96,159
  1512178777,0.0012,-0.0241,0.2610,38.15,-130.43,958.01,-115,-96,159
  1512178777,0.0304,0.0124,0.2722,24.35,-128.30,946.17,-121,-98,177
  1512178777,-0.0431,-0.0025,0.2778,19.78,-98.27,998.96,-121,-98,177
  1512178777,0.0150,0.0558,0.2683,16.72,-100.71,1031.31,-121,-98,177
  1512178777,0.0660,0.0987,0.2984,26.49,-98.51,1038.82,-121,-98,177
  1512178777,0.0577,0.0932,0.2631,20.75,-77.64,1029.42,-138,-112,177
  1512178778,0.0609,0.0948,0.2356,57.13,-121.58,1011.78,-138,-112,177
  1512178778,0.0513,0.0646,0.2332,55.11,-127.81,998.96,-138,-112,177
  1512178778,0.0502,0.0314,0.2505,92.22,-115.11,1048.52,-138,-112,177
  1512178778,0.0174,0.0064,0.2653,60.18,-109.01,1042.60,-138,-112,177
  1512178778,0.0125,-0.0008,0.2726,11.23,-135.31,1007.26,-124,-109,167
  1512178778,-0.0045,-0.0237,0.2780,44.56,-104.98,988.46,-124,-109,167
  1512178778,-0.0490,-0.0158,0.2799,20.63,-123.96,979.13,-124,-109,167
  1512178778,-0.0489,0.0120,0.2770,29.85,-122.68,962.52,-124,-109,167
  1512178778,-0.0004,-0.0067,0.2731,30.09,-81.36,1014.34,-124,-109,167
  1512178778,0.0004,0.0305,0.2702,52.92,-116.70,1034.42,-133,-114,172
  1512178778,-0.0003,0.0292,0.2716,39.55,-123.60,951.90,-133,-114,172
  1512178778,-0.1027,-0.0486,0.2780,24.23,-122.74,999.21,-133,-114,172
  1512178778,-0.0577,-0.0288,0.2676,60.85,-138.18,1066.71,-133,-114,172
  1512178778,0.0603,0.0652,0.2704,38.94,-135.86,1047.55,-138,-133,177
  1512178778,0.1292,0.0900,0.2786,62.01,-92.71,1035.58,-138,-133,177
  1512178778,0.0574,0.0574,0.2537,-2.81,-112.06,1044.68,-138,-133,177
  1512178778,0.0241,0.1236,0.2475,24.41,-88.75,979.31,-138,-133,177
  1512178778,0.0198,0.0205,0.2374,31.92,-77.39,1010.68,-138,-133,177
  1512178778,0.0463,0.0776,0.2715,29.79,-64.39,931.15,-151,-128,165
  1512178778,0.0148,0.0787,0.2770,32.23,-67.44,842.41,-151,-128,165
  1512178778,0.0527,-0.0640,0.2189,31.56,-74.28,1049.62,-151,-128,165
  1512178778,0.0157,-0.0609,0.2503,-22.58,-109.86,1073.85,-151,-128,165
  1512178778,0.0077,0.0365,0.2720,-8.18,-98.75,1010.50,-151,-128,165
  1512178778,0.0386,0.0547,0.2555,-6.47,-113.22,1018.98,-137,-135,169
  1512178778,0.0495,0.0441,0.2447,16.48,-68.60,1075.13,-137,-135,169
  1512178778,-0.0332,-0.0067,0.2410,-9.03,-99.12,1068.54,-137,-135,169
  1512178778,0.0794,0.0889,0.2438,27.77,-85.82,1058.84,-137,-135,169
  1512178778,0.1053,0.1045,0.2430,35.52,-79.04,1022.83,-128,-123,160
  1512178778,0.0591,0.0518,0.2330,12.15,-80.57,1019.29,-128,-123,160
  1512178778,-0.0264,0.0419,0.2419,51.39,-85.45,956.73,-128,-123,160
  1512178778,-0.0609,-0.0245,0.2332,83.80,-87.40,985.66,-128,-123,160
  1512178778,-0.1212,-0.0636,0.2397,24.41,-102.23,991.33,-128,-123,160
  1512178778,-0.0009,0.0083,0.2310,27.34,-113.34,1031.07,-140,-128,165
  1512178778,-0.0213,0.0156,0.2185,26.61,-145.02,963.99,-140,-128,165
  1512178778,-0.0683,0.0882,0.2161,47.36,-108.22,967.10,-140,-128,165
  1512178778,-0.0879,-0.0130,0.2112,25.63,-66.96,994.57,-140,-128,165
  1512178778,-0.0510,0.0526,0.2157,9.09,-113.04,1008.79,-147,-149,176
  1512178778,0.0413,0.0943,0.2111,21.48,-98.82,962.77,-147,-149,176
  1512178779,0.0555,0.0638,0.1923,53.16,-115.54,920.29,-147,-149,176
  1512178779,0.0478,0.0208,0.2043,24.05,-65.25,993.90,-147,-149,176
  1512178779,0.0722,-0.0008,0.2008,1.59,-51.76,1050.54,-147,-149,176
  1512178779,0.0097,-0.0182,0.2040,-2.62,-48.58,1058.90,-138,-133,160
  1512178779,0.0353,0.0009,0.2067,-1.77,8.61,1016.24,-138,-133,160
  1512178779,-0.1613,-0.0989,0.1939,13.00,-35.77,950.56,-138,-133,160
  1512178779,-0.0537,-0.0547,0.2164,-8.24,-34.36,1005.92,-138,-133,160
  1512178779,0.0325,0.0224,0.1872,26.98,-57.43,947.27,-138,-133,160
  1512178779,-0.0811,-0.0240,0.1887,49.26,-54.38,939.76,-152,-137,157
  1512178779,0.0032,-0.0228,0.1743,-41.81,-53.59,1074.04,-152,-137,157
  1512178779,0.0383,0.0130,0.1739,6.90,-6.41,1031.62,-152,-137,157
  1512178779,0.0545,0.0477,0.1965,2.99,-5.62,1018.19,-152,-137,157
  1512178779,-0.0244,-0.0386,0.1775,-29.60,5.68,1028.08,-159,-144,170
  1512178779,-0.0236,-0.0181,0.1526,2.50,-46.94,1004.70,-159,-144,170
  1512178779,-0.0477,-0.0217,0.1474,7.63,-32.90,945.68,-159,-144,170
  1512178779,-0.0421,0.0061,0.1510,-5.31,3.17,924.32,-159,-144,170
  1512178779,0.0575,0.0743,0.1671,19.84,-16.05,858.03,-159,-144,170
  1512178779,-0.0123,0.0083,0.1418,12.15,-43.95,826.72,-140,-156,155
  1512178779,-0.0304,-0.0663,0.1398,13.79,-36.56,979.92,-140,-156,155
  1512178779,-0.2193,-0.0896,0.1439,43.64,-64.58,991.46,-140,-156,155
  1512178779,0.0566,0.0214,0.1583,-18.68,-18.68,1075.99,-140,-156,155
  1512178779,0.0662,0.0917,0.2762,-8.48,17.46,969.54,-140,-156,155
  1512178779,-0.0856,-0.0202,0.2434,-23.19,29.30,905.27,-144,-160,155
  1512178779,-0.1611,-0.0651,0.1121,48.65,-106.14,977.97,-144,-160,155
  1512178779,0.0149,0.0308,0.0911,47.12,-77.39,1022.09,-144,-160,155
  1512178779,-0.0105,0.0742,0.0951,51.64,-82.76,1011.11,-144,-160,155
  1512178779,0.0037,0.0614,0.1132,-20.14,-26.06,992.68,-131,-172,160
  1512178779,0.0380,0.0443,0.1314,-15.20,41.14,981.99,-131,-172,160
  1512178779,-0.0397,-0.0758,0.1127,-23.56,41.20,1033.87,-131,-172,160
  1512178779,-0.0222,-0.0973,0.1289,-61.28,57.13,1036.32,-131,-172,160
  1512178779,-0.0280,-0.0626,0.1534,0.12,26.31,985.23,-131,-172,160
  1512178779,-0.0268,-0.0377,0.2080,44.80,25.57,953.67,-144,-181,162
  1512178779,0.0186,0.0190,0.2397,-14.65,-33.02,981.75,-144,-181,162
  1512178779,-0.0549,-0.0610,0.1097,-33.26,-2.26,1085.21,-144,-181,162
  1512178779,0.0863,0.0249,0.0830,-24.41,69.46,1106.02,-144,-181,162
  1512178779,0.1899,0.1135,0.1190,-20.26,30.27,1007.14,-147,-192,176
  1512178779,0.0429,-0.0057,0.0852,-11.35,10.62,1001.40,-147,-192,176
  1512178780,-0.0109,-0.0165,0.0896,5.00,33.63,983.34,-147,-192,176
  1512178780,0.1056,0.0684,0.0870,51.70,13.49,1012.76,-147,-192,176
  1512178780,-0.0214,-0.0079,0.0779,-4.76,-28.75,1062.44,-147,-192,176
  1512178780,0.0509,0.0997,0.0723,-29.17,-4.70,1005.92,-138,-197,167
  1512178780,-0.0065,0.1168,0.0503,-28.14,-9.03,831.42,-138,-197,167
  1512178780,-0.0148,0.0269,0.0097,119.45,-41.87,907.90,-138,-197,167
  1512178780,-0.0306,-0.0720,0.0549,36.32,-18.98,1036.32,-138,-197,167
  1512178780,-0.0362,-0.0469,0.0776,-41.93,-10.99,1054.69,-138,-197,167
  1512178780,0.0320,0.1112,0.0992,16.78,-8.79,1024.78,-137,-202,159
  1512178780,0.0043,0.0225,0.1073,-40.77,68.12,972.84,-137,-202,159
  1512178780,-0.0381,-0.0197,0.0899,-37.72,33.81,996.58,-137,-202,159
  1512178780,-0.0055,-0.0115,0.0880,-16.48,9.83,996.34,-137,-202,159
  1512178780,0.0128,-0.0048,0.0899,23.38,6.47,954.65,-126,-185,159
  1512178780,-0.0011,-0.0096,0.0599,13.00,-2.50,998.41,-126,-185,159
  1512178780,-0.1039,-0.0521,0.0748,26.67,7.81,992.31,-126,-185,159
  1512178780,-0.1053,-0.0366,0.0836,-21.00,14.77,985.72,-126,-185,159
  1512178780,0.0446,0.0292,0.0884,19.59,2.20,1039.49,-126,-185,159
  1512178780,0.0278,0.0092,0.0988,2.69,19.78,973.21,-149,-200,167
  1512178780,-0.0021,0.0293,0.0822,60.42,-13.37,975.10,-149,-200,167
  1512178780,0.0486,0.0742,0.0679,66.65,-77.39,1021.91,-149,-200,167
  1512178780,0.0495,0.0904,0.0660,51.88,-21.00,993.10,-149,-200,167
  1512178780,-0.0281,0.0333,0.0747,13.67,-26.12,969.54,-149,-200,167
  1512178780,0.0446,0.0407,0.0944,9.83,4.70,976.07,-151,-188,165
  1512178780,0.0081,-0.0156,0.0996,21.55,-7.51,969.97,-151,-188,165
  1512178780,0.0266,-0.0146,0.1071,42.91,-11.78,1016.36,-151,-188,165
  1512178780,0.0047,-0.0040,0.1029,31.92,-22.22,1000.18,-151,-188,165
  1512178780,0.0047,0.0107,0.1013,45.10,-25.09,977.05,-154,-202,172
  1512178780,-0.0019,-0.0156,0.1017,56.27,-8.67,1003.91,-154,-202,172
  1512178780,-0.0803,-0.0358,0.1117,2.56,-1.77,953.74,-154,-202,172
  1512178780,0.0237,-0.0033,0.1111,29.72,-9.89,1047.24,-154,-202,172
  1512178780,0.0029,-0.0008,0.1236,49.93,9.77,1013.79,-154,-202,172
  1512178780,0.0052,0.0186,0.1222,31.43,-24.60,1016.85,-152,-200,157
  1512178780,-0.0435,0.0174,0.1258,59.33,-17.33,951.54,-152,-200,157
  1512178780,-0.0509,-0.0140,0.1164,77.03,-20.75,959.53,-152,-200,157
  1512178780,-0.0194,-0.0029,0.1236,57.86,-49.38,965.39,-152,-200,157
  1512178780,0.0134,0.0137,0.1329,68.97,-18.55,1028.20,-149,-193,143
  1512178780,0.0035,0.0270,0.1402,76.90,-42.05,988.22,-149,-193,143
  1512178780,0.0161,0.0582,0.1457,55.48,-32.17,911.99,-149,-193,143
  1512178781,-0.0292,0.0105,0.1478,87.40,-16.60,898.80,-149,-193,143
  1512178781,-0.1434,-0.0507,0.1467,-5.62,-48.58,955.81,-149,-193,143
  1512178781,-0.0482,0.0253,0.1686,95.40,-1.40,951.54,-140,-206,155
  1512178781,0.0218,0.0614,0.1704,61.77,-45.10,927.73,-140,-206,155
  1512178781,-0.0314,0.0269,0.1511,85.51,-53.47,938.29,-140,-206,155
  1512178781,-0.0101,0.0391,0.1707,42.05,-35.10,926.64,-140,-206,155
  1512178781,0.1140,0.0458,0.1787,50.90,25.63,973.82,-140,-206,155
  1512178781,0.1033,0.0470,0.1710,45.96,-10.68,951.54,-147,-223,148
  1512178781,0.0855,0.0253,0.1601,63.42,-39.73,1037.54,-147,-223,148
  1512178781,0.0463,0.0256,0.1715,59.69,-33.51,1057.25,-147,-223,148
  1512178781,0.0636,-0.0238,0.1397,4.88,31.43,1102.29,-147,-223,148
  1512178781,0.0919,-0.1184,0.0756,90.58,26.25,1100.83,-152,-229,143
  1512178781,0.0127,-0.0888,0.1732,134.22,-13.61,1062.38,-152,-229,143
  1512178781,0.0253,-0.0025,0.1936,68.79,-12.21,1011.11,-152,-229,143
  1512178781,0.0313,0.0012,0.1839,116.64,12.63,934.51,-152,-229,143
  1512178781,0.0059,-0.0712,0.1690,33.20,-16.30,975.59,-152,-229,143
  1512178781,-0.0987,-0.0971,0.2087,91.31,-59.94,1010.01,-154,-227,138
  1512178781,-0.0049,0.0101,0.2240,126.53,-96.62,975.52,-154,-227,138
  1512178781,-0.0385,-0.0258,0.2329,171.69,-61.52,918.52,-154,-227,138
  1512178781,-0.1286,-0.1145,0.2340,124.33,-38.27,955.57,-154,-227,138
  1512178781,-0.0811,-0.0543,0.2288,138.00,-74.52,998.54,-154,-227,138
  1512178781,0.0020,0.0029,0.2423,140.08,-21.61,987.18,-147,-220,152
  1512178781,0.0443,0.0052,0.2481,166.50,-19.53,972.05,-147,-220,152
  1512178781,0.0533,-0.0003,0.2744,132.39,-35.34,951.35,-147,-220,152
  1512178781,-0.0531,-0.0377,0.2846,139.65,-9.46,933.72,-147,-220,152
  1512178781,-0.0582,-0.0248,0.2874,149.23,-75.07,1027.28,-152,-232,147
  1512178781,0.0322,0.0105,0.3084,143.49,-1.71,1023.56,-152,-232,147
  1512178781,0.0292,0.0381,0.2995,174.26,-67.26,1060.73,-152,-232,147
  1512178781,0.0783,0.0947,0.2984,145.94,-55.11,1080.44,-152,-232,147
  1512178781,-0.0698,0.0321,0.3189,131.84,13.92,968.51,-152,-232,147
  1512178781,-0.0639,-0.0049,0.3081,132.26,-6.47,992.92,-161,-245,159
  1512178781,0.0249,-0.0142,0.3052,131.29,-29.24,979.43,-161,-245,159
  1512178781,0.0306,0.0063,0.3188,138.98,-12.70,965.21,-161,-245,159
  1512178781,-0.0493,-0.0023,0.3212,127.14,-41.20,943.54,-161,-245,159
  1512178781,-0.0065,-0.0104,0.3446,129.70,12.88,1012.94,-161,-245,159
  1512178781,0.0995,0.1105,0.3297,139.16,-81.85,944.09,-149,-253,164
  1512178781,-0.0185,0.0300,0.3230,120.36,-43.40,912.11,-149,-253,164
  1512178781,0.0258,0.0025,0.3237,116.94,13.55,1047.00,-149,-253,164
  1512178782,0.1089,0.0330,0.3310,171.63,-30.94,1140.87,-149,-253,164
  1512178782,0.1300,0.0234,0.3294,138.12,-25.88,1115.23,-135,-267,140
  1512178782,0.0150,0.0328,0.3373,154.42,-5.80,1014.47,-135,-267,140
  1512178782,-0.1848,-0.0648,0.3457,151.06,28.38,986.08,-135,-267,140
  1512178782,-0.0811,-0.0639,0.3317,131.35,-55.30,1136.17,-135,-267,140
  1512178782,-0.0686,-0.0204,0.3396,200.32,-38.09,1036.93,-135,-267,140
  1512178782,-0.1481,-0.0210,0.3798,141.05,-77.21,886.35,-145,-267,147
  1512178782,-0.0807,0.0036,0.3497,230.35,-108.09,943.60,-145,-267,147
  1512178782,-0.0281,0.0522,0.3493,176.94,-69.95,860.53,-145,-267,147
  1512178782,-0.0165,0.0494,0.2214,144.90,-78.06,950.38,-145,-267,147
  1512178782,0.1475,0.0698,0.1682,46.94,-44.01,885.44,-145,-267,147
  1512178782,-0.1538,-0.0321,0.1728,88.93,-31.74,962.46,-151,-283,165
  1512178782,-0.0109,0.0084,0.2878,155.82,-102.72,964.66,-151,-283,165
  1512178782,-0.1185,-0.0380,0.3120,140.20,-108.03,1000.06,-151,-283,165
  1512178782,0.0234,-0.0382,0.2834,151.55,-103.64,1094.97,-151,-283,165
  1512178782,0.0642,-0.0073,0.3192,166.93,-106.08,1053.47,-154,-294,165
  1512178782,-0.1477,-0.0225,0.3222,161.13,-108.70,971.80,-154,-294,165
  1512178782,-0.1481,0.0092,0.3449,210.39,-95.40,936.95,-154,-294,165
  1512178782,-0.1931,-0.0687,0.2846,318.24,-54.08,1120.61,-154,-294,165
  1512178782,-0.0168,0.1061,0.3625,177.80,-117.49,1114.01,-154,-294,165
  1512178782,0.1647,0.1764,0.3992,160.34,-56.64,1093.57,-126,-283,152
  1512178782,0.1051,0.0607,0.3903,121.70,-30.58,1083.68,-126,-283,152
  1512178782,0.0427,0.0643,0.3794,154.17,-64.64,1052.12,-126,-283,152
  1512178782,-0.0356,0.0883,0.3886,150.94,-78.12,945.50,-126,-283,152
  1512178782,-0.0605,0.0232,0.4003,139.77,-56.46,948.30,-126,-283,152
  1512178782,-0.0005,0.0047,0.3820,155.64,-74.89,1027.95,-124,-299,164
  1512178782,-0.0293,-0.0430,0.3895,172.30,-49.38,1030.33,-124,-299,164
  1512178782,-0.0463,-0.0132,0.3988,107.79,-69.03,947.27,-124,-299,164
  1512178782,0.0036,0.0413,0.3844,174.74,-64.15,878.85,-124,-299,164
  1512178782,-0.1329,-0.0517,0.3976,145.81,-79.96,929.20,-117,-299,157
  1512178782,-0.0848,0.0220,0.4023,157.35,-105.41,967.77,-117,-299,157
  1512178782,-0.0294,0.0870,0.4175,143.68,-96.07,954.65,-117,-299,157
  1512178782,-0.1117,0.0522,0.3980,114.50,-73.49,961.91,-117,-299,157
  1512178782,-0.0730,0.0200,0.3819,189.09,-106.69,1053.16,-117,-299,157
  1512178782,0.0578,0.1304,0.4151,108.34,-77.64,1028.63,-119,-312,159
  1512178782,0.0064,0.1017,0.3989,148.99,-76.97,1043.82,-119,-312,159
  1512178782,-0.1101,0.0125,0.3770,67.81,-92.83,1049.19,-119,-312,159
  1512178782,-0.0720,-0.0032,0.3336,203.06,-91.74,991.94,-119,-312,159
  1512178783,0.0072,0.0096,0.3404,218.69,-1.89,950.13,-94,-308,148
  1512178783,-0.0336,-0.0454,0.3671,121.46,-67.26,986.69,-94,-308,148
  1512178783,0.0117,0.0015,0.4039,183.35,-22.71,917.79,-94,-308,148
  1512178783,-0.0421,0.0154,0.4575,136.17,-36.62,906.80,-94,-308,148
  1512178783,-0.0318,-0.0316,0.5188,72.75,-61.22,1014.47,-94,-308,148
  1512178783,0.0679,0.0491,0.5318,77.70,-112.85,1025.70,-103,-317,164
  1512178783,0.0495,0.0899,0.4353,178.71,-135.56,1023.32,-103,-317,164
  1512178783,0.0190,0.0663,0.3852,161.68,-138.79,1009.34,-103,-317,164
  1512178783,0.0301,0.0784,0.3434,122.86,-77.82,1003.30,-103,-317,164
  1512178783,-0.0220,0.0268,0.2657,107.36,-119.69,955.57,-103,-317,164
  1512178783,0.0907,0.0422,0.2435,178.89,-108.03,1016.17,-84,-329,162
  1512178783,0.1041,0.0706,0.3385,203.61,-119.02,967.77,-84,-329,162
  1512178783,0.0092,0.0336,0.4049,164.79,-83.74,931.64,-84,-329,162
  1512178783,0.0598,-0.0045,0.4161,121.70,-35.22,989.20,-84,-329,162
  1512178783,0.0414,-0.0043,0.4290,133.91,-65.80,992.31,-91,-340,165
  1512178783,0.1079,0.0273,0.4278,114.81,-57.62,981.51,-91,-340,165
  1512178783,-0.0095,-0.0170,0.4354,131.35,-50.35,1001.65,-91,-340,165
  1512178783,0.0153,0.0308,0.4294,85.57,-43.03,960.14,-91,-340,165
  1512178783,-0.0057,0.0154,0.4001,108.46,-72.57,972.11,-91,-340,165
  1512178783,0.0116,-0.0137,0.4099,142.21,-36.01,1016.72,-94,-340,165
  1512178783,-0.0625,-0.0418,0.3979,113.28,-101.93,1016.91,-94,-340,165
  1512178783,0.0531,0.0166,0.4097,113.40,-64.51,1051.21,-94,-340,165
  1512178783,0.0919,0.0092,0.4156,172.36,-39.31,1082.03,-94,-340,165
  1512178783,0.1558,0.0272,0.4201,86.06,-45.72,1077.33,-94,-340,165
  1512178783,0.1806,0.0679,0.4120,128.11,-52.12,957.52,-86,-338,157
  1512178783,0.1230,0.0044,0.4068,110.60,-25.09,1044.37,-86,-338,157
  1512178783,0.0704,0.0254,0.4087,139.40,-38.76,1047.18,-86,-338,157
  1512178783,0.1663,0.0795,0.4353,137.63,-48.22,1008.30,-86,-338,157
  1512178783,-0.0678,-0.0337,0.3992,121.46,-55.05,896.30,-86,-373,164
  1512178783,-0.0617,-0.0433,0.4089,98.69,-70.74,931.15,-86,-373,164
  1512178783,0.0020,-0.0194,0.4149,123.84,-58.59,956.42,-86,-373,164
  1512178783,-0.0912,-0.0806,0.4189,133.61,-56.15,973.94,-86,-373,164
  1512178783,-0.0165,-0.0087,0.4079,120.79,-95.46,984.50,-86,-373,164
  1512178783,0.0939,0.0919,0.4229,142.40,-47.61,962.52,-80,-379,169
  1512178783,-0.0491,-0.0103,0.3996,154.30,-75.99,1053.71,-80,-379,169
  1512178783,0.0083,0.0790,0.4104,86.79,-96.68,1027.16,-80,-379,169
  1512178783,0.0101,0.0455,0.3971,195.50,-44.92,986.02,-80,-379,169
  1512178783,-0.0401,-0.0270,0.3973,207.15,-44.86,1013.24,-80,-379,169
  1512178784,0.0561,0.0991,0.4224,169.56,-90.82,1014.10,-57,-363,160
  1512178784,0.0762,0.0855,0.4208,169.80,-64.58,983.70,-57,-363,160
  1512178784,0.0964,0.0337,0.4121,130.92,-44.25,1014.34,-57,-363,160
  1512178784,0.0410,0.0374,0.4115,166.75,-70.25,1002.87,-57,-363,160
  1512178784,-0.0067,0.0153,0.4099,113.53,-28.32,974.55,-50,-373,164
  1512178784,-0.0718,0.0296,0.4381,52.37,-70.13,934.69,-50,-373,164
  1512178784,-0.0619,0.0253,0.4041,122.74,-61.58,935.24,-50,-373,164
  1512178784,-0.0699,0.0077,0.4008,167.30,-99.12,952.76,-50,-373,164
  1512178784,-0.0244,0.0192,0.3895,142.09,-93.14,958.86,-50,-373,164
  1512178784,-0.0921,-0.0358,0.3969,157.35,-32.23,967.16,-52,-379,172
  1512178784,0.0253,-0.0618,0.3876,127.93,-41.87,1081.60,-52,-379,172
  1512178784,0.0770,0.0208,0.4017,105.96,-59.94,1032.35,-52,-379,172
  1512178784,-0.0238,0.0443,0.4230,136.35,-32.47,927.25,-52,-379,172
  1512178784,-0.0152,0.0252,0.4041,118.84,-49.13,968.63,-28,-379,172
  1512178784,0.0237,0.0256,0.3928,131.90,-30.15,1049.50,-28,-379,172
  1512178784,-0.0687,0.0158,0.3991,153.99,-75.81,988.34,-28,-379,172
  1512178784,-0.0547,0.0067,0.4003,165.34,-61.16,994.26,-28,-379,172
  1512178784,0.0039,0.0220,0.4003,156.37,-100.16,1044.74,-28,-379,172
  1512178784,0.0272,0.0431,0.4246,148.38,-58.04,980.96,-29,-391,170
  1512178784,-0.0818,-0.0300,0.4202,139.04,-38.15,1000.55,-29,-391,170
  1512178784,0.0015,0.0192,0.4397,116.46,-104.68,999.51,-29,-391,170
  1512178784,-0.0527,-0.0075,0.3963,114.87,-93.20,964.60,-29,-391,170
