RTC has set the system time
Mag Calibration: Wave device in a figure 8 until done!
  4 seconds to get ready followed by 15 seconds of sampling)
  Mag Calibration done!
  time_unix,rotate_x,rotate_y,rotate_z,acc_x,acc_y,acc_z,mag_x,mag_y,mag_z
  1512178902,-0.0249,-0.0019,-0.0008,-3.17,-50.48,984.68,-3,-8,0
  1512178902,0.0144,0.0031,0.0004,3.30,-36.38,1013.06,-3,-8,0
  1512178902,0.0258,0.0036,0.0005,2.26,-28.08,1007.32,-3,-8,0
  1512178902,-0.0194,0.0019,0.0008,-1.89,-42.66,1000.31,17,5,-6
  1512178902,-0.0013,0.0011,-0.0008,6.35,-47.85,995.30,17,5,-6
  1512178902,0.0241,0.0047,0.0001,-1.83,-38.15,994.45,17,5,-6
  1512178902,0.0080,0.0053,-0.0019,0.61,-37.29,1010.93,17,5,-6
  1512178902,-0.0027,-0.0005,-0.0013,3.66,-45.84,1001.89,-7,12,-10
  1512178902,0.0116,0.0035,-0.0017,-5.43,-43.52,980.10,-7,12,-10
  1512178902,0.0178,0.0063,-0.0005,-0.37,-31.49,1024.17,-7,12,-10
  1512178902,-0.0160,-0.0037,-0.0013,-0.37,-42.91,1001.22,-7,12,-10
  1512178902,-0.0205,-0.0011,-0.0007,-2.38,-55.60,969.12,-7,12,-10
  1512178902,0.0071,0.0016,-0.0008,3.91,-45.53,1000.00,-5,7,-5
  1512178902,0.0201,0.0017,0.0008,-0.18,-30.76,1003.66,-5,7,-5
  1512178902,-0.0302,-0.0021,-0.0013,-4.58,-54.26,978.09,-5,7,-5
  1512178902,-0.0024,0.0003,-0.0019,6.77,-47.85,987.37,-5,7,-5
  1512178902,0.0190,0.0040,-0.0017,-5.98,-45.04,984.25,-5,7,-5
  1512178902,0.0157,0.0045,0.0000,3.23,-30.03,1023.32,-8,10,1
  1512178902,-0.0162,-0.0033,-0.0020,0.37,-45.96,995.73,-8,10,1
  1512178902,-0.0194,-0.0029,0.0003,-2.87,-54.87,964.29,-8,10,1
  1512178902,0.0116,0.0036,-0.0001,7.51,-45.53,1002.56,-8,10,1
  1512178902,0.0234,0.0041,0.0012,-2.26,-28.26,1001.46,0,1,0
  1512178902,-0.0321,-0.0027,-0.0013,-5.13,-55.48,976.81,0,1,0
  1512178902,0.0225,0.0015,0.0008,36.50,-47.67,1029.60,0,1,0
  1512178902,0.0240,-0.0032,-0.0063,-26.31,-97.84,1025.88,0,1,0
  1512178902,0.0105,0.0013,-0.0012,-43.15,-59.81,997.99,0,1,0
  1512178902,0.0224,0.0004,-0.0020,-37.78,-87.46,1043.58,5,14,8
  1512178902,0.0089,0.0052,0.0016,-51.03,-81.12,1001.77,5,14,8
  1512178903,0.0273,0.0059,0.0008,-33.51,-64.58,1051.82,5,14,8
  1512178903,-0.0004,0.0043,0.0013,-23.44,-64.70,1022.16,5,14,8
  1512178903,-0.0134,0.0023,0.0028,-35.58,-83.31,992.68,5,14,8
  1512178903,-0.0105,-0.0004,0.0009,-31.07,-83.13,1004.88,0,8,6
  1512178903,-0.0017,0.0025,0.0007,-33.57,-63.90,1002.08,0,8,6
  1512178903,-0.0286,-0.0004,-0.0019,-40.47,-94.85,984.68,0,8,6
  1512178903,-0.0008,0.0001,-0.0011,-27.65,-70.80,1002.62,0,8,6
  1512178903,0.0013,0.0025,-0.0001,-42.30,-77.45,984.19,-14,-1,10
  1512178903,-0.0041,0.0001,0.0000,-28.50,-68.36,1008.12,-14,-1,10
  1512178903,0.0009,-0.0013,0.0013,-17.82,-64.70,1001.65,-14,-1,10
  1512178903,-0.0035,0.0015,0.0024,-43.09,-82.03,982.48,-14,-1,10
  1512178903,-0.0099,0.0015,0.0015,-30.40,-78.61,1006.65,-14,-1,10
  1512178903,-0.0027,-0.0003,-0.0004,-22.34,-65.67,1001.28,-8,3,18
  1512178903,-0.0084,0.0003,0.0009,-45.04,-85.27,981.02,-8,3,18
  1512178903,-0.0020,0.0008,0.0008,-32.96,-71.66,1004.82,-8,3,18
  1512178903,0.0008,-0.0004,-0.0004,-26.12,-64.21,1003.17,-8,3,18
  1512178903,-0.0076,-0.0007,0.0007,-46.94,-86.06,990.97,-8,3,18
  1512178903,-0.0023,-0.0005,0.0005,-30.21,-61.04,1011.72,-22,-10,11
  1512178903,-0.0028,-0.0031,-0.0009,-23.13,-65.43,1001.04,-22,-10,11
  1512178903,-0.0119,-0.0019,0.0013,-43.58,-89.36,979.61,-22,-10,11
  1512178903,-0.0091,-0.0004,0.0012,-24.78,-67.20,1007.39,-22,-10,11
  1512178903,-0.0023,-0.0013,0.0009,-31.80,-69.40,1003.97,0,-1,6
  1512178903,-0.0052,0.0008,-0.0001,-48.71,-90.33,988.28,0,-1,6
  1512178903,-0.0019,0.0015,-0.0009,-30.70,-72.63,1010.25,0,-1,6
  1512178903,0.0031,0.0023,0.0005,-30.40,-68.42,999.76,0,-1,6
  1512178903,0.0109,0.0023,0.0008,-48.46,-79.22,990.42,0,-1,6
  1512178903,0.0100,0.0033,0.0008,-35.28,-61.52,1002.56,-3,12,20
  1512178903,0.0144,0.0015,0.0003,-31.68,-65.49,1000.49,-3,12,20
  1512178903,0.0100,0.0016,-0.0007,-53.96,-78.12,1002.38,-3,12,20
  1512178903,0.0077,0.0045,-0.0020,-43.46,-63.11,1018.13,-3,12,20
  1512178903,0.0154,0.0021,-0.0031,-34.12,-66.41,1020.39,-7,5,3
  1512178903,0.0013,0.0020,-0.0049,-45.96,-83.86,996.64,-7,5,3
  1512178903,-0.0091,0.0011,-0.0045,-38.94,-62.38,1017.82,-7,5,3
  1512178903,0.0065,-0.0001,-0.0071,-31.31,-70.68,1012.39,-7,5,3
  1512178903,-0.0047,-0.0001,-0.0043,-45.35,-84.96,988.04,-7,5,3
  1512178903,-0.0238,-0.0024,-0.0061,-32.17,-80.69,997.01,-8,10,5
  1512178903,-0.0011,-0.0037,-0.0060,-30.33,-65.67,1011.78,-8,10,5
  1512178903,-0.0076,-0.0025,-0.0071,-44.92,-82.95,988.10,-8,10,5
  1512178904,-0.0162,-0.0001,-0.0057,-36.44,-77.94,1001.04,-8,10,5
  1512178904,0.0055,0.0024,-0.0083,-28.32,-73.49,1005.37,-8,10,5
  1512178904,-0.0004,0.0021,-0.0068,-46.14,-82.58,987.18,-12,-10,15
  1512178904,-0.0101,0.0024,-0.0073,-39.49,-70.62,981.20,-12,-10,15
  1512178904,0.0083,-0.0007,-0.0079,-31.62,-58.72,1001.95,-12,-10,15
  1512178904,0.0024,-0.0008,-0.0085,-47.12,-72.02,987.30,-12,-10,15
  1512178904,-0.0085,0.0000,-0.0100,-39.06,-60.24,1005.00,-8,3,15
  1512178904,0.0176,0.0020,-0.0113,-35.10,-53.34,1028.93,-8,3,15
  1512178904,0.0123,0.0003,-0.0136,-42.72,-66.77,1001.04,-8,3,15
  1512178904,-0.0158,-0.0047,-0.0148,-35.52,-76.90,1012.76,-8,3,15
  1512178904,0.0365,-0.0037,-0.0149,-34.67,-52.67,1052.49,-8,3,15
  1512178904,0.0205,-0.0033,-0.0169,-34.00,-69.21,1001.77,-8,3,5
  1512178904,-0.0091,0.0020,-0.0158,-63.17,-95.58,967.59,-8,3,5
  1512178904,-0.0060,0.0024,-0.0130,-47.36,-70.01,1025.09,-8,3,5
  1512178904,0.0104,-0.0032,-0.0142,-40.41,-80.99,1042.24,-8,3,5
  1512178904,-0.0049,-0.0052,-0.0136,-49.74,-84.11,985.29,-8,3,5
  1512178904,-0.0598,-0.0056,-0.0138,-50.05,-96.25,969.85,-5,-10,15
  1512178904,-0.0589,-0.0009,-0.0146,-47.24,-89.97,975.77,-5,-10,15
  1512178904,0.0237,0.0016,-0.0138,-54.57,-75.01,1053.71,-5,-10,15
  1512178904,0.0257,-0.0020,-0.0185,-47.97,-89.84,1006.65,-5,-10,15
  1512178904,0.0005,0.0001,-0.0216,-55.91,-94.97,959.72,-10,8,0
  1512178904,-0.0421,0.0027,-0.0224,-67.44,-96.25,962.95,-10,8,0
  1512178904,-0.0079,0.0047,-0.0245,-74.46,-85.63,1054.87,-10,8,0
  1512178904,0.0667,0.0080,-0.0228,-75.81,-66.71,1098.88,-10,8,0
  1512178904,0.1286,0.0093,-0.0185,-78.67,-71.53,1106.32,-10,8,0
  1512178904,0.1004,0.0140,-0.0185,-54.08,-115.54,962.95,5,0,18
  1512178904,-0.0577,-0.0067,-0.0224,-53.77,-153.14,836.85,5,0,18
  1512178904,-0.0438,-0.0093,-0.0229,-54.99,-152.22,846.74,5,0,18
  1512178904,-0.1481,-0.0136,-0.0258,-52.49,-147.83,856.38,5,0,18
  1512178904,-0.1370,-0.0052,-0.0273,-74.52,-116.15,969.67,3,5,10
  1512178904,-0.1348,-0.0032,-0.0280,-77.64,-129.76,928.77,3,5,10
  1512178904,-0.0763,0.0016,-0.0294,-103.27,-105.65,1022.83,3,5,10
  1512178904,0.0071,0.0087,-0.0282,-119.08,-79.77,1117.98,3,5,10
  1512178904,0.1108,0.0172,-0.0262,-125.98,-62.68,1166.87,3,5,10
  1512178904,0.1820,0.0237,-0.0236,-111.94,-78.43,1107.42,-8,-3,8
  1512178904,0.1667,0.0224,-0.0190,-135.93,-92.41,1145.32,-8,-3,8
  1512178904,0.1349,0.0161,-0.0108,-119.51,-121.52,1050.78,-8,-3,8
  1512178905,0.1188,0.0137,-0.0055,-141.30,-107.73,1117.49,-8,-3,8
  1512178905,0.1142,0.0085,-0.0248,-113.53,-103.70,1069.21,-8,-3,8
  1512178905,0.0621,0.0064,-0.0286,-104.19,-120.91,981.14,12,0,11
  1512178905,0.0326,0.0083,-0.0312,-90.82,-123.72,996.09,12,0,11
  1512178905,0.0570,0.0130,-0.0312,-109.74,-93.93,1067.26,12,0,11
  1512178905,0.0718,0.0032,-0.0312,-116.21,-94.48,1091.43,12,0,11
  1512178905,0.0598,0.0011,-0.0344,-97.84,-106.81,1048.89,-10,8,16
  1512178905,0.0465,0.0049,-0.0317,-119.32,-96.98,1033.45,-10,8,16
  1512178905,-0.0039,-0.0015,-0.0344,-95.58,-90.09,1065.67,-10,8,16
  1512178905,0.0555,0.0024,-0.0356,-89.60,-100.46,1111.88,-10,8,16
  1512178905,0.0519,-0.0007,-0.0348,-103.64,-106.08,1047.91,-10,8,16
  1512178905,-0.0216,-0.0041,-0.0397,-100.52,-116.76,972.78,-12,3,11
  1512178905,-0.0421,0.0035,-0.0394,-79.96,-107.91,966.98,-12,3,11
  1512178905,0.0116,0.0073,-0.0350,-100.40,-92.83,1073.06,-12,3,11
  1512178905,0.0075,0.0029,-0.0366,-107.85,-81.42,1059.81,-12,3,11
  1512178905,0.0316,0.0100,-0.0328,-91.00,-77.88,1038.94,-12,3,11
  1512178905,0.0262,0.0097,-0.0344,-91.00,-85.82,1057.01,-5,17,22
  1512178905,0.0423,0.0068,-0.0356,-92.10,-81.79,1080.81,-5,17,22
  1512178905,0.0521,0.0003,-0.0370,-101.01,-67.14,1091.25,-5,17,22
  1512178905,-0.0296,-0.0043,-0.0403,-81.36,-87.22,1070.37,-5,17,22
  1512178905,0.0130,-0.0025,-0.0386,-97.05,-79.41,1087.46,-7,12,16
  1512178905,0.0325,0.0031,-0.0358,-74.77,-47.97,1062.50,-7,12,16
  1512178905,0.0585,0.0100,-0.0349,-97.84,-82.89,1109.80,-7,12,16
  1512178905,0.0818,0.0055,-0.0356,-91.43,-99.00,1052.61,-7,12,16
  1512178905,0.0317,0.0089,-0.0350,-57.19,-78.67,1052.80,-7,12,16
  1512178905,0.0298,0.0009,-0.0349,-85.45,-93.93,1082.21,-8,7,11
  1512178905,0.0621,-0.0017,-0.0321,-99.43,-77.70,1073.30,-8,7,11
  1512178905,-0.0366,-0.0013,-0.0330,-83.74,-83.01,1037.66,-8,7,11
  1512178905,0.0045,0.0011,-0.0305,-99.00,-83.80,1106.57,-8,7,11
  1512178905,0.0425,0.0060,-0.0294,-72.63,-71.23,1133.06,-8,7,11
  1512178905,-0.0744,-0.0001,-0.0320,-91.37,-108.09,1063.48,-10,8,16
  1512178905,-0.0212,-0.0012,-0.0297,-90.64,-81.12,1065.37,-10,8,16
  1512178905,0.0477,0.0095,-0.0230,-80.26,-42.36,1153.44,-10,8,16
  1512178905,-0.0161,0.0043,-0.0261,-112.00,-62.99,1146.55,-10,8,16
  1512178905,0.0988,0.0124,-0.0194,-84.59,-12.51,1196.23,-10,12,13
  1512178905,0.2124,0.0208,-0.0189,-110.84,-69.27,1137.15,-10,12,13
  1512178905,0.1627,0.0142,-0.0205,-115.78,-68.97,1143.80,-10,12,13
  1512178905,0.1218,0.0077,-0.0180,-83.62,-89.17,1052.31,-10,12,13
  1512178906,0.1009,0.0027,-0.0166,-70.25,-122.56,994.87,-10,12,13
  1512178906,0.0537,0.0068,-0.0184,-40.65,-112.24,971.92,-12,10,18
  1512178906,0.1173,0.0096,-0.0075,-53.59,-62.19,1082.40,-12,10,18
  1512178906,0.0835,0.0032,-0.0117,-13.73,-132.87,984.01,-12,10,18
  1512178906,-0.0230,-0.0072,-0.0141,-19.29,-156.37,858.76,-12,10,18
  1512178906,0.0087,-0.0053,-0.0123,-10.25,-149.60,867.13,1,7,11
  1512178906,-0.1177,-0.0145,-0.0154,-35.64,-148.07,828.80,1,7,11
  1512178906,-0.0105,-0.0088,-0.0144,-55.60,-144.53,827.09,1,7,11
  1512178906,-0.1333,-0.0157,-0.0196,-39.86,-174.62,787.66,1,7,11
  1512178906,-0.1743,-0.0132,-0.0192,-48.34,-145.20,867.43,1,7,11
  1512178906,-0.0931,-0.0160,-0.0127,-45.59,-151.06,879.94,-5,14,8
  1512178906,-0.1031,-0.0128,-0.0084,-23.99,-125.06,867.00,-5,14,8
  1512178906,-0.1072,-0.0020,-0.0105,-42.91,-133.85,909.61,-5,14,8
  1512178906,-0.0811,-0.0047,-0.0091,-31.31,-155.40,903.56,-5,14,8
  1512178906,-0.1145,0.0047,-0.0036,-26.79,-97.66,912.11,-5,14,8
  1512178906,-0.0794,0.0069,-0.0064,-56.09,-85.33,1035.52,-10,15,0
  1512178906,-0.0441,0.0055,-0.0044,-57.13,-94.73,992.80,-10,15,0
  1512178906,-0.0149,0.0129,-0.0013,-46.63,-72.27,1038.88,-10,15,0
  1512178906,-0.0233,0.0071,0.0061,-76.35,-65.06,1050.60,-10,15,0
  1512178906,-0.1523,-0.0177,-0.0005,-71.84,-97.11,950.74,-8,10,15
  1512178906,-0.1286,-0.0112,0.0056,-78.25,-93.63,1038.02,-8,10,15
  1512178906,0.0201,-0.0059,0.0173,-75.87,-27.04,1165.10,-8,10,15
  1512178906,0.1887,0.0043,0.0130,-74.83,-86.12,1189.27,-8,10,15
  1512178906,0.1067,0.0055,0.0153,-59.75,-75.68,1085.94,-8,10,15
  1512178906,0.0610,-0.0016,0.0186,-49.07,-108.95,1018.55,-8,14,11
  1512178906,0.0498,-0.0084,0.0217,-52.92,-117.13,994.20,-8,14,11
  1512178906,0.0385,-0.0092,0.0246,-21.48,-127.62,978.09,-8,14,11
  1512178906,0.0228,-0.0048,0.0306,-18.31,-123.41,965.45,-8,14,11
  1512178906,0.0214,-0.0029,0.0322,-26.43,-123.41,974.30,-8,14,11
  1512178906,0.1137,0.0079,0.0403,-62.56,-80.51,1074.40,-1,14,8
  1512178906,0.0635,0.0041,0.0414,-37.72,-135.80,1008.42,-1,14,8
  1512178906,0.0164,-0.0017,0.0445,-29.11,-123.35,973.63,-1,14,8
  1512178906,0.0146,-0.0009,0.0498,-20.08,-102.23,1004.09,-1,14,8
  1512178906,-0.0336,-0.0048,0.0487,-50.48,-143.62,948.18,-14,26,16
  1512178906,-0.0664,-0.0021,0.0511,-16.85,-90.58,978.09,-14,26,16
  1512178906,-0.0463,-0.0009,0.0578,-43.03,-117.49,964.72,-14,26,16
  1512178906,-0.0071,-0.0028,0.0555,-22.46,-126.89,943.36,-14,26,16
  1512178906,-0.0111,-0.0027,0.0614,-43.27,-138.92,967.16,-14,26,16
  1512178907,0.0350,-0.0060,0.0700,-42.48,-106.63,1026.67,-3,22,13
  1512178907,0.0230,-0.0051,0.0751,-27.83,-112.55,1048.95,-3,22,13
  1512178907,0.0230,-0.0021,0.0776,-23.19,-125.43,1021.18,-3,22,13
  1512178907,0.0228,-0.0005,0.0771,-43.03,-157.47,1015.08,-3,22,13
  1512178907,-0.0052,-0.0009,0.0820,-11.17,-104.25,962.59,-3,22,13
  1512178907,-0.0063,-0.0116,0.0874,-30.82,-97.23,1008.54,-7,26,6
  1512178907,0.0149,-0.0112,0.0899,-50.84,-91.55,1034.36,-7,26,6
  1512178907,-0.0016,-0.0108,0.0977,-38.09,-93.69,1013.18,-7,26,6
  1512178907,-0.0513,-0.0025,0.0979,-7.32,-132.14,985.60,-7,26,6
  1512178907,-0.0149,0.0021,0.1005,-4.03,-158.75,1033.63,-7,33,6
  1512178907,-0.0334,0.0149,0.1059,14.28,-131.65,997.80,-7,33,6
  1512178907,-0.0349,0.0200,0.1039,21.91,-166.20,992.80,-7,33,6
  1512178907,0.0176,0.0278,0.1048,2.44,-173.16,989.56,-7,33,6
  1512178907,-0.0229,0.0318,0.1115,4.88,-155.58,958.25,-7,33,6
  1512178907,-0.0575,0.0328,0.1120,3.78,-148.38,940.80,-17,5,27
  1512178907,-0.0248,0.0268,0.1150,-12.88,-157.23,931.15,-17,5,27
  1512178907,-0.0136,0.0260,0.1236,-7.63,-125.06,965.15,-17,5,27
  1512178907,0.0057,0.0128,0.1270,-62.13,-144.90,976.68,-17,5,27
  1512178907,-0.0236,0.0128,0.1289,-20.32,-130.74,884.03,-17,5,27
  1512178907,0.0389,0.0284,0.1372,-17.64,-96.92,943.73,-5,14,18
  1512178907,0.0724,0.0245,0.1362,-18.37,-141.54,1004.70,-5,14,18
  1512178907,0.0514,0.0200,0.1380,-16.54,-146.36,941.28,-5,14,18
  1512178907,0.0310,0.0164,0.1369,-9.64,-189.88,980.47,-5,14,18
  1512178907,-0.0446,0.0140,0.1365,-17.03,-184.33,924.07,-10,1,13
  1512178907,-0.0735,0.0173,0.1418,-9.28,-129.15,981.75,-10,1,13
  1512178907,-0.0549,0.0170,0.1467,-24.29,-174.26,958.74,-10,1,13
  1512178907,-0.0502,0.0063,0.1503,-22.09,-182.19,951.48,-10,1,13
  1512178907,-0.0710,0.0087,0.1573,-6.77,-192.08,952.15,-10,1,13
  1512178907,0.0036,0.0000,0.1629,-23.74,-161.74,974.18,-5,-7,1
  1512178907,0.0158,-0.0015,0.1666,-25.39,-167.48,972.96,-5,-7,1
  1512178907,-0.0148,-0.0016,0.1739,-22.95,-153.14,968.26,-5,-7,1
  1512178907,-0.0518,-0.0095,0.1744,-11.54,-188.42,941.28,-5,-7,1
  1512178907,-0.0686,-0.0134,0.1780,-2.50,-184.51,960.82,-15,7,18
  1512178907,-0.0973,-0.0224,0.1758,-8.48,-178.77,1005.19,-15,7,18
  1512178907,-0.1511,-0.0308,0.1844,23.19,-175.42,905.33,-15,7,18
  1512178907,-0.1302,-0.0281,0.1839,2.14,-187.68,958.19,-15,7,18
  1512178907,-0.1325,-0.0286,0.1882,14.89,-198.55,992.37,-15,7,18
  1512178907,-0.0487,-0.0123,0.2000,0.92,-180.97,985.23,-19,0,11
  1512178908,-0.0205,-0.0206,0.2035,-4.82,-149.54,1039.06,-19,0,11
  1512178908,-0.0172,-0.0276,0.2052,10.74,-158.75,998.23,-19,0,11
  1512178908,-0.0012,-0.0209,0.2100,49.19,-157.04,1091.00,-19,0,11
  1512178908,0.0120,-0.0017,0.2071,49.01,-185.55,1051.76,-19,0,11
  1512178908,-0.0193,0.0000,0.2039,56.21,-211.06,1007.32,-19,-21,8
  1512178908,-0.0308,0.0088,0.1932,41.63,-140.14,1036.62,-19,-21,8
  1512178908,0.0165,0.0205,0.1810,26.18,-202.82,1051.51,-19,-21,8
  1512178908,0.0458,0.0228,0.2076,14.59,-190.73,991.09,-19,-21,8
  1512178908,0.0554,0.0069,0.2160,-15.56,-156.13,1052.25,-15,-10,15
  1512178908,0.0746,0.0169,0.2242,2.01,-120.18,1034.24,-15,-10,15
  1512178908,0.0900,0.0238,0.2229,12.57,-148.74,1058.72,-15,-10,15
  1512178908,0.0099,0.0164,0.2232,3.54,-150.88,1015.20,-15,-10,15
  1512178908,0.0419,0.0124,0.2214,22.03,-140.32,1055.36,-15,-10,15
  1512178908,0.0358,0.0120,0.2234,8.36,-129.39,1021.91,-35,-19,0
  1512178908,0.0249,0.0072,0.2194,29.72,-171.57,1022.83,-35,-19,0
  1512178908,-0.0166,-0.0008,0.2220,25.88,-175.78,935.73,-35,-19,0
  1512178908,-0.0234,0.0071,0.2213,3.11,-195.86,919.62,-35,-19,0
  1512178908,0.0029,0.0057,0.2249,19.53,-179.26,945.37,-35,-19,0
  1512178908,0.0393,0.0059,0.2352,11.05,-125.37,976.81,-24,-15,13
  1512178908,0.0415,0.0113,0.2386,-8.67,-133.91,1001.22,-24,-15,13
  1512178908,0.0154,0.0124,0.2364,15.01,-151.61,926.64,-24,-15,13
  1512178908,-0.0017,0.0129,0.2374,17.33,-163.76,952.88,-24,-15,13
  1512178908,-0.0229,0.0107,0.2338,26.61,-192.44,993.90,-22,-31,-1
  1512178908,-0.0285,-0.0009,0.2322,15.20,-194.70,1026.86,-22,-31,-1
  1512178908,0.0068,0.0020,0.2372,36.93,-151.73,1029.60,-22,-31,-1
  1512178908,-0.0136,-0.0032,0.2385,4.94,-145.02,1046.63,-22,-31,-1
  1512178908,-0.0075,-0.0075,0.2415,13.92,-115.66,1019.17,-22,-31,-1
  1512178908,-0.0348,-0.0015,0.2426,34.06,-145.87,1001.53,-21,-22,10
  1512178908,-0.0322,-0.0272,0.2458,18.13,-155.33,1044.49,-21,-22,10
  1512178908,-0.0069,-0.0157,0.2485,38.33,-172.97,1011.29,-21,-22,10
  1512178908,-0.0192,-0.0174,0.2478,40.77,-175.17,997.31,-21,-22,10
  1512178908,-0.0306,-0.0217,0.2458,28.99,-184.20,981.08,-21,-22,10
  1512178908,-0.0294,-0.0240,0.2467,63.48,-185.91,979.61,-35,-33,0
  1512178908,-0.0185,-0.0214,0.2246,31.92,-225.95,1037.54,-35,-33,0
  1512178908,0.0212,-0.0059,0.2422,72.33,-186.58,1026.86,-35,-33,0
  1512178908,-0.0276,-0.0004,0.2425,69.34,-172.12,1013.85,-35,-33,0
  1512178908,-0.0136,-0.0019,0.2431,55.11,-162.29,1070.07,-29,-52,8
  1512178908,0.0075,0.0084,0.2398,66.53,-205.44,959.84,-29,-52,8
  1512178909,-0.0055,0.0133,0.2511,32.29,-185.91,997.62,-29,-52,8
  1512178909,-0.0844,0.0127,0.2427,18.49,-218.14,927.31,-29,-52,8
  1512178909,-0.0352,0.0113,0.2583,64.64,-215.45,951.78,-29,-52,8
  1512178909,-0.0288,0.0169,0.2487,42.48,-207.76,982.24,-42,-44,-6
  1512178909,0.0101,0.0232,0.2481,49.62,-198.49,1017.21,-42,-44,-6
  1512178909,0.0296,0.0273,0.2413,60.73,-187.38,1001.59,-42,-44,-6
  1512178909,0.0144,0.0316,0.2382,26.92,-159.36,1035.71,-42,-44,-6
  1512178909,0.0276,0.0226,0.2393,42.97,-174.80,1026.55,-31,-47,0
  1512178909,-0.0039,0.0258,0.2396,23.44,-164.49,967.29,-31,-47,0
  1512178909,-0.0246,0.0071,0.2397,19.35,-167.42,941.71,-31,-47,0
  1512178909,-0.0510,0.0073,0.2368,47.85,-188.35,934.02,-31,-47,0
  1512178909,0.0272,0.0166,0.2388,13.18,-166.93,1017.94,-31,-47,0
  1512178909,0.0256,0.0188,0.2392,58.90,-163.39,1027.40,-38,-54,16
  1512178909,-0.0153,0.0125,0.2394,66.71,-153.81,990.66,-38,-54,16
  1512178909,-0.0209,0.0133,0.2494,99.67,-135.99,967.71,-38,-54,16
  1512178909,-0.0294,0.0023,0.2369,79.77,-115.23,1005.49,-38,-54,16
  1512178909,0.0149,-0.0045,0.2360,107.79,-105.35,1008.00,-38,-54,16
  1512178909,-0.0493,-0.0285,0.2309,46.63,-145.45,921.75,-42,-61,-6
  1512178909,-0.0511,-0.0236,0.2297,25.39,-155.94,970.76,-42,-61,-6
  1512178909,-0.0256,-0.0076,0.2264,56.76,-146.48,1021.42,-42,-61,-6
  1512178909,0.0117,-0.0024,0.2256,41.93,-147.40,1021.73,-42,-61,-6
  1512178909,-0.0140,0.0009,0.2201,59.08,-141.72,1009.16,-24,-65,-3
  1512178909,-0.0285,0.0076,0.2178,56.52,-136.54,997.74,-24,-65,-3
  1512178909,0.0318,0.0196,0.2160,81.24,-136.17,1019.96,-24,-65,-3
  1512178909,0.0068,0.0208,0.2137,53.96,-134.70,981.38,-24,-65,-3
  1512178909,0.0164,0.0222,0.2067,73.73,-136.54,967.29,-24,-65,-3
  1512178909,-0.0072,0.0071,0.2071,27.89,-112.79,1023.68,-38,-72,10
  1512178909,-0.0225,0.0182,0.2019,28.99,-126.04,923.10,-38,-72,10
  1512178909,0.0224,0.0180,0.2008,69.21,-81.79,1043.40,-38,-72,10
  1512178909,0.0362,0.0112,0.1920,73.12,-90.15,1005.19,-38,-72,10
  1512178909,0.0148,-0.0012,0.1863,70.19,-68.05,1041.14,-17,-79,-13
  1512178909,-0.0065,-0.0043,0.1828,45.53,-65.43,1013.55,-17,-79,-13
  1512178909,-0.0093,-0.0027,0.1762,49.74,-85.14,1016.11,-17,-79,-13
  1512178909,0.0269,-0.0012,0.1804,53.10,-80.26,1022.22,-17,-79,-13
  1512178909,0.0553,-0.0031,0.1686,57.19,-100.16,1020.63,-17,-79,-13
  1512178909,0.0522,-0.0104,0.1706,46.69,-88.32,981.51,-36,-98,-5
  1512178909,0.0692,-0.0093,0.1670,67.99,-71.23,1001.59,-36,-98,-5
  1512178910,0.0831,-0.0032,0.1668,53.10,-90.70,952.70,-36,-98,-5
  1512178910,0.1707,0.0152,0.1637,69.15,-66.04,1063.84,-36,-98,-5
  1512178910,0.1300,0.0047,0.1664,66.59,-97.60,997.68,-36,-98,-5
  1512178910,0.0581,-0.0063,0.1585,61.58,-75.87,1011.90,-42,-86,-10
  1512178910,0.0300,-0.0029,0.1529,93.51,-74.52,1043.70,-42,-86,-10
  1512178910,0.0442,0.0077,0.1446,96.01,-75.07,1039.37,-42,-86,-10
  1512178910,-0.0048,0.0067,0.1376,70.13,-95.64,962.89,-42,-86,-10
  1512178910,0.0565,0.0073,0.1373,86.49,-63.96,1035.77,-36,-98,-11
  1512178910,0.0652,0.0101,0.1338,74.22,-38.76,1049.44,-36,-98,-11
  1512178910,0.0973,0.0264,0.1336,69.76,-32.47,1013.67,-36,-98,-11
  1512178910,0.0995,0.0268,0.1265,76.11,-82.46,1023.32,-36,-98,-11
  1512178910,0.1252,0.0220,0.1286,116.09,-67.87,1034.55,-36,-98,-11
  1512178910,0.0796,0.0085,0.1298,93.81,-78.49,964.54,-28,-96,-3
  1512178910,0.0614,-0.0004,0.1232,65.55,-29.72,979.74,-28,-96,-3
  1512178910,0.0096,-0.0095,0.1189,18.62,-22.77,959.17,-28,-96,-3
  1512178910,-0.0228,-0.0189,0.1170,80.02,13.49,1007.20,-28,-96,-3
  1512178910,0.0747,0.0005,0.1144,67.57,-8.79,1005.19,-26,-102,-11
  1512178910,0.0609,-0.0009,0.1028,62.13,-42.54,981.75,-26,-102,-11
  1512178910,-0.0204,0.0170,0.1019,80.14,-53.34,865.36,-26,-102,-11
  1512178910,-0.0824,0.0035,0.0908,102.72,-83.25,1015.14,-26,-102,-11
  1512178910,0.0418,0.0063,0.1081,68.91,-19.04,1135.13,-26,-102,-11
  1512178910,0.0738,-0.0040,0.1039,59.57,12.02,1100.22,-21,-96,-6
  1512178910,-0.0386,-0.0084,0.1040,63.05,-18.62,1068.54,-21,-96,-6
  1512178910,0.0048,0.0115,0.1009,83.07,-17.76,1082.95,-21,-96,-6
  1512178910,0.0610,0.0248,0.0969,76.48,-30.21,1112.92,-21,-96,-6
  1512178910,0.0483,0.0124,0.0907,79.47,-18.01,1089.29,-21,-96,-6
  1512178910,0.0000,0.0103,0.0879,75.68,-32.71,966.80,-36,-88,-1
  1512178910,0.0165,0.0124,0.0827,87.46,-19.65,928.34,-36,-88,-1
  1512178910,-0.0555,0.0069,0.0751,62.13,-43.76,891.42,-36,-88,-1
  1512178910,-0.0850,-0.0132,0.0731,76.05,-31.07,895.39,-36,-88,-1
  1512178910,0.0132,-0.0011,0.0760,46.39,-4.09,966.55,-33,-102,1
  1512178910,0.0011,0.0008,0.0800,49.80,-2.26,963.44,-33,-102,1
  1512178910,0.0025,0.0242,0.0726,78.86,-41.56,908.69,-33,-102,1
  1512178910,0.0178,0.0473,0.0692,84.23,-43.88,968.63,-33,-102,1
  1512178910,0.0297,0.0342,0.0562,106.32,-61.16,1025.39,-33,-102,1
  1512178910,-0.0037,0.0204,0.0605,98.27,-41.44,1028.63,-31,-107,0
  1512178910,-0.0481,0.0020,0.0672,62.50,-3.48,933.35,-31,-107,0
  1512178910,-0.1107,-0.0008,0.0671,52.55,-10.80,928.96,-31,-107,0
  1512178911,-0.1285,-0.0072,0.0650,68.30,-47.06,955.20,-31,-107,0
  1512178911,-0.1048,-0.0217,0.0674,98.45,-24.90,1002.26,-31,-107,0
  1512178911,-0.0027,-0.0112,0.0726,77.45,-11.11,987.18,-31,-107,-6
  1512178911,0.0570,-0.0153,0.0704,48.58,-3.30,1047.49,-31,-107,-6
  1512178911,0.0586,-0.0083,0.0614,95.58,-41.81,930.05,-31,-107,-6
  1512178911,0.1969,0.0149,0.0636,78.06,-29.91,1032.47,-31,-107,-6
  1512178911,0.0703,-0.0109,0.0491,78.98,-96.13,937.44,-33,-102,-18
  1512178911,-0.0569,-0.0172,0.0618,91.43,-55.60,862.55,-33,-102,-18
  1512178911,-0.1031,-0.0123,0.0635,43.76,-22.52,986.94,-33,-102,-18
  1512178911,-0.0348,-0.0059,0.0593,39.00,-50.78,1059.94,-33,-102,-18
  1512178911,0.0843,0.0115,0.0664,91.49,6.29,1068.91,-33,-102,-18
  1512178911,0.0868,0.0200,0.0642,57.98,-53.47,1058.96,-28,-107,-3
  1512178911,0.0474,0.0104,0.0639,50.54,-19.41,998.41,-28,-107,-3
  1512178911,0.0503,0.0185,0.0545,93.20,-19.29,978.94,-28,-107,-3
  1512178911,-0.0245,0.0040,0.0538,81.30,-41.26,1018.86,-28,-107,-3
  1512178911,-0.0053,0.0004,0.0595,60.30,-22.40,982.67,-26,-105,8
  1512178911,-0.0655,-0.0130,0.0613,58.65,10.86,949.28,-26,-105,8
  1512178911,0.0218,-0.0040,0.0590,67.57,-22.64,979.55,-26,-105,8
  1512178911,0.0225,0.0085,0.0583,78.06,-42.24,983.89,-26,-105,8
  1512178911,0.0184,0.0152,0.0598,112.49,-41.32,1011.60,-26,-105,8
  1512178911,0.0093,0.0047,0.0577,90.33,-43.09,1002.26,-31,-107,-6
  1512178911,-0.0383,-0.0101,0.0541,110.53,-64.70,926.70,-31,-107,-6
  1512178911,-0.1352,-0.0232,0.0501,91.67,-68.36,810.12,-31,-107,-6
  1512178911,-0.0775,-0.0184,0.0569,68.12,-59.88,866.88,-31,-107,-6
  1512178911,-0.0336,-0.0129,0.0599,72.08,-21.61,942.20,-31,-107,-6
  1512178911,-0.0423,-0.0068,0.0621,95.83,-11.78,964.42,-33,-112,-8
  1512178911,0.0226,0.0007,0.0655,85.39,-26.25,986.82,-33,-112,-8
  1512178911,0.0113,-0.0052,0.0639,89.11,-29.36,990.30,-33,-112,-8
  1512178911,-0.0461,-0.0084,0.0644,66.77,-76.84,921.51,-33,-112,-8
  1512178911,0.0129,0.0080,0.0638,116.39,-66.35,977.48,-35,-104,6
  1512178911,0.0218,0.0105,0.0647,88.32,-78.74,1031.19,-35,-104,6
  1512178911,-0.0059,-0.0059,0.0696,97.53,-43.15,1005.25,-35,-104,6
  1512178911,-0.1073,-0.0218,0.0734,91.55,-62.93,938.48,-35,-104,6
  1512178911,-0.1158,-0.0236,0.0787,88.20,-66.04,833.19,-35,-104,6
  1512178911,-0.1435,-0.0136,0.0850,111.15,-50.48,847.05,-35,-125,3
  1512178911,-0.0794,-0.0047,0.0858,83.01,-38.09,975.34,-35,-125,3
  1512178911,-0.0192,0.0119,0.0863,130.68,-76.84,914.37,-35,-125,3
  1512178912,-0.0101,0.0246,0.0860,125.73,-76.84,998.72,-35,-125,3
  1512178912,0.0111,0.0149,0.0880,80.02,-62.74,982.18,-40,-116,-8
  1512178912,-0.0304,0.0128,0.0870,93.44,-60.79,982.60,-40,-116,-8
  1512178912,-0.0763,0.0048,0.0893,103.45,-23.99,974.37,-40,-116,-8
  1512178912,0.0643,0.0250,0.0904,65.86,-24.11,1127.14,-40,-116,-8
  1512178912,0.1413,0.0386,0.0952,86.24,3.11,1085.39,-40,-116,-8
  1512178912,0.0445,0.0398,0.0884,82.21,-55.91,978.76,-45,-111,-10
  1512178912,0.0003,0.0341,0.0884,107.48,-75.13,958.86,-45,-111,-10
  1512178912,-0.0119,0.0353,0.0928,110.72,-38.15,1020.32,-45,-111,-10
  1512178912,-0.0256,0.0194,0.0943,46.20,-24.66,1007.45,-45,-111,-10
  1512178912,-0.0229,0.0225,0.1001,65.00,-5.62,948.61,-45,-111,-10
  1512178912,-0.0687,0.0233,0.0991,79.47,-41.02,896.61,-49,-125,-6
  1512178912,-0.0542,0.0216,0.0975,53.71,-75.13,953.61,-49,-125,-6
  1512178912,0.0039,0.0264,0.1035,54.26,-1.10,1014.95,-49,-125,-6
  1512178912,0.1181,0.0365,0.1063,63.05,-10.01,1082.34,-49,-125,-6
  1512178912,0.0803,0.0208,0.1068,78.43,-45.90,1082.95,-36,-119,-1
  1512178912,0.0698,0.0162,0.1109,97.17,-23.32,1061.46,-36,-119,-1
  1512178912,-0.0228,0.0061,0.1129,95.89,-45.84,1001.83,-36,-119,-1
  1512178912,0.0788,0.0069,0.1177,49.99,-29.42,1071.23,-36,-119,-1
  1512178912,0.1124,0.0068,0.1222,72.39,-57.68,1007.57,-36,-119,-1
  1512178912,0.0732,0.0092,0.1206,87.10,-51.76,952.09,-54,-126,-15
  1512178912,0.0491,0.0033,0.1240,53.83,-42.42,1049.26,-54,-126,-15
  1512178912,0.0824,0.0003,0.1298,48.77,-18.13,1120.36,-54,-126,-15
  1512178912,0.1352,-0.0063,0.1306,62.74,5.74,1115.91,-54,-126,-15
  1512178912,0.0577,-0.0232,0.1358,47.61,-4.21,1061.10,-54,-126,-15
  1512178912,-0.0184,-0.0326,0.1349,53.59,-38.76,994.26,-45,-146,-3
  1512178912,-0.0762,-0.0246,0.1394,87.89,-67.44,976.44,-45,-146,-3
  1512178912,-0.0294,-0.0252,0.1421,93.51,-73.79,994.02,-45,-146,-3
  1512178912,0.0458,-0.0037,0.1427,92.65,-64.64,1002.44,-45,-146,-3
  1512178912,0.0519,-0.0008,0.1310,113.53,-85.63,982.48,-65,-155,8
  1512178912,0.0043,-0.0044,0.1358,115.36,-111.15,921.69,-65,-155,8
  1512178912,-0.0443,-0.0048,0.1447,92.59,-95.70,949.46,-65,-155,8
  1512178912,-0.0306,-0.0035,0.1517,99.18,-71.23,997.86,-65,-155,8
  1512178912,0.0647,0.0193,0.1549,128.66,-88.07,1036.87,-65,-155,8
  1512178912,0.0338,0.0081,0.1638,92.35,-54.81,994.02,-61,-158,-8
  1512178912,0.0081,0.0057,0.1610,121.70,-73.73,962.71,-61,-158,-8
  1512178912,0.0350,0.0024,0.1683,91.43,-42.85,1043.82,-61,-158,-8
  1512178912,0.0943,-0.0055,0.1690,63.90,-20.87,1096.68,-61,-158,-8
  1512178913,0.0362,-0.0075,0.1724,97.90,-14.59,1017.76,-61,-158,-8
  1512178913,0.0402,-0.0079,0.1764,59.02,-26.31,1009.40,-50,-151,-1
  1512178913,0.0278,0.0039,0.1751,82.95,-59.27,936.58,-50,-151,-1
  1512178913,0.0506,0.0080,0.1802,77.09,-57.01,989.44,-50,-151,-1
  1512178913,0.1019,0.0244,0.1791,95.76,-30.03,1112.30,-50,-151,-1
  1512178913,0.1519,0.0342,0.1794,109.86,-60.00,1119.20,-61,-155,-15
  1512178913,0.1067,0.0338,0.1843,123.66,-91.00,1025.02,-61,-155,-15
  1512178913,0.0450,0.0312,0.1818,122.99,-88.62,980.10,-61,-155,-15
  1512178913,-0.0107,0.0342,0.1921,105.83,-83.07,916.32,-61,-155,-15
  1512178913,0.0383,0.0439,0.1909,110.90,-47.97,993.71,-61,-155,-15
  1512178913,0.0891,0.0581,0.1976,31.01,7.63,1075.74,-50,-165,1
  1512178913,0.1983,0.0634,0.2036,51.76,-17.88,1081.05,-50,-165,1
  1512178913,0.0886,0.0642,0.2017,87.52,-48.52,965.27,-50,-165,1
  1512178913,0.1198,0.0557,0.2129,56.21,-7.87,1126.34,-50,-165,1
  1512178913,0.1534,0.0401,0.2133,83.25,-50.35,1077.09,-42,-163,3
  1512178913,0.0858,0.0120,0.2181,98.75,-87.28,986.33,-42,-163,3
  1512178913,0.0542,-0.0012,0.2282,74.46,-34.61,1042.24,-42,-163,3
  1512178913,0.1210,0.0065,0.2336,98.08,-45.96,1074.58,-42,-163,3
  1512178913,0.1109,0.0081,0.2244,96.25,-95.52,1028.93,-42,-163,3
  1512178913,-0.0035,0.0132,0.2413,121.28,-65.86,997.31,-45,-178,-10
  1512178913,-0.0234,-0.0001,0.2531,125.12,-72.69,1070.62,-45,-178,-10
  1512178913,0.0455,0.0012,0.2529,125.37,-91.19,1072.88,-45,-178,-10
  1512178913,0.0321,0.0145,0.2890,123.05,-69.34,1005.86,-45,-178,-10
  1512178913,0.0413,0.0192,0.2676,119.51,-89.66,1101.68,-45,-178,-10
  1512178913,0.1125,0.0198,0.2806,134.77,-59.27,1153.50,-43,-179,-1
  1512178913,-0.0104,0.0232,0.2649,119.87,-92.16,1027.16,-43,-179,-1
  1512178913,0.0755,0.0298,0.2601,116.52,-84.90,1023.07,-43,-179,-1
  1512178913,0.0238,0.0337,0.2723,109.01,-71.72,916.02,-43,-179,-1
  1512178913,-0.0076,0.0414,0.2605,113.59,-77.33,953.43,-29,-179,-5
  1512178913,0.0023,0.0281,0.2692,88.56,-87.59,978.88,-29,-179,-5
  1512178913,0.0093,0.0280,0.2670,96.07,-86.30,946.04,-29,-179,-5
  1512178913,-0.0028,0.0240,0.2714,81.97,-73.24,947.57,-29,-179,-5
  1512178913,0.0230,0.0252,0.2783,111.76,-72.20,944.15,-29,-179,-5
  1512178913,0.0533,0.0346,0.2796,107.91,-107.36,1008.12,-15,-186,-1
  1512178913,0.0344,0.0390,0.2787,119.81,-82.15,1034.12,-15,-186,-1
  1512178913,0.0434,0.0415,0.2836,103.52,-94.97,1048.65,-15,-186,-1
  1512178913,0.0698,0.0276,0.2814,104.25,-72.88,1115.84,-15,-186,-1
  1512178913,-0.0380,0.0253,0.2711,53.16,-35.16,1052.55,-15,-186,-1
  1512178914,-0.0156,0.0208,0.2828,86.49,-12.08,1090.52,-22,-200,5
  1512178914,0.0238,0.0297,0.2751,84.47,-38.64,1082.52,-22,-200,5
  1512178914,0.0386,0.0164,0.2819,30.03,-7.57,1136.84,-22,-200,5
  1512178914,-0.0079,0.0025,0.2940,55.42,-24.66,1008.24,-22,-200,5
  1512178914,0.0087,0.0023,0.2875,43.70,-54.26,1012.76,-15,-193,-5
  1512178914,0.0257,-0.0067,0.2967,90.70,-66.28,1020.81,-15,-193,-5
  1512178914,-0.0170,0.0040,0.2919,73.67,-100.10,1048.34,-15,-193,-5
  1512178914,0.0218,0.0005,0.3124,78.19,-105.71,1025.76,-15,-193,-5
  1512178914,-0.0176,0.0036,0.3256,94.60,-112.92,963.75,-15,-193,-5
  1512178914,0.0051,0.0019,0.3482,96.56,-119.08,892.52,0,-209,-6
  1512178914,0.0583,0.0108,0.3830,113.40,-118.53,982.36,0,-209,-6
  1512178914,0.1846,0.0142,0.3939,100.95,-102.84,1131.59,0,-209,-6
  1512178914,0.0116,0.0015,0.3750,101.56,-90.76,1103.64,0,-209,-6
  1512178914,0.0774,0.0212,0.3361,80.44,-110.84,1155.46,17,-209,-20
  1512178914,0.0458,0.0228,0.3439,91.80,-103.58,998.35,17,-209,-20
  1512178914,-0.0449,0.0077,0.3148,82.46,-114.14,950.62,17,-209,-20
  1512178914,0.0148,0.0040,0.3043,76.11,-122.99,960.02,17,-209,-20
  1512178914,0.0523,0.0055,0.3121,74.34,-125.61,1067.26,17,-209,-20
  1512178914,0.0779,0.0240,0.2973,67.63,-127.14,1117.25,42,-199,-20
  1512178914,0.0433,0.0260,0.3185,69.03,-123.96,1146.55,42,-199,-20
  1512178914,-0.0799,0.0189,0.3412,75.50,-108.70,996.52,42,-199,-20
  1512178914,0.0893,0.0266,0.3305,106.63,-113.46,1084.53,42,-199,-20
  1512178914,0.1637,0.0337,0.3176,95.58,-112.30,1150.33,42,-199,-20
  1512178914,-0.0613,0.0173,0.3192,68.24,-45.41,1012.15,36,-215,-25
  1512178914,-0.0511,0.0374,0.3229,73.36,-118.29,1018.92,36,-215,-25
  1512178914,0.0213,0.0526,0.3553,48.83,-118.29,1088.62,36,-215,-25
  1512178914,-0.0642,0.0740,0.4148,22.40,-118.65,1041.87,36,-215,-25
  1512178914,-0.2553,0.0937,0.4975,3.54,-97.29,1130.49,63,-178,-6
  1512178914,-0.2862,0.0401,0.6213,66.22,-73.61,968.44,63,-178,-6
  1512178914,-0.1261,0.0334,0.6358,123.72,-104.55,1083.44,63,-178,-6
  1512178914,0.1043,-0.0068,0.6429,112.98,-109.80,1025.51,63,-178,-6
  1512178914,-0.1052,0.0330,0.6180,114.87,-139.40,991.09,63,-178,-6
  1512178914,-0.0692,0.0210,0.5441,120.61,-155.09,1024.48,115,-153,-50
  1512178914,-0.0300,0.0039,0.5055,124.88,-185.61,1001.77,115,-153,-50
  1512178914,-0.0326,-0.0068,0.4178,44.25,-183.65,1003.05,115,-153,-50
  1512178914,-0.0280,-0.0119,0.3328,53.10,-137.51,914.79,115,-153,-50
  1512178914,-0.0289,-0.0069,0.3148,-0.73,-69.46,974.98,115,-153,-50
  1512178914,0.0322,-0.0057,0.3129,54.02,-171.08,1021.06,147,-146,-54
  1512178915,-0.0091,0.0032,0.3190,97.47,-169.56,956.24,147,-146,-54
  1512178915,-0.0435,0.0045,0.3481,42.60,-194.70,983.22,147,-146,-54
  1512178915,-0.0474,-0.0059,0.3463,94.85,-181.95,914.18,147,-146,-54
  1512178915,-0.0695,-0.0044,0.3642,62.56,-171.87,919.62,147,-178,-37
  1512178915,-0.0478,0.0052,0.3374,74.46,-201.23,928.77,147,-178,-37
  1512178915,-0.0483,0.0133,0.3245,60.73,-198.12,940.55,147,-178,-37
  1512178915,-0.0463,0.0158,0.3244,44.92,-178.34,1047.85,147,-178,-37
  1512178915,-0.0140,0.0044,0.3342,72.14,-212.46,1078.92,147,-178,-37
  1512178915,-0.0186,0.0150,0.3413,147.71,-199.04,987.55,161,-167,-47
  1512178915,-0.0117,0.0059,0.3682,99.79,-221.80,995.36,161,-167,-47
  1512178915,0.0101,-0.0084,0.3308,131.65,-169.62,987.73,161,-167,-47
  1512178915,0.0165,0.0064,0.3754,108.09,-191.53,1091.43,161,-167,-47
  1512178915,0.0276,0.0015,0.3388,96.50,-215.21,1057.31,161,-167,-47
  1512178915,0.0294,0.0073,0.3591,128.91,-193.05,945.25,179,-185,-33
  1512178915,-0.0180,0.0100,0.3507,68.18,-212.40,975.28,179,-185,-33
  1512178915,0.0152,0.0032,0.3414,82.46,-176.33,980.90,179,-185,-33
  1512178915,0.0196,0.0076,0.3477,31.86,-162.54,984.92,179,-185,-33
  1512178915,0.0527,0.0025,0.3459,62.01,-165.28,1045.47,175,-178,-54
  1512178915,0.0654,0.0084,0.3535,98.63,-156.13,895.63,175,-178,-54
  1512178915,0.0602,0.0048,0.3491,67.93,-163.57,1013.85,175,-178,-54
  1512178915,0.0417,0.0043,0.3462,102.54,-173.77,988.89,175,-178,-54
  1512178915,0.0166,-0.0087,0.3522,86.06,-212.71,983.03,175,-178,-54
  1512178915,0.0185,-0.0065,0.3582,97.60,-224.98,971.31,180,-176,-49
  1512178915,0.0309,-0.0047,0.3559,107.97,-205.32,985.35,180,-176,-49
  1512178915,0.0675,-0.0154,0.3457,37.29,-142.40,1118.77,180,-176,-49
  1512178915,0.0611,-0.0144,0.3467,82.52,-162.54,1024.11,180,-176,-49
  1512178915,0.0766,-0.0105,0.3493,84.47,-157.41,1015.69,191,-193,-52
  1512178915,0.0606,-0.0210,0.3505,37.48,-144.90,1024.72,191,-193,-52
  1512178915,0.0475,-0.0230,0.3554,69.52,-175.42,974.91,191,-193,-52
  1512178915,0.0373,-0.0133,0.3645,82.76,-184.45,942.69,191,-193,-52
  1512178915,0.0531,-0.0154,0.3593,13.24,-153.93,1002.99,191,-193,-52
  1512178915,0.0337,-0.0083,0.3625,91.92,-190.31,944.15,202,-193,-38
  1512178915,0.0153,-0.0132,0.3587,65.55,-201.05,1012.82,202,-193,-38
  1512178915,0.0007,-0.0249,0.3610,105.04,-143.19,990.05,202,-193,-38
  1512178915,-0.0012,-0.0176,0.3609,148.07,-193.73,1014.83,202,-193,-38
  1512178915,0.0133,-0.0093,0.3654,122.31,-222.60,1007.51,202,-193,-38
  1512178915,0.0365,-0.0142,0.3583,100.77,-215.88,991.09,205,-197,-38
  1512178915,0.0254,-0.0209,0.3609,88.75,-204.96,1011.17,205,-197,-38
  1512178916,0.0214,-0.0194,0.3550,87.04,-216.98,974.43,205,-197,-38
  1512178916,0.0049,-0.0154,0.3538,73.73,-172.97,966.25,205,-197,-38
  1512178916,0.0021,-0.0124,0.3597,105.47,-188.48,983.64,202,-197,-42
  1512178916,0.0125,-0.0157,0.3619,82.40,-188.54,940.00,202,-197,-42
  1512178916,0.0326,-0.0221,0.3598,101.81,-185.73,993.96,202,-197,-42
  1512178916,0.0145,-0.0049,0.3601,129.58,-195.62,930.66,202,-197,-42
  1512178916,0.0262,-0.0091,0.3587,118.29,-231.14,980.65,202,-197,-42
  1512178916,0.0254,-0.0237,0.3672,127.56,-221.31,981.93,219,-190,-35
  1512178916,0.0377,-0.0123,0.3590,108.76,-185.42,1006.71,219,-190,-35
  1512178916,0.0352,-0.0121,0.3615,120.00,-180.36,966.67,219,-190,-35
  1512178916,0.0117,-0.0023,0.3575,127.69,-166.38,970.95,219,-190,-35
  1512178916,0.0162,0.0013,0.3599,111.76,-158.87,987.79,219,-190,-35
  1512178916,-0.0043,0.0057,0.3581,137.27,-216.25,945.92,242,-206,-44
  1512178916,-0.0107,0.0033,0.3589,127.38,-211.36,956.54,242,-206,-44
  1512178916,-0.0176,-0.0083,0.3501,83.44,-182.19,962.83,242,-206,-44
  1512178916,0.0181,0.0009,0.3465,91.67,-152.47,989.14,242,-206,-44
  1512178916,0.0186,0.0003,0.3414,98.45,-203.19,1002.32,254,-197,-52
  1512178916,0.0103,0.0049,0.3414,113.28,-184.51,994.51,254,-197,-52
  1512178916,0.0250,0.0158,0.3414,134.40,-131.10,998.17,254,-197,-52
  1512178916,0.0296,0.0178,0.3398,126.83,-152.53,1035.64,254,-197,-52
  1512178916,0.0233,0.0100,0.3392,144.71,-124.69,983.95,254,-197,-52
  1512178916,0.0121,0.0080,0.3380,127.69,-94.54,977.29,247,-215,-59
  1512178916,0.0289,0.0040,0.3344,106.69,-97.53,1013.43,247,-215,-59
  1512178916,0.0581,-0.0029,0.3354,145.57,-137.70,981.93,247,-215,-59
  1512178916,0.0123,-0.0067,0.3281,133.18,-116.52,989.01,247,-215,-59
  1512178916,0.0537,-0.0067,0.3193,83.07,-122.99,1071.04,247,-215,-59
  1512178916,0.0329,-0.0160,0.3204,106.57,-87.59,1042.42,270,-209,-60
  1512178916,0.0636,-0.0121,0.3123,133.24,-138.06,1062.56,270,-209,-60
  1512178916,0.0459,-0.0156,0.3164,145.02,-154.48,1049.74,270,-209,-60
  1512178916,0.0395,-0.0109,0.3164,144.29,-96.62,973.39,270,-209,-60
  1512178916,-0.0353,0.0045,0.3156,170.17,-160.89,997.01,270,-209,-67
  1512178916,-0.0087,0.0112,0.3077,188.11,-170.17,1035.10,270,-209,-67
  1512178916,0.0044,0.0068,0.3103,189.27,-120.00,944.40,270,-209,-67
  1512178916,0.0029,0.0092,0.2991,152.95,-185.00,952.94,270,-209,-67
  1512178916,0.0354,-0.0008,0.2959,143.07,-130.43,1007.45,270,-209,-67
  1512178916,0.0316,0.0052,0.2975,151.79,-128.78,997.68,286,-211,-49
  1512178916,0.0107,0.0045,0.3029,94.91,-125.43,1010.13,286,-211,-49
  1512178917,0.0565,0.0009,0.3049,122.44,-60.24,918.27,286,-211,-49
  1512178917,0.0792,0.0162,0.2963,153.14,-121.46,1036.99,286,-211,-49
  1512178917,0.0462,0.0226,0.2988,110.90,-152.65,1005.68,286,-208,-55
  1512178917,0.0079,0.0189,0.2959,141.30,-132.57,966.31,286,-208,-55
  1512178917,0.0027,0.0154,0.2939,123.84,-114.50,997.92,286,-208,-55
  1512178917,0.0104,0.0064,0.2940,109.74,-114.62,987.55,286,-208,-55
  1512178917,0.0574,-0.0076,0.2921,104.13,-65.06,977.11,286,-208,-55
  1512178917,0.1028,-0.0055,0.2838,166.14,-82.64,1036.25,288,-202,-60
  1512178917,0.0587,-0.0100,0.2894,105.35,-115.17,1006.65,288,-202,-60
  1512178917,0.0253,-0.0037,0.2911,120.30,-92.53,961.55,288,-202,-60
  1512178917,0.0429,-0.0053,0.2783,148.56,-132.63,987.92,288,-202,-60
  1512178917,0.0802,-0.0150,0.2728,154.05,-93.63,985.17,288,-202,-60
  1512178917,0.0876,-0.0196,0.2768,125.79,-144.41,947.63,307,-229,-76
  1512178917,0.0181,-0.0020,0.2800,107.12,-133.54,974.37,307,-229,-76
  1512178917,0.0173,-0.0020,0.2826,110.90,-101.93,875.18,307,-229,-76
  1512178917,-0.0169,-0.0043,0.2855,111.57,-119.08,997.68,307,-229,-76
  1512178917,0.0164,-0.0051,0.2827,136.17,-102.48,996.34,309,-213,-57
  1512178917,0.0317,0.0036,0.2787,178.83,-144.35,978.88,309,-213,-57
  1512178917,0.0004,0.0005,0.2783,124.33,-140.08,978.94,309,-213,-57
  1512178917,-0.0197,-0.0045,0.2795,125.24,-142.76,962.22,309,-213,-57
  1512178917,0.0640,-0.0248,0.2771,135.19,-114.14,1000.37,309,-213,-57
  1512178917,0.0814,-0.0330,0.2704,133.00,-128.60,1046.33,314,-211,-59
  1512178917,0.0329,-0.0197,0.2706,131.35,-110.78,970.40,314,-211,-59
  1512178917,0.0249,-0.0025,0.2744,123.11,-88.75,988.40,314,-211,-59
  1512178917,0.0318,0.0009,0.2712,115.91,-145.57,1036.32,314,-211,-59
  1512178917,0.0577,0.0092,0.2679,146.06,-126.83,1026.18,314,-211,-59
  1512178917,0.0413,0.0095,0.2787,157.17,-116.09,947.20,323,-209,-57
  1512178917,0.0148,0.0100,0.2722,122.92,-104.13,1002.69,323,-209,-57
  1512178917,0.0423,0.0120,0.2767,139.16,-91.92,963.44,323,-209,-57
  1512178917,-0.0115,0.0265,0.2768,105.41,-121.40,958.31,323,-209,-57
  1512178917,-0.0009,0.0268,0.2798,134.77,-108.58,1033.57,323,-213,-60
  1512178917,0.0202,0.0250,0.2774,86.24,-112.79,966.31,323,-213,-60
  1512178917,0.0280,0.0272,0.2780,91.19,-91.49,943.54,323,-213,-60
  1512178917,0.0376,0.0261,0.2687,126.71,-124.27,969.85,323,-213,-60
  1512178917,0.0305,0.0297,0.2700,162.41,-136.96,965.52,323,-213,-60
  1512178917,0.0743,0.0193,0.2659,156.86,-124.21,950.81,326,-199,-71
  1512178917,0.0924,0.0216,0.2691,156.37,-112.55,1000.31,326,-199,-71
  1512178917,0.0706,0.0284,0.2670,115.36,-157.96,1004.46,326,-199,-71
  1512178918,0.0551,0.0224,0.2722,111.27,-80.81,997.68,326,-199,-71
  1512178918,0.0679,0.0218,0.2751,106.20,-92.83,988.34,326,-199,-71
  1512178918,0.0803,0.0233,0.2756,106.75,-61.83,988.65,351,-199,-57
  1512178918,0.0583,0.0218,0.2779,145.51,-111.02,1049.26,351,-199,-57
  1512178918,0.0317,0.0113,0.2792,144.35,-94.54,1019.71,351,-199,-57
  1512178918,0.0134,0.0029,0.2830,77.33,-89.36,1001.71,351,-199,-57
  1512178918,0.0475,-0.0011,0.2736,122.38,-70.43,1029.85,344,-195,-64
  1512178918,0.0423,-0.0045,0.2700,108.03,-125.85,1029.36,344,-195,-64
  1512178918,0.0338,-0.0020,0.2625,143.31,-85.82,1081.18,344,-195,-64
  1512178918,0.0399,-0.0051,0.2626,102.17,-92.47,1079.10,344,-195,-64
  1512178918,0.0474,-0.0108,0.2586,70.80,-68.18,1026.55,344,-195,-64
  1512178918,0.0206,0.0103,0.2626,126.46,-94.24,1010.31,333,-192,-71
  1512178918,0.0589,0.0001,0.2641,99.85,-73.97,1027.47,333,-192,-71
  1512178918,0.0222,-0.0025,0.2696,84.35,-73.55,1011.17,333,-192,-71
  1512178918,0.0120,-0.0003,0.2722,115.97,-67.38,965.03,333,-192,-71
  1512178918,0.0445,0.0064,0.2662,102.05,-95.64,1035.71,333,-192,-71
  1512178918,0.0714,-0.0057,0.2739,126.95,-71.47,916.32,349,-208,-72
  1512178918,0.0567,-0.0032,0.2686,103.88,-105.29,1049.01,349,-208,-72
  1512178918,0.0373,0.0025,0.2692,134.22,-81.60,1032.71,349,-208,-72
  1512178918,-0.0346,0.0096,0.2735,98.39,-132.45,940.67,349,-208,-72
  1512178918,-0.0510,0.0033,0.2692,105.22,-106.32,961.61,363,-200,-76
  1512178918,-0.0341,0.0041,0.2631,117.31,-89.17,997.01,363,-200,-76
  1512178918,0.0029,0.0075,0.2676,108.58,-134.22,976.32,363,-200,-76
  1512178918,-0.0091,0.0112,0.2706,113.53,-93.81,999.82,363,-200,-76
  1512178918,-0.0486,0.0220,0.2788,164.79,-99.30,985.17,363,-200,-76
  1512178918,-0.0800,0.0254,0.2796,135.50,-179.08,978.58,376,-199,-71
  1512178918,-0.0035,-0.0043,0.2851,159.18,-111.27,941.47,376,-199,-71
  1512178918,-0.0366,-0.0067,0.2691,104.98,-103.70,1026.43,376,-199,-71
  1512178918,0.0127,-0.0125,0.2756,113.46,-113.83,969.60,376,-199,-71
  1512178918,-0.0373,0.0041,0.2820,103.64,-114.20,934.02,376,-199,-71
  1512178918,0.0089,-0.0039,0.2840,123.72,-96.44,958.50,377,-197,-62
  1512178918,0.0585,-0.0172,0.2779,119.51,-127.38,1040.10,377,-197,-62
  1512178918,0.0598,-0.0241,0.2763,153.26,-111.02,1027.71,377,-197,-62
  1512178918,0.0502,-0.0204,0.2860,131.84,-101.20,992.07,377,-197,-62
  1512178918,0.0009,-0.0097,0.2848,142.15,-138.73,982.67,400,-185,-64
  1512178918,-0.0024,-0.0168,0.2906,134.22,-103.09,1009.46,400,-185,-64
  1512178918,0.0017,-0.0190,0.2891,155.21,-144.04,1029.60,400,-185,-64
  1512178918,0.0016,-0.0153,0.2941,148.19,-85.21,998.29,400,-185,-64
  1512178919,-0.0192,0.0019,0.2956,145.08,-200.32,1024.11,400,-185,-64
  1512178919,-0.0037,0.0004,0.2972,170.17,-118.47,992.98,395,-193,-59
  1512178919,0.0105,-0.0035,0.3017,143.86,-161.44,965.33,395,-193,-59
  1512178919,0.0288,-0.0092,0.2984,142.76,-126.22,984.56,395,-193,-59
  1512178919,0.0433,-0.0172,0.2989,119.51,-128.66,1014.40,395,-193,-59
  1512178919,0.0522,-0.0103,0.2996,112.49,-111.69,970.28,400,-181,-50
  1512178919,0.0703,0.0096,0.2975,122.50,-125.43,1013.12,400,-181,-50
  1512178919,0.0418,0.0229,0.3085,148.38,-164.06,1005.49,400,-181,-50
  1512178919,0.0008,0.0280,0.3182,164.25,-161.38,966.80,400,-181,-50
  1512178919,-0.0064,0.0286,0.3209,155.76,-157.84,932.74,400,-181,-50
  1512178919,-0.0032,0.0277,0.3147,127.44,-142.09,986.69,402,-176,-55
  1512178919,0.0680,0.0146,0.3096,123.47,-104.19,1025.21,402,-176,-55
  1512178919,0.0290,0.0075,0.3123,77.58,-136.90,1025.51,402,-176,-55
  1512178919,-0.0013,0.0201,0.3212,104.37,-114.81,1024.48,402,-176,-55
  1512178919,0.0326,0.0158,0.3200,100.40,-159.73,1019.04,402,-176,-55
  1512178919,0.0341,0.0048,0.3159,89.36,-96.19,946.04,421,-181,-54
  1512178919,0.0389,-0.0008,0.3117,105.22,-118.96,992.07,421,-181,-54
  1512178919,0.0390,-0.0145,0.3136,75.68,-128.78,1018.43,421,-181,-54
  1512178919,0.0652,-0.0214,0.3077,66.71,-74.16,1035.89,421,-181,-54
  1512178919,0.0449,-0.0092,0.3164,70.43,-144.53,1048.89,428,-163,-44
  1512178919,0.0485,-0.0079,0.3168,141.60,-89.17,982.54,428,-163,-44
  1512178919,0.0644,0.0001,0.3173,133.48,-143.43,968.69,428,-163,-44
  1512178919,0.0533,-0.0121,0.3200,108.64,-124.76,937.56,428,-163,-44
  1512178919,0.0337,-0.0340,0.3133,86.67,-67.57,1057.56,428,-163,-44
  1512178919,0.0386,-0.0254,0.3092,76.29,-148.25,1041.93,419,-158,-52
  1512178919,0.0245,-0.0172,0.3085,87.28,-103.82,979.80,419,-158,-52
  1512178919,0.0469,-0.0297,0.3166,76.11,-96.19,923.83,419,-158,-52
  1512178919,0.0196,-0.0306,0.3200,70.98,-138.79,919.37,419,-158,-52
  1512178919,0.0341,-0.0356,0.3202,77.15,-87.34,914.79,419,-158,-52
  1512178919,0.0538,-0.0582,0.3155,64.82,-61.34,1044.43,426,-165,-59
  1512178919,0.0296,-0.0565,0.3113,63.23,-91.06,998.96,426,-165,-59
  1512178919,-0.0240,-0.0457,0.3160,47.06,-90.70,975.71,426,-165,-59
  1512178919,-0.0040,-0.0519,0.3170,30.94,-62.13,1025.33,426,-165,-59
  1512178919,0.0551,-0.0547,0.3141,112.12,-118.23,1002.69,446,-167,-33
  1512178919,0.0119,-0.0541,0.3159,93.38,-122.25,962.71,446,-167,-33
  1512178919,-0.0116,-0.0499,0.3522,68.12,-160.77,979.13,446,-167,-33
  1512178919,-0.0009,-0.0469,0.3069,123.05,-127.87,995.06,446,-167,-33
  1512178919,-0.0032,-0.0441,0.3145,127.38,-156.01,1015.99,446,-167,-33
  1512178920,0.0141,-0.0525,0.3153,127.62,-170.17,997.62,442,-163,-54
  1512178920,0.0113,-0.0529,0.3129,107.30,-162.41,970.64,442,-163,-54
  1512178920,0.0033,-0.0598,0.3113,94.18,-168.52,983.46,442,-163,-54
  1512178920,0.0201,-0.0509,0.3112,91.37,-141.11,996.89,442,-163,-54
  1512178920,0.0871,-0.0344,0.3041,165.22,-110.60,1102.23,451,-162,-52
  1512178920,0.0844,-0.0036,0.3033,179.20,-143.37,1061.22,451,-162,-52
  1512178920,0.0899,0.0242,0.3005,170.41,-166.99,986.39,451,-162,-52
  1512178920,0.0891,0.0450,0.3017,169.13,-176.33,1028.44,451,-162,-52
  1512178920,0.0679,0.0493,0.3159,126.71,-186.58,1019.71,451,-162,-52
  1512178920,0.0172,0.0340,0.3157,87.65,-197.27,909.24,472,-137,-45
  1512178920,0.0149,0.0168,0.3218,83.31,-153.08,930.85,472,-137,-45
  1512178920,0.0108,0.0048,0.3250,52.31,-179.69,911.01,472,-137,-45
  1512178920,0.0047,-0.0140,0.3312,33.02,-150.57,894.23,472,-137,-45
  1512178920,0.0214,-0.0394,0.3317,48.10,-171.08,953.19,472,-137,-45
  1512178920,0.0025,-0.0610,0.3289,77.03,-215.15,978.21,467,-156,-47
  1512178920,0.0084,-0.0736,0.3166,83.86,-235.05,974.85,467,-156,-47
  1512178920,-0.0108,-0.0490,0.3105,89.72,-229.31,944.76,467,-156,-47
  1512178920,0.0089,-0.0241,0.3025,93.38,-199.04,958.13,467,-156,-47
  1512178920,-0.0142,-0.0325,0.3012,99.85,-113.28,1022.09,486,-137,-62
  1512178920,-0.0277,-0.0366,0.3024,122.62,-52.12,1104.61,486,-137,-62
  1512178920,-0.0655,-0.0530,0.3096,34.55,-196.29,1071.72,486,-137,-62
  1512178920,-0.0867,-0.0555,0.3226,101.44,-117.49,897.28,486,-137,-62
  1512178920,-0.0687,-0.0401,0.3322,33.69,-206.05,976.44,486,-137,-62
  1512178920,0.0093,-0.0189,0.3282,94.18,-190.98,993.10,493,-126,-55
  1512178920,0.0321,-0.0216,0.3494,110.23,-221.44,966.74,493,-126,-55
  1512178920,0.0149,-0.0334,0.3450,114.26,-282.65,962.89,493,-126,-55
  1512178920,-0.0226,-0.0233,0.3481,118.65,-232.79,887.08,493,-126,-55
  1512178920,0.0069,-0.0190,0.3634,91.43,-252.99,994.87,493,-126,-55
  1512178920,-0.0096,-0.0156,0.3417,120.97,-223.02,988.71,502,-132,-67
  1512178920,-0.0103,-0.0185,0.3218,81.18,-182.86,999.27,502,-132,-67
  1512178920,-0.0132,-0.0238,0.3357,75.68,-242.43,998.78,502,-132,-67
  1512178920,0.0028,-0.0334,0.3430,51.76,-183.78,1004.76,502,-132,-67
  1512178920,-0.0111,-0.0196,0.3479,72.88,-237.79,1014.53,520,-111,-64
  1512178920,0.0056,-0.0233,0.3455,93.81,-279.42,1040.83,520,-111,-64
  1512178920,-0.0003,-0.0145,0.3370,119.45,-257.75,1003.48,520,-111,-64
  1512178920,0.0123,-0.0248,0.3389,85.88,-258.30,1047.42,520,-111,-64
  1512178920,0.0043,-0.0232,0.3353,97.72,-241.94,963.56,520,-111,-64
  1512178921,-0.0273,-0.0173,0.3390,93.02,-271.91,928.65,520,-96,-57
  1512178921,-0.0047,-0.0153,0.3378,88.87,-215.03,976.38,520,-96,-57
  1512178921,-0.0005,-0.0150,0.3421,30.27,-243.53,986.82,520,-96,-57
  1512178921,0.0254,-0.0133,0.3434,64.21,-201.35,1003.60,520,-96,-57
  1512178921,0.0236,-0.0044,0.3386,103.27,-289.67,1022.03,520,-96,-57
  1512178921,0.0340,-0.0156,0.3426,171.26,-243.84,1140.75,520,-107,-60
  1512178921,0.0775,-0.0262,0.3487,114.32,-299.38,1058.17,520,-107,-60
  1512178921,0.1386,-0.0212,0.3683,95.76,-292.36,1025.63,520,-107,-60
  1512178921,0.1119,-0.0208,0.3332,103.52,-286.99,945.31,520,-107,-60
  1512178921,0.0991,-0.0105,0.3358,35.40,-269.53,942.26,528,-88,-62
  1512178921,0.0960,0.0039,0.3435,22.58,-196.90,946.35,528,-88,-62
  1512178921,0.0276,0.0117,0.3577,51.39,-214.78,852.66,528,-88,-62
  1512178921,-0.0023,0.0051,0.3543,32.29,-175.17,939.64,528,-88,-62
  1512178921,-0.0256,0.0097,0.3594,67.14,-185.85,989.93,528,-88,-62
  1512178921,-0.0356,0.0111,0.3589,9.70,-206.60,967.04,535,-105,-66
  1512178921,-0.0365,0.0087,0.3534,50.72,-190.31,1028.32,535,-105,-66
  1512178921,-0.0498,0.0137,0.3507,80.57,-241.21,1016.66,535,-105,-66
  1512178921,-0.0161,0.0041,0.3393,67.32,-227.66,1046.20,535,-105,-66
  1512178921,-0.0101,0.0075,0.3337,134.03,-261.29,1055.18,534,-86,-71
  1512178921,-0.0201,-0.0061,0.3332,52.98,-243.53,1052.31,534,-86,-71
  1512178921,-0.0228,-0.0027,0.3302,56.58,-259.28,990.17,534,-86,-71
  1512178921,-0.0083,-0.0105,0.3354,47.30,-226.50,1012.15,534,-86,-71
  1512178921,-0.0202,-0.0055,0.3286,79.90,-286.19,998.78,534,-86,-71
  1512178921,-0.0250,-0.0053,0.3298,65.19,-273.68,991.33,535,-84,-55
  1512178921,-0.0130,0.0081,0.3272,91.25,-289.00,985.66,535,-84,-55
  1512178921,-0.0072,-0.0109,0.3252,67.08,-222.17,1082.09,535,-84,-55
  1512178921,-0.0145,-0.0320,0.3201,57.07,-192.02,1058.29,535,-84,-55
  1512178921,-0.0186,-0.0374,0.3198,22.09,-217.59,994.93,535,-84,-55
  1512178921,0.0352,-0.0402,0.3178,180.66,-143.80,1118.71,546,-63,-66
  1512178921,-0.0141,-0.0680,0.3304,-39.43,-240.60,1066.89,546,-63,-66
  1512178921,-0.0360,-0.0467,0.3683,109.13,-185.36,820.86,546,-63,-66
  1512178921,0.0734,-0.0240,0.4131,26.98,-320.86,907.47,546,-63,-66
  1512178921,-0.0646,0.0061,0.3890,153.02,-254.94,889.95,556,-42,-66
  1512178921,0.0113,-0.0121,0.3758,87.95,-276.92,891.78,556,-42,-66
  1512178921,0.0048,0.0280,0.3890,110.60,-292.11,935.36,556,-42,-66
  1512178921,0.0180,0.0333,0.3338,107.60,-302.43,985.35,556,-42,-66
  1512178921,0.0068,0.0365,0.3132,107.73,-249.94,1015.69,556,-42,-66
  1512178921,0.0273,0.0411,0.3045,87.10,-243.77,1041.99,556,-31,-66
  1512178922,0.0334,0.0441,0.2987,49.13,-289.06,1048.58,556,-31,-66
  1512178922,0.0226,0.0465,0.2952,78.67,-253.36,993.47,556,-31,-66
  1512178922,0.0238,0.0437,0.2903,87.65,-236.76,1028.02,556,-31,-66
  1512178922,0.0200,0.0329,0.2854,66.47,-259.46,1001.59,556,-31,-66
  1512178922,0.0202,0.0306,0.2846,43.95,-275.63,1010.31,564,-24,-72
  1512178922,0.0244,0.0289,0.2782,55.36,-209.11,996.70,564,-24,-72
  1512178922,0.0232,0.0228,0.2746,31.68,-213.07,1018.68,564,-24,-72
  1512178922,0.0309,0.0172,0.2722,63.42,-228.64,976.99,564,-24,-72
  1512178922,0.0093,0.0244,0.2698,52.80,-214.17,928.04,569,-15,-67
  1512178922,0.0204,0.0430,0.2577,51.33,-242.55,928.77,569,-15,-67
  1512178922,0.0201,0.0342,0.2491,65.55,-204.83,1019.10,569,-15,-67
  1512178922,0.0256,0.0350,0.2410,52.80,-197.33,1009.09,569,-15,-67
  1512178922,0.0370,0.0354,0.2380,32.53,-211.12,1015.20,569,-15,-67
  1512178922,0.0313,0.0430,0.2354,62.68,-203.43,989.26,564,-21,-62
  1512178922,0.0341,0.0527,0.2294,29.66,-251.22,1018.55,564,-21,-62
  1512178922,0.0479,0.0382,0.2238,45.72,-196.72,1054.32,564,-21,-62
  1512178922,0.0320,0.0438,0.2210,44.25,-209.78,976.38,564,-21,-62
  1512178922,0.0314,0.0306,0.2108,16.85,-182.74,944.34,564,-21,-62
  1512178922,0.0398,0.0266,0.2047,22.83,-173.34,1081.24,553,-10,-55
  1512178922,0.0222,0.0253,0.1983,14.28,-194.89,1031.49,553,-10,-55
  1512178922,0.0281,0.0237,0.1904,10.86,-159.91,1058.72,553,-10,-55
  1512178922,0.0341,0.0228,0.1834,13.79,-208.98,1055.73,553,-10,-55
  1512178922,0.0395,0.0200,0.1783,22.22,-167.24,1051.57,562,-8,-60
  1512178922,0.0314,0.0161,0.1702,21.79,-174.13,1030.27,562,-8,-60
  1512178922,0.0197,0.0129,0.1621,26.67,-202.94,963.50,562,-8,-60
  1512178922,0.0129,0.0130,0.1553,26.55,-220.58,955.75,562,-8,-60
  1512178922,0.0021,0.0157,0.1429,-2.81,-170.17,915.16,562,-8,-60
  1512178922,0.0130,0.0123,0.1368,-15.32,-183.84,995.12,555,19,-54
  1512178922,0.0182,0.0080,0.1305,-11.11,-139.77,995.18,555,19,-54
  1512178922,-0.0069,0.0051,0.1285,5.74,-150.57,979.31,555,19,-54
  1512178922,-0.0001,0.0085,0.1245,-1.83,-152.04,973.33,555,19,-54
  1512178922,0.0031,0.0107,0.1188,23.01,-172.79,1045.47,555,19,-54
  1512178922,-0.0125,0.0035,0.1120,-4.27,-187.32,1010.07,551,8,-57
  1512178922,-0.0051,0.0099,0.1057,9.34,-186.65,1016.05,551,8,-57
  1512178922,-0.0049,0.0158,0.1041,14.77,-168.82,1057.50,551,8,-57
  1512178922,0.0091,0.0385,0.0943,62.44,-204.47,1041.56,551,8,-57
  1512178922,-0.0140,0.0181,0.0976,29.91,-270.32,987.61,562,15,-47
  1512178922,-0.0213,0.0463,0.0823,37.90,-225.89,836.18,562,15,-47
  1512178923,0.0292,0.0461,0.0811,43.33,-249.63,1054.50,562,15,-47
  1512178923,0.0301,0.0349,0.0727,19.04,-184.45,934.94,562,15,-47
  1512178923,0.0217,0.0435,0.0663,39.67,-172.00,1029.91,562,15,-47
  1512178923,0.0318,0.0358,0.0622,-82.28,-145.94,986.33,564,24,-49
  1512178923,0.0104,0.0193,0.0611,-25.27,-112.92,1046.81,564,24,-49
  1512178923,0.0334,0.0302,0.0489,19.04,-161.13,1092.47,564,24,-49
  1512178923,0.0162,0.0337,0.0470,25.45,-113.16,1068.42,564,24,-49
  1512178923,0.0322,0.0342,0.0372,24.17,-185.55,1047.42,565,15,-54
  1512178923,0.0293,0.0442,0.0270,31.86,-158.57,1038.57,565,15,-54
  1512178923,0.0184,0.0435,0.0198,8.24,-185.24,1018.80,565,15,-54
  1512178923,0.0119,0.0533,0.0162,-19.17,-166.02,1045.78,565,15,-54
  1512178923,0.0125,0.0485,0.0133,7.69,-127.93,1018.55,565,15,-54
  1512178923,0.0105,0.0571,0.0120,-68.05,-132.57,996.22,565,47,-54
  1512178923,0.0233,0.0643,0.0107,-16.91,-97.90,947.75,565,47,-54
  1512178923,-0.0142,0.0660,0.0117,-30.94,-104.98,939.21,565,47,-54
  1512178923,-0.0001,0.0569,0.0057,-24.05,-120.42,1010.62,565,47,-54
  1512178923,-0.0073,0.0522,0.0025,-39.49,-137.82,960.33,565,47,-54
  1512178923,0.0071,0.0519,-0.0029,-30.52,-161.25,897.89,558,33,-64
  1512178923,0.0314,0.0350,-0.0144,-1.16,-133.12,1178.96,558,33,-64
  1512178923,0.0201,0.0197,-0.0005,1.71,-74.16,1073.67,558,33,-64
  1512178923,0.0578,0.0100,-0.0349,-19.47,-98.63,1152.04,558,33,-64
  1512178923,-0.0060,-0.0019,-0.0140,-61.34,-36.19,1011.41,548,22,-64
  1512178923,0.0001,0.0162,-0.0284,-39.61,-106.75,931.76,548,22,-64
  1512178923,0.0506,0.0049,-0.0318,-68.24,-67.50,1125.73,548,22,-64
  1512178923,-0.0053,0.0172,-0.0314,-12.39,-97.53,965.33,548,22,-64
  1512178923,-0.0015,0.0068,-0.0169,-18.68,-179.75,978.64,548,22,-64
  1512178923,0.0109,0.0154,-0.0224,26.92,-198.00,935.67,549,28,-62
  1512178923,-0.0123,0.0012,-0.0206,-55.48,-137.76,942.26,549,28,-62
  1512178923,0.0056,-0.0036,-0.0104,-49.87,-166.20,1019.23,549,28,-62
  1512178923,0.0028,0.0081,-0.0196,-7.08,-116.52,1032.78,549,28,-62
  1512178923,0.0115,-0.0189,-0.0176,-59.69,-116.76,1048.58,549,28,-62
  1512178923,0.0200,-0.0184,-0.0341,22.22,-86.61,1105.71,556,7,-79
  1512178923,0.0276,-0.0059,-0.0320,-13.06,-128.42,1040.59,556,7,-79
  1512178923,0.0486,-0.0037,-0.0344,-10.44,-159.42,1076.35,556,7,-79
  1512178923,0.0419,-0.0043,-0.0341,46.08,-160.71,1011.05,556,7,-79
  1512178923,0.0425,0.0160,-0.0361,56.27,-166.99,974.49,569,15,-67
  1512178923,0.0466,-0.0081,-0.0328,-29.42,-140.20,1059.08,569,15,-67
  1512178923,0.0336,-0.0052,-0.0320,1.71,-117.86,961.61,569,15,-67
  1512178924,0.0465,-0.0041,-0.0344,-78.92,-133.12,1029.97,569,15,-67
  1512178924,0.0589,0.0184,-0.0378,-12.70,-131.96,916.99,569,15,-67
  1512178924,0.0844,0.0407,-0.0405,13.18,-113.22,1001.71,562,8,-77
  1512178924,0.0555,0.0200,-0.0397,-75.01,-77.58,1041.20,562,8,-77
  1512178924,0.0415,-0.0024,-0.0399,-38.27,-101.50,1004.46,562,8,-77
  1512178924,0.0087,-0.0081,-0.0361,-15.44,-86.18,910.10,562,8,-77
  1512178924,0.0162,-0.0077,-0.0383,-81.91,-118.84,972.47,562,8,-77
  1512178924,0.0321,-0.0168,-0.0450,-36.68,-102.60,1003.11,553,-3,-82
  1512178924,0.0133,-0.0258,-0.0450,-51.70,-115.78,1018.19,553,-3,-82
  1512178924,0.0178,-0.0174,-0.0490,-6.77,-146.42,990.72,553,-3,-82
  1512178924,0.0204,-0.0180,-0.0489,-35.28,-112.30,1007.87,553,-3,-82
  1512178924,0.0256,-0.0193,-0.0525,-40.53,-95.21,1015.56,558,8,-84
  1512178924,0.0152,-0.0120,-0.0502,-40.71,-107.36,1026.12,558,8,-84
  1512178924,0.0248,-0.0079,-0.0499,-28.75,-119.14,1008.73,558,8,-84
  1512178924,0.0205,-0.0248,-0.0489,-64.94,-61.10,991.76,558,8,-84
  1512178924,0.0161,-0.0217,-0.0471,-58.04,-114.26,1054.87,558,8,-84
  1512178924,0.0337,-0.0149,-0.0473,-24.23,-118.84,1044.31,555,15,-64
  1512178924,0.0293,-0.0129,-0.0485,-35.46,-93.57,988.16,555,15,-64
  1512178924,0.0258,-0.0246,-0.0553,-49.74,-84.96,976.99,555,15,-64
  1512178924,0.0221,-0.0313,-0.0570,-63.66,-95.58,1017.15,555,15,-64
  1512178924,0.0196,-0.0308,-0.0638,-64.82,-86.12,960.27,558,-8,-77
  1512178924,0.0237,-0.0369,-0.0618,-61.95,-23.93,1003.72,558,-8,-77
  1512178924,0.0132,-0.0341,-0.0614,-93.57,-74.10,956.73,558,-8,-77
  1512178924,0.0298,-0.0305,-0.0670,-61.46,-86.91,966.19,558,-8,-77
  1512178924,0.0160,-0.0276,-0.0684,-51.03,-82.34,928.22,558,-8,-77
  1512178924,0.0132,-0.0304,-0.0724,-73.79,-79.65,990.72,546,0,-69
  1512178924,0.0116,-0.0330,-0.0711,-71.23,-66.22,977.91,546,0,-69
  1512178924,0.0000,-0.0216,-0.0730,-45.59,-45.65,954.83,546,0,-69
  1512178924,-0.0057,-0.0277,-0.0766,-43.33,-33.14,987.67,546,0,-69
  1512178924,-0.0101,-0.0260,-0.0799,-5.19,-11.78,1020.81,546,0,-69
  1512178924,-0.0124,-0.0274,-0.0772,3.48,-70.80,990.91,558,-1,-84
  1512178924,-0.0165,-0.0289,-0.0719,27.83,-53.96,954.10,558,-1,-84
  1512178924,-0.0101,-0.0435,-0.0850,-55.36,-51.94,970.70,558,-1,-84
  1512178924,-0.0084,-0.0188,-0.0901,-30.70,-118.71,968.26,558,-1,-84
  1512178924,0.0041,-0.0113,-0.0911,-54.32,-107.36,927.31,560,3,-66
  1512178924,-0.0136,-0.0234,-0.0936,-44.74,-27.83,1010.93,560,3,-66
  1512178924,-0.0019,-0.0218,-0.1005,-26.43,-39.00,1015.50,560,3,-66
  1512178924,-0.0096,-0.0218,-0.0979,-27.71,-37.96,1011.78,560,3,-66
  1512178925,-0.0056,-0.0229,-0.1011,-31.92,-10.62,1028.99,560,3,-66
  1512178925,-0.0137,-0.0192,-0.1033,-28.26,-47.79,1003.48,556,-10,-69
  1512178925,0.0041,-0.0177,-0.1047,-9.22,-51.21,1007.20,556,-10,-69
  1512178925,-0.0081,-0.0280,-0.1044,-18.86,-26.86,1030.82,556,-10,-69
  1512178925,-0.0324,-0.0502,-0.1076,-47.00,4.46,1021.67,556,-10,-69
  1512178925,-0.0182,-0.0435,-0.1099,-27.16,-16.91,928.59,556,-17,-69
  1512178925,-0.0242,-0.0297,-0.1095,-61.28,-5.25,982.73,556,-17,-69
  1512178925,0.0035,-0.0316,-0.1206,-6.41,-13.31,973.51,556,-17,-69
  1512178925,0.0079,-0.0244,-0.1213,23.86,-20.75,1021.91,556,-17,-69
  1512178925,-0.0197,-0.0442,-0.1208,-36.01,-24.78,991.09,556,-17,-69
  1512178925,-0.0302,-0.0533,-0.1246,-36.87,-23.44,960.82,560,-7,-52
  1512178925,-0.0394,-0.0328,-0.1258,-7.26,-39.12,976.93,560,-7,-52
  1512178925,0.0073,-0.0401,-0.1309,-24.41,-33.57,1066.47,560,-7,-52
  1512178925,-0.0202,-0.0389,-0.1292,-32.65,-35.95,949.28,560,-7,-52
  1512178925,-0.0296,-0.0402,-0.1324,11.96,2.50,1067.50,560,-7,-52
  1512178925,-0.0425,-0.0447,-0.1304,-10.86,-40.10,1051.03,548,-15,-47
  1512178925,-0.0338,-0.0160,-0.1269,25.27,-53.04,1026.73,548,-15,-47
  1512178925,-0.0189,0.0123,-0.1333,77.09,-19.53,998.78,548,-15,-47
  1512178925,-0.0100,0.0089,-0.1381,37.54,-36.19,1105.53,548,-15,-47
  1512178925,-0.0457,0.0055,-0.1373,5.68,-64.58,996.70,574,-24,-38
  1512178925,-0.0383,0.0059,-0.1353,22.83,-43.82,990.97,574,-24,-38
  1512178925,-0.0483,0.0009,-0.1348,-17.58,0.31,983.70,574,-24,-38
  1512178925,-0.0361,0.0117,-0.1410,9.95,-36.80,961.79,574,-24,-38
  1512178925,-0.0302,-0.0116,-0.1381,-25.51,15.38,955.57,574,-24,-38
  1512178925,-0.0406,-0.0248,-0.1393,10.93,2.44,930.42,564,0,-35
  1512178925,-0.0290,-0.0224,-0.1369,2.32,2.56,967.22,564,0,-35
  1512178925,-0.0399,-0.0083,-0.1467,9.95,-16.85,957.34,564,0,-35
  1512178925,-0.0256,0.0116,-0.1545,28.08,-52.12,968.38,564,0,-35
  1512178925,-0.0350,-0.0033,-0.1551,-17.64,-43.82,1022.52,564,0,-35
  1512178925,-0.0622,-0.0051,-0.1598,-0.06,-3.11,1000.18,576,-19,-54
  1512178925,-0.0154,-0.0105,-0.1610,-22.40,29.72,1036.25,576,-19,-54
  1512178925,-0.0264,0.0024,-0.1633,-47.00,30.46,1004.64,576,-19,-54
  1512178925,-0.0169,0.0097,-0.1581,-12.08,23.19,1045.23,576,-19,-54
  1512178925,-0.0049,-0.0007,-0.1676,17.52,1.34,1063.84,586,-12,-77
  1512178925,-0.0133,-0.0186,-0.1630,-19.84,5.86,1078.25,586,-12,-77
  1512178925,-0.0353,-0.0084,-0.1652,-47.55,-9.03,966.49,586,-12,-77
  1512178925,-0.0225,-0.0059,-0.1679,-10.38,-26.31,1025.45,586,-12,-77
  1512178926,0.0202,-0.0120,-0.1788,-13.37,-20.32,1067.81,586,-12,-77
  1512178926,0.0169,-0.0146,-0.1844,43.09,-14.95,1006.23,569,-5,-77
  1512178926,0.0177,-0.0156,-0.1882,6.53,-20.26,985.47,569,-5,-77
  1512178926,0.0064,-0.0115,-0.1921,-19.59,-4.21,954.35,569,-5,-77
  1512178926,0.0127,-0.0081,-0.1912,-24.54,25.21,931.03,569,-5,-77
  1512178926,0.0009,0.0053,-0.1915,-7.63,31.01,964.11,569,-5,-77
  1512178926,-0.0125,0.0101,-0.1951,-35.71,-5.43,940.98,571,-28,-76
  1512178926,-0.0385,0.0229,-0.1967,-12.82,-13.12,970.64,571,-28,-76
  1512178926,-0.0369,0.0241,-0.1956,21.18,37.35,936.34,571,-28,-76
  1512178926,-0.0899,0.0302,-0.1904,-52.12,-9.58,955.02,571,-28,-76
  1512178926,-0.0029,0.0156,-0.2083,20.87,22.58,940.61,553,-14,-69
  1512178926,-0.0192,0.0064,-0.2051,2.56,-21.30,1003.97,553,-14,-69
  1512178926,-0.0334,0.0016,-0.2173,-5.80,-8.79,988.53,553,-14,-69
  1512178926,0.0032,-0.0165,-0.2246,-35.58,50.84,1016.05,553,-14,-69
  1512178926,0.0217,-0.0172,-0.2300,-25.88,25.02,1078.98,553,-14,-69
  1512178926,0.0061,-0.0084,-0.2257,-1.53,-5.31,982.73,571,-42,-76
  1512178926,0.0788,-0.0157,-0.2380,27.34,-3.97,1034.91,571,-42,-76
  1512178926,0.0550,-0.0101,-0.2386,-20.51,43.33,1006.71,571,-42,-76
  1512178926,0.0426,-0.0097,-0.2415,-11.78,42.54,990.17,571,-42,-76
  1512178926,-0.0148,0.0103,-0.2422,-6.96,49.56,971.01,571,-42,-76
  1512178926,-0.0221,0.0104,-0.2396,-40.83,73.85,957.40,548,-12,-74
  1512178926,-0.0437,0.0266,-0.2360,-28.26,83.86,987.37,548,-12,-74
  1512178926,-0.0196,0.0288,-0.2513,-23.74,98.39,1133.85,548,-12,-74
  1512178926,-0.0041,0.0270,-0.2529,-43.46,60.97,1066.71,548,-12,-74
  1512178926,-0.0093,0.0186,-0.2471,7.02,73.18,998.05,553,-31,-76
  1512178926,-0.0105,0.0202,-0.2551,-36.80,52.67,1061.77,553,-31,-76
  1512178926,-0.0202,0.0258,-0.2505,13.61,34.55,1011.60,553,-31,-76
  1512178926,-0.0304,0.0306,-0.2487,-23.80,30.21,967.83,553,-31,-76
  1512178926,0.0538,0.0202,-0.2583,15.93,57.07,1049.32,553,-31,-76
  1512178926,0.0543,0.0189,-0.2529,54.69,58.84,998.72,560,-56,-72
  1512178926,0.0679,0.0149,-0.2558,-5.68,28.14,1069.15,560,-56,-72
  1512178926,0.0514,0.0238,-0.2550,-2.50,70.62,1046.33,560,-56,-72
  1512178926,-0.0586,0.0398,-0.2497,-67.32,1.77,1080.44,560,-56,-72
  1512178926,-0.0663,0.0374,-0.2409,-18.31,58.65,898.25,542,-45,-66
  1512178926,-0.0570,0.0579,-0.2462,-7.51,41.14,1046.57,542,-45,-66
  1512178926,-0.0487,0.0569,-0.2494,10.62,-7.20,1090.09,542,-45,-66
  1512178926,-0.0704,0.0558,-0.2478,73.61,-29.11,956.54,542,-45,-66
  1512178926,-0.0606,0.0714,-0.2494,64.76,-15.99,1006.04,542,-45,-66
  1512178927,-0.0399,0.0836,-0.2518,36.93,-63.42,1057.31,542,-52,-79
  1512178927,-0.0141,0.0888,-0.2577,63.72,-22.71,970.52,542,-52,-79
  1512178927,0.0088,0.0874,-0.2553,6.59,-60.12,1068.12,542,-52,-79
  1512178927,0.0515,0.0626,-0.2577,-33.94,24.72,1036.87,542,-52,-79
  1512178927,0.0498,0.0487,-0.2527,-8.48,59.02,1015.14,542,-52,-79
  1512178927,0.0788,0.0228,-0.2541,-11.23,87.16,1019.53,544,-61,-71
  1512178927,0.0907,0.0149,-0.2647,-69.15,87.22,1071.78,544,-61,-71
  1512178927,0.0716,0.0258,-0.2502,-18.37,114.38,1056.34,544,-61,-71
  1512178927,0.0237,0.0150,-0.2634,-29.42,105.71,1041.20,544,-61,-71
  1512178927,0.0437,0.0012,-0.2720,-45.23,60.42,1158.02,549,-66,-55
  1512178927,0.0284,-0.0101,-0.2627,-28.93,76.66,1018.19,549,-66,-55
  1512178927,-0.0005,0.0300,-0.2638,15.63,73.30,1068.30,549,-66,-55
  1512178927,-0.0072,0.0144,-0.2763,-47.30,86.61,1038.51,549,-66,-55
  1512178927,0.0011,0.0043,-0.2912,5.92,53.65,902.89,549,-66,-55
  1512178927,-0.0430,0.0277,-0.2727,-8.61,72.20,1042.54,527,-68,-57
  1512178927,-0.0256,0.0036,-0.2678,-46.57,47.73,993.16,527,-68,-57
  1512178927,-0.1059,0.0297,-0.2674,-4.33,70.50,944.89,527,-68,-57
  1512178927,-0.0461,0.0196,-0.2607,-1.71,12.57,944.40,527,-68,-57
  1512178927,-0.0369,0.0232,-0.2641,-37.48,19.59,984.44,527,-68,-57
  1512178927,-0.0365,0.0205,-0.2659,21.18,32.10,973.63,534,-65,-60
  1512178927,-0.0234,0.0117,-0.2663,-18.13,61.16,1040.22,534,-65,-60
  1512178927,0.0353,-0.0003,-0.2718,-34.91,55.66,1022.77,534,-65,-60
  1512178927,0.0405,0.0162,-0.2747,15.93,30.52,1000.73,534,-65,-60
  1512178927,0.0668,0.0027,-0.2726,6.10,-36.50,978.88,532,-88,-69
  1512178927,0.0782,-0.0111,-0.2771,-12.02,3.72,1003.42,532,-88,-69
  1512178927,0.0730,-0.0071,-0.2727,-15.50,16.48,979.43,532,-88,-69
  1512178927,0.0533,0.0041,-0.2724,0.43,19.17,1012.57,532,-88,-69
  1512178927,0.0350,-0.0033,-0.2662,-54.63,31.56,969.91,532,-88,-69
  1512178927,0.0252,-0.0061,-0.2658,-2.44,31.31,1032.78,530,-86,-81
  1512178927,0.0276,-0.0149,-0.2581,-54.63,82.21,988.59,530,-86,-81
  1512178927,-0.0138,0.0052,-0.2518,-17.21,48.52,982.48,530,-86,-81
  1512178927,-0.0178,0.0003,-0.2487,-0.79,56.52,995.67,530,-86,-81
  1512178927,-0.0080,-0.0004,-0.2522,-8.24,-8.36,1001.22,518,-95,-72
  1512178927,-0.0385,0.0000,-0.2479,-3.42,-8.18,1007.45,518,-95,-72
  1512178927,-0.0397,-0.0140,-0.2467,17.70,35.52,996.95,518,-95,-72
  1512178927,0.0067,-0.0297,-0.2535,-25.94,24.48,1054.69,518,-95,-72
  1512178927,0.0145,-0.0196,-0.2493,-20.75,14.77,983.46,518,-95,-72
  1512178927,-0.0486,0.0076,-0.2406,13.79,-32.41,910.52,520,-96,-67
  1512178928,-0.0442,-0.0019,-0.2345,-0.79,45.78,970.76,520,-96,-67
  1512178928,-0.0658,0.0075,-0.2306,-18.01,13.92,947.75,520,-96,-67
  1512178928,-0.0403,-0.0138,-0.2273,-1.71,14.28,985.78,520,-96,-67
  1512178928,-0.0446,-0.0142,-0.2216,21.48,-20.02,967.41,520,-96,-67
  1512178928,-0.0394,-0.0196,-0.2180,3.17,-16.42,996.09,507,-95,-82
  1512178928,-0.0419,-0.0134,-0.2089,4.94,-28.38,937.56,507,-95,-82
  1512178928,-0.0541,0.0029,-0.2044,15.69,-51.82,965.58,507,-95,-82
  1512178928,-0.0096,0.0008,-0.1992,13.31,-47.55,1000.24,507,-95,-82
  1512178928,-0.0116,-0.0001,-0.1960,21.85,-22.95,989.14,514,-116,-76
  1512178928,0.0144,-0.0016,-0.1912,32.29,-41.32,1014.40,514,-116,-76
  1512178928,-0.0039,0.0117,-0.1844,51.82,-43.33,949.77,514,-116,-76
  1512178928,-0.0081,0.0305,-0.1794,68.54,-31.68,1011.11,514,-116,-76
  1512178928,-0.0117,0.0328,-0.1710,40.28,-3.78,1041.08,514,-116,-76
  1512178928,-0.0172,0.0381,-0.1655,33.75,-17.88,1029.79,504,-123,-76
  1512178928,-0.0156,0.0443,-0.1538,7.51,-36.87,977.72,504,-123,-76
  1512178928,-0.0210,0.0501,-0.1482,38.27,-42.42,973.57,504,-123,-76
  1512178928,0.0224,0.0121,-0.1475,53.22,-21.91,1020.32,504,-123,-76
  1512178928,0.0281,0.0021,-0.1409,26.12,-17.70,1030.58,490,-119,-72
  1512178928,-0.0134,0.0068,-0.1322,2.44,-26.43,972.90,490,-119,-72
  1512178928,-0.0210,0.0025,-0.1248,8.85,-18.43,950.74,490,-119,-72
  1512178928,-0.0248,-0.0095,-0.1213,22.34,-44.80,996.40,490,-119,-72
  1512178928,-0.0206,-0.0169,-0.1174,63.48,-34.91,995.12,490,-119,-72
  1512178928,-0.0209,-0.0005,-0.1128,27.59,-52.49,1023.74,506,-125,-71
  1512178928,-0.0386,0.0081,-0.0997,15.08,-50.11,914.37,506,-125,-71
  1512178928,-0.0730,0.0149,-0.0941,36.74,-97.78,962.04,506,-125,-71
  1512178928,-0.0702,0.0162,-0.0870,78.25,-77.76,1075.62,506,-125,-71
  1512178928,-0.0272,0.0164,-0.0838,80.75,-73.61,1042.18,506,-125,-71
  1512178928,0.0245,0.0136,-0.0752,81.73,-84.41,1055.91,500,-112,-69
  1512178928,-0.0181,0.0297,-0.0634,85.75,-115.72,944.21,500,-112,-69
  1512178928,0.0071,0.0377,-0.0611,104.74,-106.93,1067.81,500,-112,-69
  1512178928,0.0250,0.0364,-0.0506,79.71,-132.81,1121.52,500,-112,-69
  1512178928,0.0152,0.0265,-0.0365,60.91,-89.90,1024.78,500,-112,-69
  1512178928,-0.0184,0.0297,-0.0217,78.92,-113.04,985.78,497,-123,-72
  1512178928,-0.0190,0.0180,-0.0149,55.42,-99.85,978.15,497,-123,-72
  1512178928,0.0016,0.0039,-0.0091,57.31,-88.07,961.61,497,-123,-72
  1512178928,0.0317,-0.0036,0.0008,77.76,-80.57,1023.38,497,-123,-72
  1512178928,0.0260,0.0041,0.0073,80.75,-54.14,1030.58,474,-121,-84
  1512178928,0.0298,0.0236,0.0157,120.54,-109.07,1036.07,474,-121,-84
  1512178929,0.0164,0.0133,0.0257,108.15,-127.93,1011.11,474,-121,-84
  1512178929,0.0053,0.0285,0.0285,120.85,-110.66,968.20,474,-121,-84
  1512178929,0.0233,0.0214,0.0376,92.59,-94.54,997.50,474,-121,-84
  1512178929,0.0349,0.0198,0.0390,62.81,-116.15,1022.28,484,-118,-81
  1512178929,0.0089,0.0296,0.0539,78.80,-60.00,963.13,484,-118,-81
  1512178929,0.0061,0.0266,0.0586,72.14,-121.09,1021.18,484,-118,-81
  1512178929,-0.0055,0.0214,0.0638,66.71,-97.35,1006.04,484,-118,-81
  1512178929,-0.0004,0.0156,0.0692,53.96,-95.46,948.73,499,-111,-71
  1512178929,0.0004,0.0136,0.0719,58.59,-85.08,1011.47,499,-111,-71
  1512178929,-0.0160,0.0095,0.0758,90.09,-101.56,890.14,499,-111,-71
  1512178929,-0.0497,-0.0011,0.0828,51.70,-132.14,903.20,499,-111,-71
  1512178929,-0.0578,-0.0272,0.0882,63.05,-80.32,951.78,499,-111,-71
  1512178929,-0.0426,-0.0318,0.0875,51.76,-122.07,985.53,481,-111,-77
  1512178929,0.0631,-0.0350,0.0834,164.00,-88.20,1117.68,481,-111,-77
  1512178929,0.0322,-0.0216,0.0860,109.74,-203.49,1112.30,481,-111,-77
  1512178929,0.0015,-0.0337,0.1124,156.92,-153.44,1016.17,481,-111,-77
  1512178929,0.0121,-0.0077,0.1125,119.38,-147.64,1069.40,481,-111,-77
  1512178929,0.1270,-0.0032,0.1277,188.60,-113.65,1242.55,500,-95,-76
  1512178929,0.0558,0.0220,0.1256,165.34,-96.68,1049.26,500,-95,-76
  1512178929,0.0511,-0.0051,0.1258,79.71,-83.68,1035.77,500,-95,-76
  1512178929,-0.0029,0.0177,0.1305,54.26,-52.19,1024.66,500,-95,-76
  1512178929,-0.0091,0.0305,0.1390,72.75,-78.55,968.44,500,-95,-76
  1512178929,-0.0229,0.0442,0.1421,129.21,-121.15,1003.05,491,-100,-81
  1512178929,-0.0394,0.0313,0.1503,94.97,-113.89,993.96,491,-100,-81
  1512178929,-0.0309,0.0174,0.1518,125.12,-121.34,966.37,491,-100,-81
  1512178929,-0.0336,-0.0028,0.1553,97.41,-119.32,993.47,491,-100,-81
  1512178929,0.0072,-0.0075,0.1533,138.18,-134.03,1030.27,499,-86,-60
  1512178929,0.0260,-0.0148,0.1598,104.68,-103.52,977.54,499,-86,-60
  1512178929,0.0186,-0.0142,0.1667,78.98,-98.82,987.30,499,-86,-60
  1512178929,0.0348,-0.0222,0.1678,143.01,-114.81,985.66,499,-86,-60
  1512178929,0.0150,-0.0265,0.1759,101.75,-108.64,985.60,499,-86,-60
  1512178929,0.0129,-0.0181,0.1798,133.30,-107.06,971.92,500,-91,-79
  1512178929,-0.0079,-0.0221,0.1908,147.95,-117.74,941.83,500,-91,-79
  1512178929,0.0087,-0.0104,0.1939,120.73,-166.26,995.12,500,-91,-79
  1512178929,-0.0037,0.0060,0.1972,131.23,-161.87,952.82,500,-91,-79
  1512178929,0.0120,0.0033,0.2015,142.09,-171.02,975.40,491,-79,-60
  1512178929,-0.0157,0.0134,0.1991,146.30,-174.44,967.53,491,-79,-60
  1512178929,0.0230,-0.0039,0.2068,133.00,-150.70,989.75,491,-79,-60
  1512178930,-0.0495,0.0178,0.2137,157.53,-159.18,917.66,491,-79,-60
  1512178930,-0.0192,-0.0016,0.2200,133.30,-166.20,964.17,491,-79,-60
  1512178930,-0.0391,0.0080,0.2224,117.13,-98.33,1012.27,499,-79,-84
  1512178930,-0.0129,0.0120,0.2308,133.30,-118.47,991.58,499,-79,-84
  1512178930,-0.0130,0.0073,0.2308,150.82,-125.49,1010.74,499,-79,-84
  1512178930,0.0186,-0.0028,0.2309,159.61,-150.82,1059.63,499,-79,-84
  1512178930,-0.0365,-0.0047,0.2373,124.51,-184.02,988.40,507,-77,-82
  1512178930,0.0112,-0.0129,0.2401,166.63,-177.67,972.41,507,-77,-82
  1512178930,-0.0144,0.0019,0.2316,171.14,-208.62,993.23,507,-77,-82
  1512178930,0.0020,-0.0170,0.2493,154.48,-179.57,1014.71,507,-77,-82
  1512178930,-0.0300,-0.0197,0.2422,161.74,-174.62,980.41,507,-77,-82
  1512178930,0.0047,-0.0406,0.2431,114.69,-106.93,1031.37,514,-66,-72
  1512178930,0.0127,-0.0455,0.2462,134.52,-139.65,971.44,514,-66,-72
  1512178930,0.0107,-0.0262,0.2487,127.69,-125.92,998.23,514,-66,-72
  1512178930,0.0052,-0.0285,0.2575,152.16,-139.95,904.24,514,-66,-72
  1512178930,-0.0475,-0.0260,0.2606,101.75,-188.96,982.42,514,-66,-72
  1512178930,-0.0497,-0.0369,0.2642,121.22,-179.14,947.94,511,-56,-76
  1512178930,-0.0543,-0.0284,0.2678,129.82,-193.85,1002.26,511,-56,-76
  1512178930,-0.0182,-0.0249,0.2715,155.82,-177.80,965.39,511,-56,-76
  1512178930,-0.0605,-0.0128,0.2751,155.82,-194.58,952.82,511,-56,-76
  1512178930,0.0000,-0.0342,0.2732,173.65,-169.80,970.34,513,-61,-64
  1512178930,-0.0302,-0.0341,0.2782,134.46,-147.52,985.17,513,-61,-64
  1512178930,-0.0185,-0.0366,0.2746,130.62,-163.27,977.91,513,-61,-64
  1512178930,-0.0136,-0.0294,0.2803,154.30,-176.09,960.02,513,-61,-64
  1512178930,-0.0095,-0.0258,0.2822,154.66,-180.85,1012.15,513,-61,-64
  1512178930,0.0360,-0.0338,0.2851,168.70,-216.92,1023.62,511,-49,-66
  1512178930,0.0020,-0.0200,0.2906,179.99,-187.32,978.03,511,-49,-66
  1512178930,0.0278,-0.0297,0.2921,154.85,-148.74,988.28,511,-49,-66
  1512178930,0.0173,-0.0136,0.2940,194.03,-178.83,982.60,511,-49,-66
  1512178930,0.0377,-0.0069,0.2985,167.79,-162.72,1011.47,511,-49,-66
  1512178930,0.0507,0.0008,0.3205,169.37,-169.92,991.88,534,-29,-67
  1512178930,0.0130,0.0101,0.3140,192.08,-169.49,965.76,534,-29,-67
  1512178930,0.0306,-0.0092,0.3123,143.07,-174.80,976.62,534,-29,-67
  1512178930,0.0136,-0.0120,0.3123,166.87,-162.41,978.03,534,-29,-67
  1512178930,0.0105,0.0041,0.3218,144.23,-138.49,978.45,525,-28,-76
  1512178930,0.0293,-0.0019,0.3200,124.33,-162.41,977.97,525,-28,-76
  1512178930,0.0241,0.0013,0.3221,151.49,-149.54,988.95,525,-28,-76
  1512178931,0.0542,-0.0154,0.3189,131.41,-139.83,1039.73,525,-28,-76
  1512178931,0.0280,-0.0228,0.3197,111.69,-121.22,1007.63,525,-28,-76
  1512178931,0.0099,-0.0246,0.3210,110.66,-122.92,952.94,520,-22,-74
  1512178931,0.0194,-0.0140,0.3198,179.26,-141.36,1066.96,520,-22,-74
  1512178931,0.0192,-0.0165,0.3230,129.64,-138.67,1005.07,520,-22,-74
  1512178931,-0.0105,-0.0063,0.3250,133.97,-132.57,931.15,520,-22,-74
  1512178931,-0.0028,-0.0108,0.3228,140.20,-108.34,1040.83,520,-22,-74
  1512178931,-0.0471,-0.0061,0.3321,190.37,-194.40,985.78,527,-8,-74
  1512178931,-0.0590,-0.0037,0.3326,183.65,-188.42,1019.29,527,-8,-74
  1512178931,-0.0403,-0.0156,0.3306,146.73,-168.33,987.98,527,-8,-74
  1512178931,-0.0642,0.0003,0.3358,140.87,-195.01,919.49,527,-8,-74
  1512178931,-0.0129,-0.0012,0.3288,155.82,-188.05,964.54,546,-3,-76
  1512178931,-0.0012,0.0184,0.3261,128.05,-203.49,1008.73,546,-3,-76
  1512178931,0.0317,0.0229,0.3278,168.64,-221.37,1009.77,546,-3,-76
  1512178931,0.0021,0.0304,0.3634,157.23,-200.87,978.09,546,-3,-76
  1512178931,0.0635,-0.0256,0.3686,155.70,-182.62,960.88,546,-3,-76
  1512178931,-0.0708,0.0268,0.3936,143.74,-199.22,936.22,551,15,-84
  1512178931,0.0100,0.0057,0.3534,119.20,-194.52,996.09,551,15,-84
  1512178931,0.0052,0.0186,0.3633,91.06,-189.70,932.74,551,15,-84
  1512178931,-0.0019,0.0320,0.3627,151.31,-173.22,1058.35,551,15,-84
  1512178931,0.0365,0.0120,0.3550,115.36,-223.45,1031.62,558,26,-88
  1512178931,-0.0320,0.0085,0.3551,112.67,-215.39,926.45,558,26,-88
  1512178931,-0.0268,-0.0130,0.3694,134.16,-219.24,937.62,558,26,-88
  1512178931,0.0411,-0.0309,0.3630,121.52,-167.24,937.74,558,26,-88
  1512178931,0.0292,-0.0083,0.3585,156.86,-219.79,1105.96,558,26,-88
  1512178931,0.0381,-0.0285,0.3695,154.48,-208.50,1008.79,551,26,-74
  1512178931,-0.1033,0.0317,0.3728,146.30,-233.89,997.07,551,26,-74
  1512178931,0.0695,-0.0304,0.3779,131.71,-219.54,927.61,551,26,-74
  1512178931,0.0434,-0.0003,0.3751,180.42,-227.36,942.38,551,26,-74
  1512178931,0.0145,0.0205,0.3771,140.14,-219.42,1011.72,551,26,-74
  1512178931,0.0161,0.0109,0.3846,138.85,-222.78,1015.14,546,35,-79
  1512178931,0.0462,0.0008,0.3830,105.96,-196.96,985.96,546,35,-79
  1512178931,-0.0011,0.0221,0.3874,100.10,-224.49,969.54,546,35,-79
  1512178931,0.0232,0.0051,0.3991,109.86,-134.28,1060.67,546,35,-79
  1512178931,-0.0125,0.0262,0.4011,129.21,-265.32,1002.32,542,63,-82
  1512178931,-0.0228,0.0336,0.4020,131.23,-221.80,971.80,542,63,-82
  1512178931,0.0222,0.0130,0.4007,108.76,-194.34,999.02,542,63,-82
  1512178931,0.0208,0.0128,0.3976,91.00,-190.98,1086.91,542,63,-82
  1512178932,-0.0204,0.0336,0.4065,140.81,-198.43,934.02,542,63,-82
  1512178932,0.0292,0.0174,0.4021,88.62,-192.57,967.83,555,65,-81
  1512178932,0.0111,0.0065,0.4052,73.91,-232.42,995.73,555,65,-81
  1512178932,-0.0534,0.0365,0.4141,130.25,-201.35,980.65,555,65,-81
  1512178932,0.0383,0.0033,0.4139,110.47,-169.74,1062.87,555,65,-81
  1512178932,0.0337,0.0240,0.4152,120.42,-206.48,984.13,555,65,-81
  1512178932,-0.0481,0.0586,0.4193,155.52,-268.31,891.85,562,72,-91
  1512178932,0.1105,-0.0150,0.4264,120.12,-164.73,973.21,562,72,-91
  1512178932,0.0636,0.0172,0.4152,64.33,-203.49,1072.02,562,72,-91
  1512178932,-0.0088,0.0296,0.4140,101.93,-197.20,959.72,562,72,-91
  1512178932,0.0988,-0.0234,0.4254,132.51,-180.73,960.63,551,86,-84
  1512178932,0.0104,-0.0048,0.4229,33.39,-155.21,992.86,551,86,-84
  1512178932,-0.0724,0.0301,0.4341,89.97,-184.20,973.51,551,86,-84
  1512178932,0.0410,0.0052,0.4356,118.23,-191.35,955.20,551,86,-84
  1512178932,0.0284,0.0154,0.4364,160.58,-217.59,1006.84,551,86,-84
  1512178932,-0.0316,0.0293,0.4362,139.65,-209.90,954.65,571,102,-82
  1512178932,0.0668,-0.0105,0.4385,188.11,-196.41,957.82,571,102,-82
  1512178932,0.0760,-0.0108,0.4349,107.36,-235.66,969.73,571,102,-82
  1512178932,0.0220,-0.0045,0.4437,123.84,-176.88,982.30,571,102,-82
  1512178932,0.0381,0.0015,0.4446,99.37,-192.75,1002.08,555,100,-98
  1512178932,0.0437,0.0089,0.4467,118.65,-225.95,1049.56,555,100,-98
  1512178932,-0.0316,0.0473,0.4541,154.97,-217.59,1032.59,555,100,-98
  1512178932,0.1119,0.0112,0.4490,176.33,-221.68,1047.36,555,100,-98
  1512178932,-0.0053,0.0583,0.4486,162.48,-191.35,1009.52,555,100,-98
  1512178932,0.0555,0.0212,0.4446,136.72,-212.59,1053.10,556,130,-86
  1512178932,0.0076,0.0216,0.4494,128.05,-132.93,952.88,556,130,-86
  1512178932,0.1165,0.0051,0.4432,117.98,-199.28,1036.19,556,130,-86
  1512178932,0.0475,0.0292,0.4486,81.48,-175.42,1030.27,556,130,-86
  1512178932,0.0800,0.0119,0.4474,135.50,-136.29,970.09,556,130,-86
  1512178932,0.0000,0.0546,0.4446,84.41,-205.32,978.52,542,126,-82
  1512178932,0.0336,0.0286,0.4502,67.75,-124.27,921.63,542,126,-82
  1512178932,0.0883,0.0158,0.4445,108.52,-169.86,1055.54,542,126,-82
  1512178932,0.0818,0.0244,0.4421,131.71,-212.28,1019.84,542,126,-82
  1512178932,0.0053,0.0410,0.4426,100.65,-178.53,969.97,541,146,-74
  1512178932,0.0723,0.0043,0.4432,89.17,-166.32,938.11,541,146,-74
  1512178932,0.0619,0.0130,0.4386,79.53,-142.21,1003.05,541,146,-74
  1512178932,-0.0032,0.0386,0.4477,57.19,-127.99,948.91,541,146,-74
  1512178932,0.0891,-0.0011,0.4491,86.98,-122.50,948.73,541,146,-74
  1512178933,0.0474,0.0286,0.4493,111.57,-148.32,1000.24,530,167,-91
  1512178933,0.0313,0.0229,0.4526,142.21,-172.67,964.05,530,167,-91
  1512178933,0.0097,0.0037,0.4542,100.95,-135.25,976.26,530,167,-91
  1512178933,0.0788,-0.0245,0.4543,69.46,-136.05,1055.18,530,167,-91
  1512178933,-0.0127,0.0206,0.4501,143.55,-159.91,976.38,530,167,-91
  1512178933,0.0310,0.0087,0.4519,89.17,-156.80,1005.43,532,169,-82
  1512178933,0.0754,-0.0264,0.4550,81.30,-146.24,1024.54,532,169,-82
  1512178933,-0.0394,0.0128,0.4573,91.06,-175.96,1014.10,532,169,-82
  1512178933,0.0057,0.0063,0.4573,123.90,-216.80,958.44,532,169,-82
  1512178933,0.0039,0.0024,0.4614,104.55,-160.89,961.12,534,181,-84
  1512178933,0.0108,-0.0111,0.4634,85.14,-208.74,957.95,534,181,-84
  1512178933,0.0369,0.0064,0.4654,61.89,-134.09,1005.31,534,181,-84
  1512178933,-0.0032,0.0256,0.4704,70.01,-141.91,992.68,534,181,-84
  1512178933,0.0253,0.0092,0.4722,87.16,-165.95,984.56,534,181,-84
  1512178933,0.0931,-0.0037,0.4734,138.85,-137.82,1054.99,511,172,-82
  1512178933,0.0419,-0.0068,0.4707,38.27,-158.02,1036.50,511,172,-82
  1512178933,0.0850,-0.0286,0.4722,110.60,-120.36,977.05,511,172,-82
  1512178933,0.0541,-0.0321,0.4633,98.94,-120.24,1080.75,511,172,-82
  1512178933,-0.0430,-0.0312,0.4681,101.32,-115.30,1099.06,511,172,-82
  1512178933,-0.0518,-0.0606,0.4714,124.94,-107.06,1042.85,511,193,-76
  1512178933,-0.1434,-0.0192,0.4601,138.37,-133.36,1062.19,511,193,-76
  1512178933,-0.0952,-0.0740,0.4601,126.22,-110.96,1118.29,511,193,-76
  1512178933,-0.2305,-0.0368,0.4610,104.55,-160.28,1132.02,511,193,-76
  1512178933,-0.0803,-0.0957,0.4669,173.40,-94.06,1015.99,511,200,-82
  1512178933,-0.2850,-0.0186,0.4663,159.12,-172.12,999.27,511,200,-82
  1512178933,-0.1069,-0.0905,0.4629,62.93,-146.18,942.93,511,200,-82
  1512178933,-0.2605,-0.0269,0.4578,49.07,-198.49,1030.15,511,200,-82
  1512178933,-0.2294,-0.0221,0.4759,106.99,-233.22,971.86,511,200,-82
  1512178933,-0.2087,-0.0208,0.5241,119.14,-207.21,936.04,516,209,-88
  1512178933,-0.1164,-0.0205,0.5795,119.81,-227.17,843.14,516,209,-88
  1512178933,-0.1493,0.0023,0.5899,101.50,-235.84,893.92,516,209,-88
  1512178933,0.0249,-0.0442,0.5471,64.45,-242.74,859.68,516,209,-88
  1512178933,0.1502,0.0843,0.6538,-53.89,-265.62,442.02,553,232,-113
  1512178933,-0.0192,0.0629,0.7171,172.36,-182.25,830.14,553,232,-113
  1512178933,0.1929,0.1639,0.8514,69.58,-221.68,825.68,553,232,-113
  1512178933,1.3555,1.0152,1.1233,120.12,-320.68,788.76,553,232,-113
  1512178933,-0.5872,0.0626,1.3410,111.51,-54.38,780.46,553,232,-113
  1512178934,0.1911,0.4629,0.7191,59.94,-255.25,803.16,560,412,-208
  1512178934,-0.1981,0.1308,0.4647,99.24,-237.55,828.25,560,412,-208
  1512178934,-0.1024,0.1553,0.4430,6.90,-174.99,994.63,560,412,-208
  1512178934,0.0466,0.1945,0.4372,8.54,-130.68,968.87,560,412,-208
  1512178934,0.0502,0.1822,0.4457,19.96,-92.59,953.37,560,412,-208
  1512178934,0.0728,0.1618,0.4408,-58.23,-94.97,902.71,560,433,-238
  1512178934,0.0414,0.1341,0.4424,-79.83,-42.72,917.05,560,433,-238
  1512178934,0.0105,0.1085,0.4356,-44.43,-114.01,937.13,560,433,-238
  1512178934,0.0141,0.0876,0.4345,-29.97,-158.69,1029.42,560,433,-238
  1512178934,-0.0390,0.0550,0.4370,-64.51,-147.77,971.37,527,470,-243
  1512178934,-0.0889,0.0288,0.4320,-43.64,-171.08,988.65,527,470,-243
  1512178934,-0.0629,0.0354,0.4286,-7.51,-189.70,931.21,527,470,-243
  1512178934,-0.1048,0.0165,0.4348,-24.78,-137.21,965.64,527,470,-243
  1512178934,-0.0515,0.0345,0.4438,16.30,-212.28,912.72,527,470,-243
  1512178934,-0.0842,0.0399,0.4378,40.47,-235.72,890.32,523,456,-240
  1512178934,-0.0960,0.0253,0.4451,-33.57,-158.39,1004.46,523,456,-240
  1512178934,-0.0249,0.0374,0.4442,-44.25,-227.23,1074.95,523,456,-240
  1512178934,-0.0266,0.0312,0.4401,-21.55,-157.17,1050.48,523,456,-240
  1512178934,-0.0427,0.0511,0.4392,-18.62,-233.46,1020.08,523,456,-240
  1512178934,-0.0583,0.0445,0.4389,8.36,-220.21,1017.09,534,463,-250
  1512178934,-0.0269,0.0503,0.4416,80.69,-113.16,1081.73,534,463,-250
  1512178934,-0.0225,0.0217,0.4631,-108.09,-50.05,1092.10,534,463,-250
  1512178934,-0.0465,0.0031,0.4691,-44.80,-132.20,1038.94,534,463,-250
  1512178934,-0.1029,-0.0474,0.4806,-108.28,-134.28,1030.03,514,472,-238
  1512178934,-0.1056,-0.0579,0.4667,-53.16,-168.33,1026.55,514,472,-238
  1512178934,-0.1246,-0.0812,0.4642,-8.06,-241.46,1005.62,514,472,-238
  1512178934,-0.1230,-0.1001,0.4558,-60.36,-174.01,997.80,514,472,-238
  1512178934,-0.1430,-0.1059,0.4435,-23.50,-209.17,889.34,514,472,-238
  1512178934,-0.1354,-0.1161,0.4361,-21.42,-197.63,950.50,504,468,-238
  1512178934,-0.0963,-0.1069,0.4420,-25.45,-204.71,1007.69,504,468,-238
  1512178934,-0.1216,-0.1121,0.4341,15.44,-234.31,997.68,504,468,-238
  1512178934,-0.0671,-0.1056,0.4377,32.90,-259.40,1041.99,504,468,-238
  1512178934,-0.0302,-0.1124,0.4358,52.61,-200.20,1062.56,488,477,-247
  1512178934,0.0115,-0.0888,0.4230,39.92,-283.63,1074.77,488,477,-247
  1512178934,0.1313,-0.0513,0.4109,67.99,-293.09,1075.13,488,477,-247
  1512178934,0.1454,-0.0330,0.3948,53.59,-254.70,1043.27,488,477,-247
  1512178934,0.1495,-0.0218,0.3868,39.18,-272.22,1008.18,488,477,-247
  1512178934,0.1521,0.0056,0.3832,43.33,-201.84,906.56,483,465,-235
  1512178935,0.1470,0.0141,0.3823,-27.71,-155.64,954.35,483,465,-235
  1512178935,0.1875,0.0241,0.3839,-83.07,-173.03,948.61,483,465,-235
  1512178935,0.1551,0.0258,0.3831,-74.65,-94.97,946.84,483,465,-235
  1512178935,0.1273,0.0305,0.3871,-74.83,-89.66,975.59,483,465,-235
  1512178935,0.1652,0.0426,0.3870,-111.02,-85.33,1011.23,472,475,-238
  1512178935,0.0643,0.0309,0.3822,-89.78,-120.18,972.78,472,475,-238
  1512178935,-0.0308,0.0242,0.3707,-44.68,-191.47,945.98,472,475,-238
  1512178935,-0.0328,0.0125,0.3718,-56.76,-183.72,1017.40,472,475,-238
  1512178935,-0.0142,0.0198,0.3694,-31.74,-147.28,1031.92,442,463,-257
  1512178935,-0.0521,0.0043,0.3654,-66.77,-197.81,1007.14,442,463,-257
  1512178935,-0.0318,0.0029,0.3669,-42.91,-182.19,1023.86,442,463,-257
  1512178935,-0.0463,-0.0044,0.3707,-39.43,-165.95,1013.49,442,463,-257
  1512178935,-0.0111,0.0003,0.3770,-30.40,-171.08,1036.93,442,463,-257
  1512178935,-0.0168,-0.0053,0.3775,2.62,-165.83,992.74,449,456,-243
  1512178935,-0.0052,0.0009,0.3791,-40.53,-190.43,1030.27,449,456,-243
  1512178935,0.0209,0.0072,0.3759,-25.45,-203.00,1022.89,449,456,-243
  1512178935,0.0234,0.0004,0.3740,-35.71,-206.85,1009.03,449,456,-243
  1512178935,-0.0084,-0.0080,0.3692,-15.38,-236.33,1023.74,449,456,-243
  1512178935,0.0172,-0.0013,0.3712,-19.59,-171.45,1044.01,442,481,-223
  1512178935,0.0063,-0.0133,0.3641,-79.10,-180.79,1072.08,442,481,-223
  1512178935,0.0242,-0.0044,0.3578,-48.95,-169.13,1023.01,442,481,-223
  1512178935,0.0305,0.0016,0.3529,-41.63,-182.25,984.92,442,481,-223
  1512178935,0.0116,-0.0048,0.3583,-67.08,-155.46,1057.98,423,472,-245
  1512178935,0.0294,0.0023,0.3561,-60.85,-186.89,987.37,423,472,-245
  1512178935,0.0233,0.0092,0.3562,-55.73,-162.84,953.98,423,472,-245
  1512178935,-0.0216,0.0003,0.3541,-51.45,-180.91,939.64,423,472,-245
  1512178935,0.0103,0.0056,0.3562,-68.48,-153.99,1014.34,423,472,-245
  1512178935,0.0115,0.0130,0.3557,-55.54,-179.99,1001.53,414,488,-253
  1512178935,-0.0140,0.0068,0.3586,-46.69,-152.16,981.08,414,488,-253
  1512178935,0.0181,0.0154,0.3595,-52.67,-153.20,1035.10,414,488,-253
  1512178935,0.0216,0.0043,0.3590,-71.23,-143.13,1075.38,414,488,-253
  1512178935,0.0186,0.0071,0.3625,-39.49,-163.27,984.50,409,468,-245
  1512178935,-0.0178,-0.0056,0.3609,-41.93,-153.32,1013.55,409,468,-245
  1512178935,-0.0168,-0.0154,0.3651,-102.66,-159.12,1031.86,409,468,-245
  1512178935,-0.0088,-0.0127,0.3581,-56.76,-222.11,1004.76,409,468,-245
  1512178935,-0.0181,-0.0101,0.3545,-51.15,-214.97,958.13,409,468,-245
  1512178935,-0.0434,-0.0184,0.3555,-67.57,-176.27,934.94,384,458,-238
  1512178935,-0.0372,-0.0142,0.3517,-14.04,-175.78,943.48,384,458,-238
  1512178936,-0.0088,-0.0028,0.3499,-26.25,-238.71,964.05,384,458,-238
  1512178936,0.0216,0.0077,0.3561,-64.45,-219.54,976.26,384,458,-238
  1512178936,-0.0180,-0.0001,0.3503,-14.16,-218.02,922.06,384,458,-238
  1512178936,-0.0023,0.0023,0.3493,-94.36,-197.75,985.29,383,470,-240
  1512178936,-0.0332,-0.0112,0.3453,-91.55,-230.29,947.57,383,470,-240
  1512178936,-0.0008,0.0141,0.3478,-44.92,-178.04,898.25,383,470,-240
  1512178936,0.0020,0.0084,0.3491,-81.97,-193.97,998.72,383,470,-240
  1512178936,0.0209,0.0149,0.3458,-16.60,-200.26,994.14,379,453,-240
  1512178936,0.0342,0.0088,0.3463,-84.35,-162.29,999.63,379,453,-240
  1512178936,0.0253,0.0077,0.3443,-45.65,-164.00,1045.78,379,453,-240
  1512178936,0.1035,0.0266,0.3449,-27.77,-150.94,1081.79,379,453,-240
  1512178936,0.0995,0.0216,0.3463,-91.43,-178.10,1057.80,379,453,-240
  1512178936,0.0112,0.0113,0.3430,-28.14,-197.51,992.61,361,467,-247
  1512178936,0.0128,0.0132,0.3427,-60.85,-198.73,1021.85,361,467,-247
  1512178936,0.0186,0.0144,0.3392,-52.67,-192.32,1044.74,361,467,-247
  1512178936,-0.0011,0.0229,0.3404,-44.31,-174.44,1019.23,361,467,-247
  1512178936,0.0089,0.0274,0.3394,-94.18,-178.16,1017.40,372,460,-240
  1512178936,0.0281,0.0282,0.3417,-71.29,-138.18,1037.23,372,460,-240
  1512178936,0.0390,0.0368,0.3356,-53.47,-143.92,1052.80,372,460,-240
  1512178936,0.0601,0.0293,0.3328,-66.10,-189.39,1061.46,372,460,-240
  1512178936,0.0316,0.0073,0.3257,-61.83,-134.89,1019.35,372,460,-240
  1512178936,0.0140,0.0080,0.3208,-54.87,-179.20,1018.80,349,447,-238
  1512178936,0.0730,0.0144,0.3168,-65.12,-129.46,1015.44,349,447,-238
  1512178936,0.0832,0.0181,0.3144,-13.24,-117.80,1014.40,349,447,-238
  1512178936,0.0278,0.0063,0.3097,-48.77,-134.64,1022.34,349,447,-238
  1512178936,0.0487,0.0129,0.3156,-97.60,-188.17,1003.72,349,447,-238
  1512178936,0.0304,0.0079,0.3069,-83.44,-154.30,959.96,354,446,-253
  1512178936,0.0079,0.0076,0.3047,-91.86,-194.34,972.84,354,446,-253
  1512178936,-0.0028,-0.0007,0.3040,-80.93,-180.66,959.96,354,446,-253
  1512178936,-0.0088,0.0152,0.2989,-53.53,-161.68,910.71,354,446,-253
  1512178936,0.0093,0.0128,0.2987,-111.63,-163.15,948.49,340,446,-250
  1512178936,0.0060,0.0031,0.2985,-97.35,-106.69,914.92,340,446,-250
  1512178936,-0.0081,-0.0043,0.2948,-108.89,-151.79,952.76,340,446,-250
  1512178936,-0.0326,-0.0173,0.2924,-96.74,-178.22,994.14,340,446,-250
  1512178936,-0.0573,-0.0233,0.2900,-78.92,-177.31,976.14,340,446,-250
  1512178936,-0.0192,-0.0225,0.2824,-93.57,-157.47,1005.25,319,446,-236
  1512178936,-0.0490,-0.0332,0.2768,-97.78,-138.67,1010.68,319,446,-236
  1512178936,-0.0216,-0.0245,0.2752,-118.84,-131.65,1024.05,319,446,-236
  1512178937,-0.0068,-0.0192,0.2756,-125.55,-117.55,1048.03,319,446,-236
  1512178937,-0.0029,-0.0092,0.2694,-98.94,-166.99,1044.19,319,446,-236
  1512178937,-0.0069,-0.0116,0.2642,-47.97,-150.39,1046.88,307,433,-255
  1512178937,0.0037,-0.0051,0.2638,-65.92,-167.54,1085.75,307,433,-255
  1512178937,-0.0057,-0.0101,0.2589,-77.70,-200.13,1060.06,307,433,-255
  1512178937,-0.0547,-0.0141,0.2514,-68.60,-180.18,989.14,307,433,-255
  1512178937,-0.0439,-0.0121,0.2473,-61.71,-172.85,1029.85,300,437,-252
  1512178937,0.0105,-0.0016,0.2380,-88.68,-183.04,1068.42,300,437,-252
  1512178937,0.0250,0.0107,0.2306,-22.28,-153.87,1047.06,300,437,-252
  1512178937,0.1011,0.0278,0.2242,-68.97,-128.60,1075.20,300,437,-252
  1512178937,0.0905,0.0202,0.2189,-69.46,-153.93,1072.88,300,437,-252
  1512178937,0.0650,0.0176,0.2137,-59.57,-101.44,996.34,293,433,-245
  1512178937,0.0387,0.0149,0.2044,-112.85,-132.51,927.73,293,433,-245
  1512178937,0.0727,0.0288,0.2016,-86.55,-76.84,990.30,293,433,-245
  1512178937,0.0651,0.0237,0.1972,-94.36,-62.56,1048.77,293,433,-245
  1512178937,0.0839,0.0256,0.1907,-116.70,-70.25,1052.86,293,433,-245
  1512178937,0.0539,0.0184,0.1903,-118.47,-105.83,976.38,307,419,-252
  1512178937,0.0193,0.0170,0.1795,-91.31,-108.95,953.74,307,419,-252
  1512178937,0.0502,0.0254,0.1755,-141.05,-113.22,981.75,307,419,-252
  1512178937,0.0245,0.0188,0.1740,-115.78,-87.89,968.51,307,419,-252
  1512178937,0.0097,0.0214,0.1672,-118.77,-117.13,953.98,286,419,-245
  1512178937,-0.0037,0.0198,0.1645,-69.52,-135.44,969.67,286,419,-245
  1512178937,-0.0040,0.0132,0.1609,-99.67,-112.30,978.39,286,419,-245
  1512178937,-0.0036,0.0041,0.1606,-130.43,-74.95,997.38,286,419,-245
  1512178937,0.0217,0.0123,0.1545,-113.65,-136.17,1012.51,286,419,-245
  1512178937,0.0193,0.0007,0.1519,-83.13,-110.53,1010.07,298,417,-230
  1512178937,0.0205,0.0000,0.1493,-81.48,-130.19,977.05,298,417,-230
  1512178937,0.0031,-0.0250,0.1502,-106.38,-166.32,1033.14,298,417,-230
  1512178937,-0.0192,-0.0274,0.1455,-90.82,-133.48,928.83,298,417,-230
  1512178937,-0.0269,-0.0342,0.1447,-117.37,-114.01,1001.77,288,431,-240
  1512178937,-0.0276,-0.0249,0.1403,-95.21,-100.59,955.14,288,431,-240
  1512178937,-0.0242,-0.0173,0.1394,-101.56,-81.85,1010.62,288,431,-240
  1512178937,-0.0072,-0.0088,0.1357,-126.65,-100.22,971.01,288,431,-240
  1512178937,-0.0192,-0.0164,0.1312,-93.87,-116.58,1002.81,288,431,-240
  1512178937,-0.0081,-0.0181,0.1260,-111.02,-103.33,1020.81,270,431,-236
  1512178937,0.0032,-0.0278,0.1280,-161.07,-94.67,1025.33,270,431,-236
  1512178937,-0.0087,-0.0258,0.1198,-85.94,-104.98,941.41,270,431,-236
  1512178938,0.0445,-0.0088,0.1144,-109.92,-105.16,1043.58,270,431,-236
  1512178938,0.0413,-0.0123,0.1107,-94.24,-102.91,1051.27,270,431,-236
  1512178938,0.0302,-0.0136,0.1047,-94.06,-83.13,1025.63,282,419,-252
  1512178938,0.0325,-0.0092,0.0993,-87.95,-76.66,1013.49,282,419,-252
  1512178938,0.0294,-0.0124,0.0983,-130.74,-92.83,1058.90,282,419,-252
  1512178938,0.0454,-0.0091,0.0878,-101.87,-66.71,1002.75,282,419,-252
  1512178938,0.0252,-0.0073,0.0810,-107.85,-76.11,960.51,274,417,-247
  1512178938,0.0257,-0.0121,0.0734,-113.04,-78.43,963.68,274,417,-247
  1512178938,0.0272,0.0021,0.0667,-64.51,-73.67,930.36,274,417,-247
  1512178938,0.0264,0.0043,0.0597,-101.01,-84.78,1006.47,274,417,-247
  1512178938,0.0161,-0.0015,0.0558,-72.27,-56.64,957.70,274,417,-247
  1512178938,-0.0107,-0.0048,0.0565,-85.57,-47.49,985.35,267,407,-240
  1512178938,-0.0003,0.0084,0.0501,-75.13,-96.07,942.57,267,407,-240
  1512178938,-0.0325,0.0005,0.0463,-49.26,-109.68,927.92,267,407,-240
  1512178938,-0.0103,0.0016,0.0489,-109.25,-78.06,955.02,267,407,-240
  1512178938,-0.0137,-0.0035,0.0501,-98.39,-64.88,1028.50,267,407,-240
  1512178938,-0.0047,0.0037,0.0517,-102.84,-74.28,1002.56,270,407,-250
  1512178938,0.0064,0.0033,0.0479,-118.65,-78.67,1035.28,270,407,-250
  1512178938,-0.0176,0.0031,0.0447,-77.33,-90.15,999.69,270,407,-250
  1512178938,-0.0120,-0.0003,0.0453,-99.18,-89.97,1023.13,270,407,-250
  1512178938,-0.0150,-0.0007,0.0443,-110.66,-101.32,1002.93,263,407,-243
  1512178938,-0.0353,0.0017,0.0397,-88.07,-92.35,979.74,263,407,-243
  1512178938,-0.0297,0.0064,0.0365,-101.50,-84.47,973.63,263,407,-243
  1512178938,-0.0687,-0.0004,0.0364,-123.90,-92.10,1009.83,263,407,-243
  1512178938,-0.0402,0.0080,0.0356,-86.85,-112.18,1010.31,263,407,-243
  1512178938,-0.0535,-0.0011,0.0372,-111.69,-86.73,970.34,260,414,-243
  1512178938,-0.0166,0.0136,0.0334,-91.13,-106.26,978.58,260,414,-243
  1512178938,-0.0385,-0.0036,0.0360,-78.25,-104.19,915.41,260,414,-243
  1512178938,-0.0505,-0.0153,0.0360,-96.31,-56.88,938.90,260,414,-243
  1512178938,-0.0258,-0.0092,0.0329,-93.08,-85.08,1036.38,260,414,-243
  1512178938,-0.0063,-0.0028,0.0336,-54.08,-30.09,955.51,256,407,-233
  1512178938,-0.0109,-0.0007,0.0278,-100.59,-93.75,953.43,256,407,-233
  1512178938,-0.0577,-0.0180,0.0260,-90.33,-89.48,906.19,256,407,-233
  1512178938,-0.0361,-0.0140,0.0241,-118.04,-83.07,957.76,256,407,-233
  1512178938,0.0249,0.0041,0.0297,-131.47,-38.57,962.40,251,405,-248
  1512178938,0.0487,0.0137,0.0253,-102.36,-17.88,984.74,251,405,-248
  1512178938,-0.0015,0.0017,0.0249,-136.23,-54.75,939.64,251,405,-248
  1512178938,0.0550,0.0136,0.0228,-105.96,-82.76,1042.36,251,405,-248
  1512178939,-0.0024,-0.0060,0.0214,-61.95,-56.70,939.51,251,405,-248
  1512178939,0.0238,-0.0004,0.0226,-90.09,-51.45,992.61,270,400,-243
  1512178939,0.0636,0.0080,0.0158,-75.87,-52.67,973.75,270,400,-243
  1512178939,0.0286,-0.0071,0.0137,-77.09,-86.00,955.38,270,400,-243
  1512178939,0.0205,-0.0144,0.0188,-34.42,-48.34,980.77,270,400,-243
  1512178939,0.0100,-0.0173,0.0188,-72.69,-64.76,1013.79,258,412,-238
  1512178939,0.0005,-0.0298,0.0178,-89.84,-57.74,985.41,258,412,-238
  1512178939,0.0080,-0.0285,0.0178,-109.92,-18.01,974.73,258,412,-238
  1512178939,0.0015,-0.0258,0.0156,-148.93,-91.86,970.46,258,412,-238
  1512178939,0.0557,-0.0144,0.0188,-83.31,-50.54,1026.31,258,412,-238
  1512178939,0.0234,-0.0146,0.0166,-76.29,-30.33,980.41,256,403,-236
  1512178939,0.0011,-0.0274,0.0124,-84.59,-69.46,1040.28,256,403,-236
  1512178939,-0.0182,-0.0214,0.0158,-20.69,-66.96,934.14,256,403,-236
  1512178939,-0.0141,-0.0202,0.0181,-84.53,10.99,984.25,256,403,-236
  1512178939,0.0108,-0.0116,0.0186,-47.97,-18.43,952.27,256,403,-236
  1512178939,-0.0085,-0.0149,0.0161,-41.69,-70.74,966.43,256,400,-243
  1512178939,0.0156,-0.0075,0.0182,-119.38,-21.18,963.26,256,400,-243
  1512178939,0.0052,-0.0096,0.0181,-108.64,-17.33,975.83,256,400,-243
  1512178939,-0.0208,-0.0146,0.0184,-149.60,-81.05,1043.52,256,400,-243
  1512178939,0.0360,0.0076,0.0180,-91.49,-24.29,1007.14,256,393,-230
  1512178939,0.0333,0.0035,0.0158,-76.72,-6.59,1021.91,256,393,-230
  1512178939,0.0565,0.0173,0.0150,-42.91,-29.97,976.81,256,393,-230
  1512178939,0.0614,0.0089,0.0156,-50.66,14.28,1020.75,256,393,-230
  1512178939,0.0362,0.0180,0.0193,-48.03,-32.35,937.87,256,393,-230
  1512178939,-0.0325,-0.0109,0.0221,-116.64,3.17,934.63,249,389,-240
  1512178939,-0.0144,0.0059,0.0164,-89.48,-54.69,991.88,249,389,-240
  1512178939,-0.0266,0.0073,0.0166,-28.81,-60.67,981.99,249,389,-240
  1512178939,0.0205,0.0085,0.0209,-90.45,-21.55,979.61,249,389,-240
  1512178939,0.0312,0.0116,0.0208,-80.93,-40.22,1053.77,253,389,-240
  1512178939,0.0085,0.0120,0.0188,-68.91,-61.95,936.10,253,389,-240
  1512178939,0.0158,0.0146,0.0188,-31.74,-68.73,1071.23,253,389,-240
  1512178939,0.0205,0.0242,0.0146,6.47,-107.48,980.77,253,389,-240
  1512178939,0.0541,0.0294,0.0213,-23.74,-64.82,1064.27,253,389,-240
  1512178939,-0.0229,0.0130,0.0244,-12.15,-65.37,1009.46,263,379,-223
  1512178939,-0.0252,0.0068,0.0260,-59.27,-43.40,1005.74,263,379,-223
  1512178939,0.0116,0.0160,0.0306,-41.93,-58.84,1048.65,263,379,-223
  1512178939,-0.0252,0.0141,0.0269,-14.28,-85.45,993.65,263,379,-223
  1512178939,-0.0148,0.0008,0.0358,-41.02,-58.53,978.39,263,379,-223
  1512178940,-0.0407,0.0061,0.0321,2.26,-97.90,949.52,256,396,-209
  1512178940,-0.0601,0.0020,0.0281,30.52,-125.73,885.44,256,396,-209
  1512178940,0.0166,0.0224,0.0358,-20.51,-113.95,971.19,256,396,-209
  1512178940,-0.0706,0.0001,0.0293,-17.52,-111.76,992.86,256,396,-209
  1512178940,-0.0629,0.0037,0.0330,-41.44,-122.07,997.19,272,401,-214
  1512178940,-0.0533,0.0012,0.0383,-37.29,-62.38,927.12,272,401,-214
  1512178940,0.0208,0.0136,0.0402,-92.10,-46.33,1042.79,272,401,-214
  1512178940,-0.0190,0.0145,0.0362,-46.63,-52.19,938.90,272,401,-214
  1512178940,-0.0111,0.0212,0.0349,-29.91,-105.22,1006.77,272,401,-214
  1512178940,0.0549,0.0356,0.0337,-22.22,-80.44,1062.56,260,407,-236
  1512178940,0.0063,0.0282,0.0394,32.71,-43.95,994.38,260,407,-236
  1512178940,-0.0079,0.0158,0.0401,-61.28,-101.87,1015.26,260,407,-236
  1512178940,-0.0491,-0.0045,0.0368,-46.94,-109.13,1039.92,260,407,-236
  1512178940,-0.0640,-0.0029,0.0410,-52.00,-147.09,1050.48,260,407,-236
  1512178940,-0.0433,-0.0072,0.0441,-84.78,-128.30,1059.27,247,401,-225
  1512178940,-0.0557,-0.0123,0.0442,-45.35,-160.34,981.57,247,401,-225
  1512178940,-0.0583,-0.0089,0.0430,-16.91,-149.78,964.05,247,401,-225
  1512178940,-0.0811,-0.0225,0.0491,-65.55,-142.76,911.07,247,401,-225
  1512178940,-0.1033,-0.0330,0.0534,-59.33,-131.59,975.83,275,401,-242
  1512178940,-0.0691,-0.0210,0.0549,7.32,-130.37,930.42,275,401,-242
  1512178940,-0.0884,-0.0290,0.0593,-14.95,-118.90,1018.13,275,401,-242
  1512178940,-0.1045,-0.0333,0.0566,-43.52,-123.96,933.72,275,401,-242
  1512178940,-0.0791,-0.0194,0.0623,-2.50,-84.05,948.97,275,401,-242
  1512178940,-0.1152,-0.0236,0.0599,4.09,-171.14,950.81,282,398,-248
  1512178940,-0.1071,-0.0378,0.0650,-11.90,-171.39,936.52,282,398,-248
  1512178940,-0.1072,-0.0105,0.0715,39.55,-132.87,926.39,282,398,-248
  1512178940,-0.0933,-0.0154,0.0771,-4.46,-127.44,999.08,282,398,-248
  1512178940,-0.0893,-0.0056,0.0779,44.31,-153.75,945.37,282,398,-248
  1512178940,0.0000,0.0148,0.0831,-26.67,-142.58,1047.61,263,407,-230
  1512178940,-0.0843,-0.0016,0.0923,15.44,-136.66,902.59,263,407,-230
  1512178940,-0.0550,0.0048,0.1011,18.25,-193.05,973.14,263,407,-230
  1512178940,-0.0561,-0.0021,0.1124,-2.62,-137.33,942.32,263,407,-230
  1512178940,-0.0618,-0.0004,0.1133,-18.19,-183.84,1013.67,261,380,-242
  1512178940,-0.0446,-0.0075,0.1176,-11.54,-180.97,929.63,261,380,-242
  1512178940,-0.0312,-0.0080,0.1230,-21.55,-98.69,994.63,261,380,-242
  1512178940,-0.0091,0.0068,0.1341,-17.33,-108.22,996.46,261,380,-242
  1512178940,0.0027,0.0133,0.1342,42.24,-164.67,947.14,261,380,-242
  1512178941,-0.0209,-0.0045,0.1495,-30.88,-126.16,1025.51,277,396,-240
  1512178941,0.0060,0.0044,0.1503,-36.01,-146.00,984.62,277,396,-240
  1512178941,0.0202,-0.0021,0.1539,-36.19,-151.31,1046.94,277,396,-240
  1512178941,0.0603,-0.0065,0.1581,-35.95,-143.55,1114.62,277,396,-240
  1512178941,-0.0397,-0.0182,0.1687,10.68,-133.61,1022.71,260,389,-250
  1512178941,0.0165,-0.0071,0.1756,-11.41,-122.01,1058.35,260,389,-250
  1512178941,0.0200,-0.0084,0.1774,-21.61,-180.24,1171.69,260,389,-250
  1512178941,0.0350,0.0099,0.1775,7.20,-208.19,1139.65,260,389,-250
  1512178941,0.0389,-0.0048,0.1903,-36.93,-159.42,1178.34,260,389,-250
  1512178941,0.0493,0.0071,0.1947,67.14,-106.32,1080.44,277,393,-243
  1512178941,0.0539,0.0236,0.2016,61.22,-180.42,986.63,277,393,-243
  1512178941,0.1213,0.0284,0.2028,14.28,-140.20,1080.75,277,393,-243
  1512178941,0.0383,0.0346,0.2073,22.34,-209.17,973.02,277,393,-243
  1512178941,0.0318,0.0324,0.2120,42.36,-190.00,986.76,277,393,-243
  1512178941,0.0201,0.0301,0.2189,73.00,-199.89,969.73,251,377,-242
  1512178941,0.0541,0.0386,0.2193,34.55,-206.18,1039.67,251,377,-242
  1512178941,0.0386,0.0346,0.2250,34.91,-215.52,1005.19,251,377,-242
  1512178941,-0.0226,0.0152,0.2274,17.09,-210.39,1008.73,251,377,-242
  1512178941,0.0027,0.0166,0.2342,49.50,-235.23,957.28,254,363,-231
  1512178941,0.0202,0.0113,0.2365,16.24,-159.48,944.76,254,363,-231
  1512178941,-0.0663,-0.0137,0.2380,-13.79,-211.79,939.33,254,363,-231
  1512178941,0.0013,0.0132,0.2429,17.15,-241.82,1000.43,254,363,-231
  1512178941,-0.0383,-0.0128,0.2397,31.13,-190.31,1001.10,254,363,-231
  1512178941,-0.0513,-0.0124,0.2385,17.58,-240.60,997.56,260,379,-247
  1512178941,0.0132,-0.0041,0.2373,59.14,-251.53,1012.08,260,379,-247
  1512178941,-0.0265,-0.0168,0.2450,36.13,-235.05,942.57,260,379,-247
  1512178941,-0.0494,-0.0270,0.2510,13.31,-161.32,940.31,260,379,-247
  1512178941,-0.0563,-0.0277,0.2483,18.62,-222.96,1077.21,260,379,-247
  1512178941,-0.0060,-0.0093,0.2457,46.26,-209.53,976.75,260,375,-236
  1512178941,-0.0658,-0.0254,0.2521,35.77,-213.32,997.07,260,375,-236
  1512178941,-0.0844,-0.0369,0.2563,23.19,-195.01,953.80,260,375,-236
  1512178941,-0.0606,-0.0127,0.2586,47.24,-213.62,966.19,260,375,-236
  1512178941,0.0190,0.0100,0.2501,79.28,-208.44,984.37,253,347,-233
  1512178941,0.0372,0.0196,0.2526,39.18,-182.92,948.97,253,347,-233
  1512178941,0.0142,0.0081,0.2546,-3.60,-120.00,984.31,253,347,-233
  1512178941,-0.0237,0.0120,0.2430,49.07,-220.34,917.42,253,347,-233
  1512178941,-0.0009,0.0080,0.2489,16.30,-211.00,1012.15,253,347,-233
  1512178941,-0.0045,0.0011,0.2615,-4.39,-114.14,1013.31,249,357,-240
  1512178942,0.0667,0.0272,0.2621,26.98,-122.50,1066.65,249,357,-240
  1512178942,0.0210,0.0201,0.2555,49.99,-169.80,968.57,249,357,-240
  1512178942,-0.0256,0.0113,0.2551,-0.55,-165.34,983.52,249,357,-240
  1512178942,-0.0886,-0.0092,0.2543,-14.10,-191.53,1017.58,249,357,-240
  1512178942,-0.0368,0.0186,0.2557,67.93,-223.39,1055.24,237,356,-245
  1512178942,0.0205,0.0352,0.2531,17.82,-179.57,1009.03,237,356,-245
  1512178942,0.0023,0.0360,0.2577,74.16,-196.47,1044.92,237,356,-245
  1512178942,-0.0630,0.0217,0.2549,53.22,-253.36,1033.69,237,356,-245
  1512178942,-0.0511,0.0148,0.2555,45.72,-208.19,983.46,226,334,-231
  1512178942,0.0027,0.0314,0.2569,40.89,-169.31,978.21,226,334,-231
  1512178942,0.0192,0.0357,0.2531,29.91,-184.45,1014.59,226,334,-231
  1512178942,0.0535,0.0288,0.2530,-9.40,-132.39,1060.91,226,334,-231
  1512178942,0.0716,0.0386,0.2562,7.81,-127.38,1080.26,226,334,-231
  1512178942,0.1021,0.0458,0.2550,-5.25,-144.41,1058.47,235,347,-250
  1512178942,0.1164,0.0427,0.2462,22.40,-140.50,997.92,235,347,-250
  1512178942,0.0506,0.0237,0.2490,23.44,-160.89,1014.53,235,347,-250
  1512178942,0.0270,0.0080,0.2483,-40.59,-186.46,987.18,235,347,-250
  1512178942,-0.0129,-0.0097,0.2541,2.01,-197.39,987.61,235,347,-250
  1512178942,-0.0132,-0.0065,0.2486,27.40,-201.17,1011.60,233,334,-235
  1512178942,-0.0205,-0.0178,0.2503,2.32,-213.26,1058.23,233,334,-235
  1512178942,-0.0236,-0.0268,0.2467,26.92,-238.59,1007.02,233,334,-235
  1512178942,-0.0559,-0.0466,0.2487,-1.95,-167.42,992.61,233,334,-235
  1512178942,-0.0234,-0.0429,0.2453,26.92,-195.92,1009.28,226,334,-235
  1512178942,0.0280,-0.0226,0.2433,77.51,-232.60,1002.01,226,334,-235
  1512178942,0.0258,-0.0329,0.2438,-31.07,-243.71,1076.11,226,334,-235
  1512178942,0.0093,-0.0286,0.2388,92.04,-249.94,996.95,226,334,-235
  1512178942,0.0256,-0.0185,0.2380,50.66,-230.96,999.39,226,334,-235
  1512178942,0.1103,-0.0019,0.2407,26.18,-201.05,1079.04,244,327,-228
  1512178942,0.0116,-0.0244,0.2437,39.00,-243.90,1049.74,244,327,-228
  1512178942,0.0477,-0.0117,0.2450,32.47,-206.97,1058.35,244,327,-228
  1512178942,0.0799,0.0057,0.2430,69.64,-232.18,1093.75,244,327,-228
  1512178942,0.0434,-0.0029,0.2414,81.18,-255.37,1033.75,244,327,-228
  1512178942,0.0399,-0.0133,0.2453,-9.89,-114.99,1000.00,223,317,-252
  1512178942,0.0256,-0.0097,0.2429,-5.92,-117.86,1023.01,223,317,-252
  1512178942,-0.0417,-0.0176,0.2454,-12.76,-173.58,848.82,223,317,-252
  1512178942,-0.0376,0.0036,0.2352,61.04,-194.46,937.74,223,317,-252
  1512178942,0.0104,0.0209,0.2341,57.37,-196.35,896.30,224,322,-226
  1512178942,0.0017,0.0213,0.2330,77.21,-213.68,973.27,224,322,-226
  1512178943,-0.0908,-0.0116,0.2324,75.44,-251.34,922.00,224,322,-226
  1512178943,-0.1069,-0.0067,0.2396,45.90,-168.09,900.63,224,322,-226
  1512178943,-0.1213,-0.0216,0.2461,-17.58,-179.32,1052.98,224,322,-226
  1512178943,-0.0900,-0.0021,0.2438,50.29,-218.57,1058.04,231,297,-233
  1512178943,0.0145,0.0240,0.2405,9.83,-250.06,1075.50,231,297,-233
  1512178943,-0.0362,0.0189,0.2377,55.24,-246.89,952.70,231,297,-233
  1512178943,0.0631,0.0465,0.2328,64.76,-228.09,1022.46,231,297,-233
  1512178943,0.0141,0.0358,0.2326,39.73,-258.36,1052.55,231,297,-233
  1512178943,0.0720,0.0607,0.2296,88.07,-248.41,1059.08,230,289,-252
  1512178943,0.0466,0.0523,0.2304,40.22,-229.49,1036.01,230,289,-252
  1512178943,-0.0017,0.0470,0.2289,45.23,-203.67,984.74,230,289,-252
  1512178943,0.0020,0.0306,0.2313,-19.10,-152.22,992.68,230,289,-252
  1512178943,0.0903,0.0561,0.2302,25.51,-152.40,1047.91,230,303,-235
  1512178943,0.0606,0.0427,0.2264,9.46,-154.85,1022.58,230,303,-235
  1512178943,0.0261,0.0182,0.2212,-35.40,-185.55,1048.16,230,303,-235
  1512178943,0.0165,0.0000,0.2222,-54.20,-109.80,1031.31,230,303,-235
  1512178943,0.0636,0.0205,0.2190,-1.53,-179.93,992.00,230,303,-235
  1512178943,0.0368,0.0003,0.2144,-13.00,-165.89,1062.62,235,297,-226
  1512178943,0.0308,-0.0033,0.2190,22.83,-164.49,975.77,235,297,-226
  1512178943,0.0008,-0.0157,0.2161,48.34,-226.75,1045.23,235,297,-226
  1512178943,-0.0302,-0.0322,0.2165,23.68,-231.38,949.40,235,297,-226
  1512178943,-0.0108,-0.0173,0.2092,20.26,-250.67,1014.10,207,276,-247
  1512178943,-0.0482,-0.0338,0.2073,6.35,-233.03,1011.11,207,276,-247
  1512178943,0.0723,-0.0027,0.2024,47.42,-148.01,1003.91,207,276,-247
  1512178943,0.0498,-0.0064,0.1971,46.63,-180.85,997.99,207,276,-247
  1512178943,0.0084,-0.0260,0.1981,48.34,-202.76,1012.15,207,276,-247
  1512178943,0.0386,-0.0039,0.1936,91.92,-182.50,966.74,217,280,-233
  1512178943,0.0169,-0.0165,0.1955,80.81,-163.21,965.52,217,280,-233
  1512178943,-0.0129,-0.0254,0.1977,12.70,-179.69,982.60,217,280,-233
  1512178943,0.0076,-0.0107,0.1977,29.79,-168.40,969.24,217,280,-233
  1512178943,0.0220,0.0056,0.1945,26.00,-162.54,970.95,217,280,-233
  1512178943,-0.0037,-0.0055,0.1929,-8.42,-139.65,1029.05,212,271,-235
  1512178943,-0.0304,-0.0032,0.1916,74.89,-208.92,993.23,212,271,-235
  1512178943,-0.0116,0.0073,0.1937,36.93,-156.13,1012.88,212,271,-235
  1512178943,-0.0417,0.0075,0.1899,72.45,-197.75,1052.86,212,271,-235
  1512178943,-0.0738,0.0154,0.1931,97.41,-184.14,935.18,224,276,-247
  1512178943,-0.0545,0.0121,0.1894,52.61,-198.79,981.08,224,276,-247
  1512178943,0.0105,0.0373,0.1871,97.90,-215.82,922.06,224,276,-247
  1512178944,-0.0389,0.0085,0.1920,12.27,-175.29,982.91,224,276,-247
  1512178944,-0.0414,-0.0061,0.1888,13.55,-154.72,1000.06,224,276,-247
  1512178944,0.0398,0.0170,0.1925,9.28,-143.55,1035.28,247,257,-262
  1512178944,0.0150,0.0257,0.1880,40.10,-161.13,1010.50,247,257,-262
  1512178944,0.0036,0.0313,0.1786,47.30,-160.95,971.80,247,257,-262
  1512178944,0.0005,0.0184,0.1794,66.83,-150.94,1053.89,247,257,-262
  1512178944,-0.0261,0.0138,0.1810,33.94,-135.68,1038.21,247,257,-262
  1512178944,-0.0674,-0.0087,0.1784,14.89,-167.11,982.06,231,273,-277
  1512178944,-0.0734,-0.0137,0.1834,13.18,-123.11,946.66,231,273,-277
  1512178944,-0.0803,-0.0158,0.1774,54.38,-156.25,904.91,231,273,-277
  1512178944,-0.0723,-0.0189,0.1775,63.35,-220.89,985.35,231,273,-277
  1512178944,-0.0268,-0.0186,0.1784,54.50,-151.37,951.11,228,266,-243
  1512178944,-0.0712,-0.0190,0.1727,107.54,-184.75,951.35,228,266,-243
  1512178944,-0.0583,-0.0333,0.1763,37.11,-146.61,1000.24,228,266,-243
  1512178944,-0.0075,-0.0128,0.1708,54.02,-146.73,1025.76,228,266,-243
  1512178944,0.0068,0.0021,0.1667,72.51,-208.13,1013.73,228,266,-243
  1512178944,0.0250,0.0136,0.1666,87.34,-147.28,938.78,230,260,-255
  1512178944,-0.0061,0.0032,0.1630,41.87,-155.27,1017.70,230,260,-255
  1512178944,-0.0233,-0.0040,0.1625,90.15,-153.75,970.52,230,260,-255
  1512178944,0.0309,0.0158,0.1626,17.09,-89.29,1072.27,230,260,-255
  1512178944,0.0217,0.0081,0.1577,68.85,-125.18,1048.71,230,260,-255
  1512178944,-0.0056,-0.0055,0.1559,33.14,-155.33,1019.59,224,255,-253
  1512178944,0.0381,0.0025,0.1625,41.26,-114.01,964.48,224,255,-253
  1512178944,0.0341,-0.0007,0.1571,74.65,-140.69,950.50,224,255,-253
  1512178944,-0.0087,-0.0336,0.1607,36.62,-128.60,943.79,224,255,-253
  1512178944,0.0134,-0.0334,0.1565,7.20,-128.78,917.05,244,253,-242
  1512178944,-0.0190,-0.0249,0.1591,57.50,-143.62,927.37,244,253,-242
  1512178944,0.0049,-0.0130,0.1547,73.24,-184.81,1007.45,244,253,-242
  1512178944,-0.0296,-0.0178,0.1559,80.44,-147.71,975.65,244,253,-242
  1512178944,-0.0514,-0.0200,0.1571,93.44,-139.59,999.27,244,253,-242
  1512178944,-0.0419,-0.0115,0.1535,54.63,-135.31,978.39,242,245,-250
  1512178944,-0.0052,-0.0012,0.1525,44.56,-150.57,1028.75,242,245,-250
  1512178944,0.0325,0.0192,0.1483,49.99,-124.76,1014.89,242,245,-250
  1512178944,0.0711,0.0286,0.1477,60.73,-139.83,919.80,242,245,-250
  1512178944,0.1177,0.0314,0.1478,60.06,-139.47,1020.81,238,241,-260
  1512178944,0.0913,0.0178,0.1439,58.72,-120.12,985.90,238,241,-260
  1512178944,0.0473,-0.0073,0.1454,48.10,-107.36,1009.70,238,241,-260
  1512178944,0.0458,-0.0165,0.1430,9.64,-8.97,1125.37,238,241,-260
  1512178945,-0.0016,-0.0242,0.1414,14.04,-51.51,1055.91,238,241,-260
  1512178945,0.1035,0.0085,0.1388,44.25,-103.21,1044.56,230,236,-255
  1512178945,0.0141,0.0089,0.1360,64.45,-139.10,898.38,230,236,-255
  1512178945,-0.0546,-0.0064,0.1272,84.23,-149.29,938.66,230,236,-255
  1512178945,-0.0826,-0.0197,0.1262,55.66,-157.84,979.61,230,236,-255
  1512178945,-0.0787,-0.0115,0.1233,60.97,-150.57,1029.72,230,236,-255
  1512178945,-0.0652,-0.0064,0.1304,71.23,-110.96,963.99,240,232,-255
  1512178945,-0.0366,0.0127,0.1304,45.59,-111.15,1030.58,240,232,-255
  1512178945,0.0092,0.0282,0.1260,100.77,-163.15,976.50,240,232,-255
  1512178945,0.0099,0.0222,0.1236,74.83,-191.71,1037.90,240,232,-255
  1512178945,-0.0230,-0.0087,0.1232,75.81,-131.04,1086.79,230,218,-252
  1512178945,-0.0539,-0.0245,0.1305,77.45,-107.42,1012.82,230,218,-252
  1512178945,-0.0759,-0.0222,0.1282,46.14,-84.90,912.41,230,218,-252
  1512178945,-0.0174,0.0340,0.1169,125.12,-172.36,861.02,230,218,-252
  1512178945,0.0067,0.0373,0.1177,66.89,-143.62,1018.92,230,218,-252
  1512178945,-0.0025,0.0099,0.1246,14.77,-131.96,1066.47,247,211,-258
  1512178945,-0.0326,-0.0051,0.1246,18.86,-62.44,1016.17,247,211,-258
  1512178945,0.0017,0.0132,0.1225,54.26,-104.37,1038.76,247,211,-258
  1512178945,-0.0276,-0.0035,0.1226,42.60,-122.25,950.07,247,211,-258
  1512178945,0.0210,0.0099,0.1201,70.98,-132.87,989.20,244,232,-255
  1512178945,-0.0623,-0.0095,0.1198,9.09,-161.74,940.73,244,232,-255
  1512178945,-0.0482,-0.0123,0.1212,73.73,-150.63,968.20,244,232,-255
  1512178945,-0.0052,0.0075,0.1129,99.49,-95.21,975.22,244,232,-255
  1512178945,0.0313,0.0009,0.1218,44.68,-73.61,1057.01,244,232,-255
  1512178945,0.0659,0.0123,0.1178,78.80,-56.95,950.01,237,225,-242
  1512178945,0.0734,0.0216,0.1220,48.22,-120.85,1020.75,237,225,-242
  1512178945,0.0577,0.0125,0.1178,106.51,-159.30,996.70,237,225,-242
  1512178945,0.0362,0.0130,0.1210,82.64,-133.24,969.60,237,225,-242
  1512178945,0.0277,-0.0035,0.1204,115.72,-120.18,1022.71,237,225,-242
  1512178945,0.0190,-0.0076,0.1180,38.02,-76.48,969.48,249,216,-236
  1512178945,-0.0128,-0.0150,0.1154,56.82,-127.56,923.77,249,216,-236
  1512178945,-0.0345,-0.0075,0.1153,67.75,-122.68,939.33,249,216,-236
  1512178945,-0.0015,-0.0047,0.1205,44.86,-123.05,1050.66,249,216,-236
  1512178945,0.0320,0.0004,0.1165,80.81,-94.91,961.79,249,216,-236
  1512178945,0.0177,0.0055,0.1177,46.81,-109.44,984.80,226,215,-242
  1512178945,0.0274,0.0079,0.1198,64.15,-139.83,979.49,226,215,-242
  1512178945,0.0192,0.0071,0.1237,37.05,-72.75,941.47,226,215,-242
  1512178945,0.0217,0.0173,0.1208,54.93,-86.67,935.24,226,215,-242
  1512178946,0.0141,0.0100,0.1210,43.21,-64.76,1000.79,238,213,-253
  1512178946,0.0290,0.0080,0.1250,38.09,-32.84,1071.17,238,213,-253
  1512178946,0.0305,0.0172,0.1228,54.50,-102.66,995.12,238,213,-253
  1512178946,-0.0011,0.0056,0.1212,42.05,-146.24,955.69,238,213,-253
  1512178946,0.0383,0.0152,0.1213,91.19,-73.91,885.38,238,213,-253
  1512178946,-0.0148,0.0049,0.1198,56.95,-136.72,965.70,247,211,-255
  1512178946,0.0044,0.0045,0.1202,36.01,-100.77,939.21,247,211,-255
  1512178946,-0.0316,0.0061,0.1152,71.04,-140.01,924.19,247,211,-255
  1512178946,-0.0699,-0.0153,0.1165,45.59,-125.18,995.12,247,211,-255
  1512178946,0.0016,0.0015,0.1210,76.66,-84.84,1098.14,247,211,-255
  1512178946,0.0391,0.0313,0.1258,95.76,-79.90,1037.35,240,208,-245
  1512178946,0.0027,0.0127,0.1318,54.20,-95.40,964.11,240,208,-245
  1512178946,-0.0009,0.0281,0.1296,124.51,-160.03,938.72,240,208,-245
  1512178946,0.0104,0.0068,0.1280,85.94,-114.75,971.98,240,208,-245
  1512178946,-0.0068,-0.0111,0.1320,55.54,-94.48,969.54,223,186,-258
  1512178946,-0.0088,-0.0238,0.1393,20.08,-69.70,895.32,223,186,-258
  1512178946,0.0023,-0.0169,0.1326,96.01,-127.08,949.65,223,186,-258
  1512178946,0.0816,0.0047,0.1389,80.87,-107.12,989.07,223,186,-258
  1512178946,0.0092,-0.0212,0.1297,93.93,-166.69,934.08,223,186,-258
  1512178946,-0.0879,-0.0490,0.1341,75.44,-118.04,918.52,235,202,-260
  1512178946,-0.0439,-0.0382,0.1381,14.83,-105.35,974.00,235,202,-260
  1512178946,-0.0434,-0.0547,0.1497,25.27,-60.79,993.96,235,202,-260
  1512178946,-0.0111,-0.0349,0.1486,108.09,-73.43,920.72,235,202,-260
  1512178946,0.0583,-0.0170,0.1554,55.91,-69.64,1004.94,249,178,-253
  1512178946,0.0174,-0.0134,0.1582,97.72,-113.22,968.75,249,178,-253
  1512178946,-0.0124,-0.0305,0.1678,67.20,-100.65,989.87,249,178,-253
  1512178946,0.0004,-0.0244,0.1687,114.26,-159.67,1007.75,249,178,-253
  1512178946,-0.0208,-0.0306,0.1763,103.39,-144.35,978.27,249,178,-253
  1512178946,-0.0178,-0.0320,0.1842,136.90,-125.18,1025.57,237,186,-265
  1512178946,0.0214,-0.0128,0.1870,110.17,-113.40,968.57,237,186,-265
  1512178946,0.0395,0.0067,0.1866,143.01,-190.06,1014.77,237,186,-265
  1512178946,0.0443,0.0115,0.1964,128.36,-127.75,997.19,237,186,-265
  1512178946,0.0138,0.0108,0.2019,113.10,-123.41,904.42,237,186,-265
  1512178946,0.0430,0.0092,0.2040,121.15,-87.65,981.75,231,181,-243
  1512178946,0.0037,0.0173,0.2092,149.54,-106.69,997.56,231,181,-243
  1512178946,0.0964,0.0493,0.2161,133.12,-107.60,1096.56,231,181,-243
  1512178946,0.0531,0.0252,0.2216,112.55,-128.05,1056.95,231,181,-243
  1512178947,0.0298,0.0417,0.2224,181.34,-111.76,987.37,253,185,-264
  1512178947,0.0573,0.0296,0.2232,116.58,-153.99,1050.60,253,185,-264
  1512178947,-0.0115,0.0053,0.2226,127.44,-136.66,1046.33,253,185,-264
  1512178947,-0.0629,-0.0113,0.2354,70.68,-111.39,915.47,253,185,-264
  1512178947,-0.0200,-0.0035,0.2390,119.63,-118.16,1021.30,253,185,-264
  1512178947,-0.0406,0.0043,0.2435,100.22,-151.92,959.35,237,179,-269
  1512178947,-0.0174,0.0005,0.2535,99.85,-162.60,1028.63,237,179,-269
  1512178947,-0.0795,-0.0204,0.2571,129.76,-169.25,953.19,237,179,-269
  1512178947,-0.0893,-0.0141,0.2654,154.30,-206.48,930.18,237,179,-269
  1512178947,0.0248,0.0080,0.2674,154.97,-153.87,1021.42,254,148,-252
  1512178947,-0.0619,0.0028,0.2759,175.48,-211.67,904.72,254,148,-252
  1512178947,-0.1660,-0.0316,0.2827,111.15,-173.77,963.13,254,148,-252
  1512178947,-0.0063,0.0133,0.2863,139.89,-101.93,922.42,254,148,-252
  1512178947,-0.0411,0.0169,0.2895,83.13,-154.48,986.39,254,148,-252
  1512178947,-0.0172,-0.0052,0.2996,107.30,-147.64,998.41,247,162,-265
  1512178947,0.0479,0.0196,0.2898,103.64,-64.64,932.01,247,162,-265
  1512178947,0.0061,0.0277,0.2949,115.97,-87.95,954.35,247,162,-265
  1512178947,-0.0383,0.0142,0.3011,124.69,-83.98,938.11,247,162,-265
  1512178947,0.0479,0.0449,0.3056,145.32,-68.91,1032.17,247,162,-265
  1512178947,-0.0234,0.0204,0.3159,94.85,-147.34,1068.91,251,148,-269
  1512178947,-0.1128,-0.0112,0.3254,165.89,-129.58,980.90,251,148,-269
  1512178947,-0.0423,0.0023,0.3236,122.62,-119.02,989.38,251,148,-269
  1512178947,-0.0393,-0.0083,0.3310,110.90,-141.24,961.43,251,148,-269
  1512178947,0.0124,-0.0008,0.3338,135.74,-185.91,946.96,267,156,-240
  1512178947,-0.0112,-0.0120,0.3361,167.97,-216.61,874.15,267,156,-240
  1512178947,-0.0168,-0.0184,0.3435,151.79,-203.98,929.14,267,156,-240
  1512178947,-0.0097,-0.0188,0.3437,139.22,-184.14,1055.85,267,156,-240
  1512178947,0.0224,-0.0132,0.3527,161.13,-150.82,1030.15,267,156,-240
  1512178947,-0.0238,-0.0011,0.3659,174.19,-237.00,910.89,261,141,-258
  1512178947,-0.0704,-0.0277,0.3684,132.69,-178.89,909.55,261,141,-258
  1512178947,-0.1253,-0.0381,0.3743,132.81,-193.60,1039.92,261,141,-258
  1512178947,-0.0928,-0.0136,0.3798,181.27,-213.68,974.73,261,141,-258
  1512178947,-0.0888,-0.0080,0.3724,139.53,-224.91,986.39,274,139,-270
  1512178947,-0.0644,0.0217,0.3704,191.35,-174.68,1000.79,274,139,-270
  1512178947,-0.0047,0.0280,0.3903,163.33,-183.41,1035.03,274,139,-270
  1512178947,-0.1068,-0.0001,0.3949,179.14,-228.39,1120.18,274,139,-270
  1512178947,-0.0768,0.0001,0.3944,132.26,-177.55,1033.39,274,139,-270
  1512178947,-0.1154,-0.0209,0.4016,114.56,-170.23,1074.58,286,137,-269
  1512178948,-0.0889,-0.0140,0.4076,136.29,-159.06,998.96,286,137,-269
  1512178948,0.0168,0.0226,0.4041,148.25,-170.96,960.14,286,137,-269
  1512178948,-0.0546,0.0087,0.4112,82.58,-195.62,965.03,286,137,-269
  1512178948,-0.1502,-0.0071,0.4153,179.44,-202.27,887.39,286,137,-269
  1512178948,-0.1150,0.0111,0.4085,181.82,-215.52,934.20,281,118,-257
  1512178948,-0.0963,0.0055,0.4089,139.95,-194.27,1010.07,281,118,-257
  1512178948,-0.0782,0.0272,0.4128,183.11,-213.56,885.13,281,118,-257
  1512178948,-0.1322,0.0112,0.4206,160.28,-256.65,952.21,281,118,-257
  1512178948,-0.1017,0.0169,0.4233,146.79,-235.29,833.37,305,135,-257
  1512178948,-0.1284,-0.0015,0.4260,127.56,-250.98,905.40,305,135,-257
  1512178948,-0.1558,-0.0085,0.4377,134.58,-255.62,908.81,305,135,-257
  1512178948,-0.1111,0.0127,0.4298,134.95,-222.35,985.96,305,135,-257
  1512178948,-0.0499,0.0302,0.4344,177.86,-214.29,984.80,305,135,-257
  1512178948,0.0047,0.0373,0.4301,124.94,-181.09,1032.65,303,133,-279
  1512178948,-0.0137,0.0162,0.4525,180.79,-184.63,1054.08,303,133,-279
  1512178948,0.0069,0.0204,0.4630,130.19,-274.17,1112.85,303,133,-279
  1512178948,0.0814,0.0148,0.4746,146.61,-269.29,1048.22,303,133,-279
  1512178948,0.0044,0.0107,0.4213,151.67,-224.24,917.30,303,133,-279
  1512178948,-0.0029,0.0048,0.4236,98.14,-218.99,989.44,330,132,-270
  1512178948,0.0369,0.0035,0.4278,122.56,-216.61,1032.78,330,132,-270
  1512178948,0.0601,0.0185,0.4173,113.77,-143.98,932.92,330,132,-270
