RTC has set the system time
Mag Calibration: Wave device in a figure 8 until done!
4 seconds to get ready followed by 15 seconds of sampling)
Mag Calibration done!
time_unix,rotate_x,rotate_y,rotate_z,acc_x,acc_y,acc_z,mag_x,mag_y,mag_z
1512178557,-0.0112,0.0024,-0.0024,-42.60,-1.10,935.30,-3,5,1
1512178557,0.0262,-0.0033,0.0008,-51.70,-0.55,938.35,-3,5,1
1512178557,0.0108,0.0003,-0.0016,-37.35,7.81,967.29,-3,5,1
1512178557,-0.0083,0.0012,-0.0007,-54.20,2.50,952.27,5,-3,-6
1512178557,0.0112,0.0001,-0.0011,-45.04,-9.16,939.58,5,-3,-6
1512178557,0.0228,-0.0012,-0.0023,-43.52,6.59,954.96,5,-3,-6
1512178557,0.0169,0.0000,-0.0005,-48.58,6.04,948.49,5,-3,-6
1512178557,-0.0146,0.0004,-0.0005,-43.64,-1.53,955.38,5,-3,-6
1512178557,0.0103,-0.0008,-0.0019,-44.92,0.37,952.45,5,14,3
1512178557,0.0246,-0.0036,-0.0001,-49.93,5.07,941.77,5,14,3
1512178557,0.0092,-0.0001,-0.0016,-41.38,4.94,965.94,5,14,3
1512178557,-0.0076,0.0001,-0.0013,-52.19,4.39,944.15,5,14,3
1512178557,-0.0040,0.0039,-0.0023,-39.67,-10.25,952.88,-5,10,-13
1512178557,0.0166,-0.0017,-0.0016,-44.86,8.79,969.48,-5,10,-13
1512178557,0.0019,-0.0005,-0.0001,-54.14,6.04,951.90,-5,10,-13
1512178557,-0.0153,0.0039,-0.0023,-43.03,-5.37,953.92,-5,10,-13
1512178557,-0.0089,0.0020,-0.0016,-48.10,-1.22,945.74,-5,10,-13
1512178557,0.0236,-0.0031,0.0000,-51.76,8.61,954.65,-1,3,-10
1512178557,-0.0073,-0.0003,-0.0007,-49.26,-2.08,963.62,-1,3,-10
1512178557,-0.0188,0.0028,-0.0016,-45.41,-3.78,941.35,-1,3,-10
1512178557,0.0150,0.0032,0.0005,-24.60,3.97,976.75,-1,3,-10
1512178557,0.0077,-0.0092,0.0009,-65.49,-11.66,949.04,-1,3,-10
1512178557,-0.0238,0.0056,-0.0020,-67.69,-18.98,952.27,-5,10,-16
1512178557,-0.0221,0.0075,-0.0025,-69.34,-26.55,937.81,-5,10,-16
1512178557,-0.0029,0.0024,-0.0004,-72.63,-18.74,957.46,-5,10,-16
1512178557,-0.0007,0.0040,0.0015,-82.15,-37.29,944.89,-5,10,-16
1512178557,-0.0029,0.0003,0.0004,-87.71,-31.62,963.99,1,7,-3
1512178557,0.0060,-0.0021,-0.0001,-71.59,-18.01,962.89,1,7,-3
1512178558,0.0161,-0.0028,-0.0011,-80.51,-39.98,945.37,1,7,-3
1512178558,-0.0180,-0.0004,-0.0007,-80.38,-36.19,951.97,1,7,-3
1512178558,0.0036,-0.0009,-0.0011,-70.56,-24.23,950.93,1,7,-3
1512178558,0.0144,0.0035,0.0003,-81.97,-42.18,958.44,-14,22,8
1512178558,0.0015,0.0029,-0.0009,-67.93,-16.97,967.53,-14,22,8
1512178558,-0.0051,0.0020,-0.0017,-77.51,-30.58,945.86,-14,22,8
1512178558,0.0076,0.0027,-0.0001,-81.91,-38.09,958.25,-14,22,8
1512178558,-0.0109,0.0016,0.0009,-69.03,-28.93,959.59,-14,22,8
1512178558,-0.0020,0.0027,0.0011,-76.48,-32.65,934.75,14,8,5
1512178558,0.0036,0.0029,-0.0001,-82.34,-42.85,953.74,14,8,5
1512178558,0.0040,-0.0003,0.0009,-67.75,-17.64,964.36,14,8,5
1512178558,0.0084,0.0012,-0.0005,-98.63,-30.15,950.13,14,8,5
1512178558,0.0027,0.0025,-0.0011,-86.61,-39.86,958.07,0,1,1
1512178558,0.0008,0.0009,-0.0013,-77.39,-17.33,966.67,0,1,1
1512178558,0.0060,-0.0007,0.0001,-99.73,-30.46,955.87,0,1,1
1512178558,0.0000,0.0020,-0.0011,-81.18,-25.33,961.67,0,1,1
1512178558,0.0068,-0.0016,0.0013,-74.22,-15.63,959.41,0,1,1
1512178558,0.0101,-0.0011,-0.0003,-93.20,-33.51,946.17,-5,-7,3
1512178558,0.0032,-0.0027,0.0005,-72.94,-29.42,955.57,-5,-7,3
1512178558,0.0053,-0.0028,0.0003,-70.86,-11.05,968.14,-5,-7,3
1512178558,0.0077,-0.0017,0.0000,-95.28,-34.79,947.14,-5,-7,3
1512178558,0.0051,0.0016,-0.0009,-86.43,-30.40,975.28,-5,-7,3
1512178558,-0.0016,0.0021,-0.0003,-79.10,-27.83,970.03,10,-5,1
1512178558,0.0032,0.0000,0.0013,-92.16,-35.58,948.79,10,-5,1
1512178558,0.0170,-0.0019,0.0007,-94.85,-37.84,951.60,10,-5,1
1512178558,-0.0067,-0.0007,0.0016,-88.07,-33.14,970.52,10,-5,1
1512178558,-0.0037,-0.0012,0.0017,-91.31,-34.91,957.15,0,5,8
1512178558,0.0127,0.0024,-0.0005,-110.05,-49.13,912.90,0,5,8
1512178558,0.0186,-0.0005,-0.0016,-92.04,-38.45,964.17,0,5,8
1512178558,-0.0101,0.0017,-0.0011,-93.81,-51.09,979.55,0,5,8
1512178558,-0.0202,-0.0024,-0.0001,-95.58,-39.61,957.64,0,5,8
1512178558,0.0208,-0.0019,-0.0001,-110.29,-51.27,915.77,-8,-10,3
1512178558,0.0346,0.0004,0.0012,-113.53,-59.57,921.75,-8,-10,3
1512178558,0.0063,0.0044,0.0015,-100.04,-55.85,994.14,-8,-10,3
1512178558,-0.0391,0.0081,0.0012,-93.75,-60.36,969.12,-8,-10,3
1512178558,-0.0352,0.0020,0.0004,-99.79,-53.47,941.41,-19,0,13
1512178558,0.0361,-0.0027,0.0016,-108.46,-40.71,901.31,-19,0,13
1512178558,0.0698,-0.0068,0.0029,-132.57,-44.49,871.70,-19,0,13
1512178559,0.0613,0.0000,0.0028,-124.27,-81.91,942.38,-19,0,13
1512178559,-0.0875,0.0084,0.0027,-131.84,-97.72,1026.73,-19,0,13
1512178559,-0.1194,0.0109,-0.0004,-143.62,-114.62,1026.37,1,-7,-3
1512178559,-0.1342,0.0095,0.0015,-162.96,-76.84,983.22,1,-7,-3
1512178559,-0.0490,0.0065,0.0001,-150.09,-74.04,943.36,1,-7,-3
1512178559,-0.0554,0.0063,0.0009,-178.34,-98.14,968.63,1,-7,-3
1512178559,-0.0582,0.0097,0.0003,-174.19,-110.41,973.51,1,-7,-3
1512178559,-0.0672,0.0133,-0.0001,-164.73,-115.78,963.26,12,-3,10
1512178559,-0.0076,0.0060,0.0028,-152.10,-100.40,960.14,12,-3,10
1512178559,0.0109,0.0036,0.0060,-154.72,-101.81,960.21,12,-3,10
1512178559,0.0149,0.0001,0.0057,-160.22,-103.82,962.16,12,-3,10
1512178559,0.0297,-0.0007,0.0059,-173.10,-112.49,935.30,7,1,8
1512178559,0.0161,-0.0021,0.0023,-173.58,-106.93,958.13,7,1,8
1512178559,-0.0079,0.0023,-0.0020,-160.52,-107.60,946.96,7,1,8
1512178559,-0.0212,0.0064,-0.0064,-166.93,-106.32,951.84,7,1,8
1512178559,-0.0236,0.0060,-0.0075,-161.80,-129.82,947.14,7,1,8
1512178559,0.0123,-0.0009,-0.0035,-161.50,-123.78,933.23,5,10,-6
1512178559,0.0330,-0.0037,-0.0025,-156.56,-133.67,927.98,5,10,-6
1512178559,0.0389,-0.0056,0.0007,-180.24,-99.24,918.58,5,10,-6
1512178559,0.0575,-0.0016,0.0047,-184.88,-111.39,916.81,5,10,-6
1512178559,0.0499,0.0007,0.0025,-190.92,-118.84,899.72,5,10,-6
1512178559,-0.0220,0.0096,0.0013,-193.18,-142.52,989.44,0,5,-5
1512178559,-0.0441,0.0141,-0.0012,-160.16,-125.37,949.16,0,5,-5
1512178559,0.0498,0.0003,0.0009,-172.06,-101.20,918.58,0,5,-5
1512178559,0.0441,-0.0039,-0.0001,-171.57,-102.11,962.34,0,5,-5
1512178559,0.0190,0.0027,-0.0015,-154.36,-93.20,966.92,3,5,11
1512178559,-0.0260,0.0080,-0.0027,-178.34,-98.63,965.15,3,5,11
1512178559,-0.0080,0.0041,-0.0017,-159.73,-86.98,988.16,3,5,11
1512178559,-0.0128,0.0045,-0.0005,-147.34,-115.11,954.41,3,5,11
1512178559,0.0008,-0.0044,0.0025,-154.24,-78.12,968.20,3,5,11
1512178559,-0.0088,-0.0035,0.0001,-148.62,-93.32,949.95,14,5,15
1512178559,-0.0352,0.0004,-0.0011,-166.44,-92.90,949.89,14,5,15
1512178559,-0.0483,-0.0027,-0.0016,-171.33,-85.75,958.74,14,5,15
1512178559,-0.0144,0.0004,-0.0005,-177.25,-90.45,945.43,14,5,15
1512178559,0.0224,0.0037,-0.0015,-137.21,-114.56,940.25,-1,-10,6
1512178559,0.0249,-0.0020,-0.0021,-141.48,-99.24,937.01,-1,-10,6
1512178559,0.0547,-0.0104,0.0009,-148.93,-105.41,930.11,-1,-10,6
1512178559,0.0225,-0.0064,-0.0004,-147.22,-80.81,942.26,-1,-10,6
1512178560,0.0286,0.0056,0.0000,-133.48,-89.23,950.44,-1,-10,6
1512178560,-0.0352,0.0083,-0.0005,-142.09,-93.08,979.55,-3,1,1
1512178560,-0.0585,0.0083,0.0012,-153.26,-106.02,961.12,-3,1,1
1512178560,-0.0593,0.0079,-0.0013,-134.83,-101.81,947.63,-3,1,1
1512178560,0.0028,0.0087,-0.0017,-112.61,-78.00,957.82,-3,1,1
1512178560,-0.0374,0.0080,-0.0036,-156.68,-98.51,975.22,-3,1,1
1512178560,-0.0208,0.0031,-0.0048,-126.28,-71.78,992.00,3,19,-1
1512178560,-0.0108,0.0017,0.0001,-165.53,-74.89,954.22,3,19,-1
1512178560,0.0352,-0.0063,-0.0033,-139.89,-54.75,942.38,3,19,-1
1512178560,0.1001,-0.0153,0.0009,-165.89,-94.91,906.98,3,19,-1
1512178560,0.0409,-0.0025,0.0012,-127.26,-88.81,933.23,-3,-1,8
1512178560,-0.0282,0.0045,0.0079,-92.47,-125.24,948.49,-3,-1,8
1512178560,0.0025,-0.0036,0.0059,-131.53,-89.72,941.04,-3,-1,8
1512178560,-0.0029,-0.0007,0.0039,-121.89,-93.93,934.75,-3,-1,8
1512178560,0.0385,-0.0039,0.0039,-99.79,-70.13,880.68,-3,-1,8
1512178560,0.0364,-0.0029,0.0103,-138.43,-33.75,949.34,-7,1,11
1512178560,-0.0177,-0.0064,0.0069,-120.12,-36.62,981.38,-7,1,11
1512178560,0.0491,-0.0200,0.0121,-188.96,-26.18,933.84,-7,1,11
1512178560,0.0402,-0.0109,0.0178,-121.46,-49.80,925.66,-7,1,11
1512178560,0.0369,-0.0083,0.0150,-105.77,-96.56,923.34,-7,1,11
1512178560,-0.0320,0.0027,0.0205,-108.28,-123.96,995.18,0,8,11
1512178560,-0.0230,0.0052,0.0212,-99.55,-139.28,946.35,0,8,11
1512178560,-0.0726,0.0059,0.0282,-103.15,-133.67,958.19,0,8,11
1512178560,-0.1073,0.0005,0.0272,-116.39,-120.00,954.22,0,8,11
1512178560,-0.0051,0.0017,0.0383,-103.09,-112.85,977.42,-5,3,6
1512178560,-0.0188,0.0009,0.0511,-140.62,-104.61,971.07,-5,3,6
1512178560,0.0357,0.0056,0.0718,-60.00,-75.93,917.30,-5,3,6
1512178560,0.1096,-0.0037,0.2465,-85.82,-40.59,960.33,-5,3,6
1512178560,0.0414,-0.0065,0.3876,-103.70,-65.43,943.48,-5,3,6
1512178560,0.1033,0.0357,0.5486,-84.84,-21.55,875.12,-7,-1,-18
1512178560,0.1336,0.0146,0.6763,-105.59,-36.50,874.15,-7,-1,-18
1512178560,0.4053,0.2791,1.0093,-80.44,5.37,819.52,-7,-1,-18
1512178560,1.5308,1.8144,1.3018,-171.87,18.37,1006.35,-7,-1,-18
1512178560,1.3381,1.4570,1.1175,-148.56,-383.91,1438.05,-7,-1,-18
1512178560,-0.2594,-0.7281,0.3439,-235.60,-1.22,744.26,-10,-37,-333
1512178560,-0.3798,-0.4445,0.1326,-54.02,-106.45,1033.57,-10,-37,-333
1512178560,0.3565,0.5051,0.0948,-189.58,-36.87,860.53,-10,-37,-333
1512178561,0.3137,0.2643,0.0811,-184.08,-21.91,1000.31,-10,-37,-333
1512178561,-0.1844,-0.3109,0.0852,-126.10,-67.99,923.46,-7,-37,-313
1512178561,0.0746,0.1362,0.0968,-133.67,-30.33,943.18,-7,-37,-313
1512178561,0.0497,0.0525,0.1035,-186.16,-17.27,977.11,-7,-37,-313
1512178561,-0.0344,-0.0840,0.1044,-151.92,-27.53,916.63,-7,-37,-313
1512178561,0.0527,0.0664,0.1123,-161.50,-59.57,977.17,-7,-37,-313
1512178561,-0.0728,-0.0353,0.1209,-146.12,-34.36,1020.69,5,-35,-311
1512178561,-0.0286,0.0125,0.1305,-152.28,-56.52,982.42,5,-35,-311
1512178561,-0.0095,-0.0055,0.1288,-137.57,-5.55,942.02,5,-35,-311
1512178561,0.0868,0.0732,0.1397,-185.36,-44.31,919.43,5,-35,-311
1512178561,-0.0145,-0.0278,0.1389,-125.73,-34.06,952.88,8,-35,-311
1512178561,0.0655,0.0715,0.1471,-179.44,4.46,950.56,8,-35,-311
1512178561,-0.0541,-0.0265,0.1507,-161.80,-28.99,952.21,8,-35,-311
1512178561,0.0233,0.0499,0.1570,-131.77,-18.49,924.87,8,-35,-311
1512178561,0.0017,0.0051,0.1643,-197.69,-4.88,942.50,8,-35,-311
1512178561,0.0096,0.0081,0.1630,-152.59,-16.54,868.96,-7,-40,-302
1512178561,0.0394,0.0218,0.1587,-153.14,-30.09,947.02,-7,-40,-302
1512178561,-0.0518,-0.0150,0.1618,-146.36,-48.58,919.92,-7,-40,-302
1512178561,-0.0237,-0.0125,0.1652,-176.03,-16.66,927.55,-7,-40,-302
1512178561,-0.0035,-0.0103,0.1647,-141.24,-14.16,919.37,-7,-40,-302
1512178561,-0.0229,0.0023,0.1660,-148.38,-16.05,964.66,-7,-33,-302
1512178561,-0.0435,-0.0252,0.1699,-176.64,1.77,915.28,-7,-33,-302
1512178561,0.0208,0.0385,0.1676,-134.70,-22.16,987.18,-7,-33,-302
1512178561,-0.0534,-0.0288,0.1723,-112.12,-23.38,981.26,-7,-33,-302
1512178561,-0.0087,0.0202,0.1740,-143.92,-27.77,955.44,-5,-38,-311
1512178561,-0.0165,-0.0217,0.1795,-138.31,-26.25,939.33,-5,-38,-311
1512178561,0.0266,0.0177,0.1871,-143.55,-33.20,886.60,-5,-38,-311
1512178561,-0.0368,-0.0168,0.1867,-133.79,-11.05,930.66,-5,-38,-311
1512178561,-0.0481,0.0193,0.1927,-139.83,-15.38,956.30,-5,-38,-311
1512178561,-0.1384,-0.0514,0.1968,-150.57,-19.41,947.81,-5,-38,-308
1512178561,-0.0459,0.0196,0.1960,-148.80,-9.34,913.27,-5,-38,-308
1512178561,-0.0574,-0.0443,0.1953,-140.32,-50.54,922.42,-5,-38,-308
1512178561,0.0214,0.0358,0.2000,-135.01,-40.83,933.29,-5,-38,-308
1512178561,-0.0236,-0.0587,0.1975,-129.09,-38.15,953.86,-5,-38,-308
1512178561,-0.0053,0.0447,0.2007,-99.06,-64.33,964.90,-8,-49,-304
1512178561,-0.0784,-0.0421,0.2024,-72.02,-41.81,1002.32,-8,-49,-304
1512178561,-0.0483,0.0142,0.2131,-119.81,-46.63,985.41,-8,-49,-304
1512178561,-0.0368,-0.0202,0.2133,-101.87,-50.54,979.61,-8,-49,-304
1512178562,-0.0138,0.0008,0.2154,-94.24,-35.28,978.58,-5,-42,-308
1512178562,-0.0403,-0.0194,0.2170,-79.59,-71.35,1034.24,-5,-42,-308
1512178562,0.0023,0.0021,0.2166,-59.45,-66.10,981.81,-5,-42,-308
1512178562,0.0605,0.0487,0.2276,-114.32,-54.99,979.55,-5,-42,-308
1512178562,-0.0294,-0.0132,0.2317,-83.68,-31.62,981.38,-5,-42,-308
1512178562,0.0317,0.0185,0.2289,-128.78,-43.46,922.67,1,-45,-314
1512178562,-0.0425,0.0015,0.2324,-143.31,-2.62,932.74,1,-45,-314
1512178562,0.0407,0.0533,0.2349,-104.55,-14.10,931.64,1,-45,-314
1512178562,-0.0298,0.0321,0.2365,-128.11,-10.38,943.36,1,-45,-314
1512178562,0.0166,0.0712,0.2320,-125.00,-77.64,980.83,1,-63,-314
1512178562,-0.1123,0.0041,0.2333,-98.33,-79.41,1005.37,1,-63,-314
1512178562,-0.0378,-0.0003,0.2333,-95.34,-18.01,960.82,1,-63,-314
1512178562,-0.0037,0.0124,0.2326,-129.64,-57.86,964.05,1,-63,-314
1512178562,0.0025,-0.0202,0.2302,-72.63,-76.29,868.53,1,-63,-314
1512178562,-0.0076,0.0198,0.2317,-94.60,-78.74,954.41,-17,-75,-309
1512178562,-0.0887,-0.0318,0.2393,-97.35,-25.15,906.37,-17,-75,-309
1512178562,0.0282,0.0264,0.2433,-155.82,-16.91,881.16,-17,-75,-309
1512178562,-0.0160,-0.0089,0.2427,-106.32,-9.46,879.03,-17,-75,-309
1512178562,0.0538,0.0402,0.2438,-109.19,-44.31,919.07,-17,-75,-309
1512178562,-0.0804,-0.0313,0.2451,-72.45,-76.90,936.22,-22,-81,-314
1512178562,0.0252,0.0469,0.2474,-153.99,6.04,966.98,-22,-81,-314
1512178562,-0.0594,-0.0360,0.2451,-121.77,-62.01,978.45,-22,-81,-314
1512178562,-0.0272,0.0391,0.2407,-110.05,-66.59,1008.12,-22,-81,-314
1512178562,-0.0884,-0.0300,0.2418,-74.89,-104.00,984.62,-14,-86,-316
1512178562,-0.0558,0.0466,0.2374,-107.79,-38.82,968.87,-14,-86,-316
1512178562,-0.0611,-0.0591,0.2372,-143.43,-4.52,943.79,-14,-86,-316
1512178562,-0.0099,0.0306,0.2370,-149.66,-6.23,985.90,-14,-86,-316
1512178562,-0.0760,-0.0667,0.2381,-111.82,-15.81,923.77,-14,-86,-316
1512178562,0.0602,0.0273,0.2373,-96.37,-20.39,936.10,-17,-82,-302
1512178562,0.0178,0.0113,0.2389,-75.56,-95.09,919.98,-17,-82,-302
1512178562,0.0154,0.0258,0.2368,-33.57,-115.66,1005.00,-17,-82,-302
1512178562,-0.0739,-0.0254,0.2340,-89.84,-109.31,1013.85,-17,-82,-302
1512178562,-0.0975,-0.0338,0.2313,-137.94,-59.88,1043.40,-21,-89,-306
1512178562,-0.0360,-0.0224,0.2264,-110.35,-32.96,975.22,-21,-89,-306
1512178562,0.0116,0.0029,0.2309,-112.43,10.44,977.91,-21,-89,-306
1512178562,0.0177,-0.0305,0.2321,-114.87,13.55,953.19,-21,-89,-306
1512178562,-0.0193,-0.0212,0.2334,-79.41,-35.34,950.62,-21,-89,-306
1512178562,0.0153,-0.0312,0.2310,-89.17,5.43,924.38,-21,-104,-316
1512178563,-0.0154,-0.0274,0.2318,-138.67,-30.94,907.96,-21,-104,-316
1512178563,0.0233,0.0081,0.2261,-76.78,-37.66,924.50,-21,-104,-316
1512178563,-0.0278,-0.0354,0.2265,-84.35,-33.69,936.89,-21,-104,-316
1512178563,0.0389,0.0487,0.2225,54.57,-25.02,956.97,-21,-104,-316
1512178563,-0.0875,-0.0337,0.2226,-54.32,-2.08,1025.15,-19,-123,-301
1512178563,-0.0732,0.0052,0.2190,-74.34,-16.72,992.13,-19,-123,-301
1512178563,-0.0663,-0.0381,0.2168,-73.61,-3.60,942.87,-19,-123,-301
1512178563,0.0253,0.0619,0.2099,-55.05,-88.38,927.61,-19,-123,-301
1512178563,-0.0734,-0.0146,0.2184,-37.17,-40.53,926.82,-29,-119,-311
1512178563,-0.0007,0.0625,0.2145,-80.75,-35.95,930.24,-29,-119,-311
1512178563,0.0208,0.0164,0.2117,-56.95,-19.78,937.68,-29,-119,-311
1512178563,0.0908,0.0529,0.2125,-118.35,2.44,937.13,-29,-119,-311
1512178563,0.0931,0.0518,0.2128,-133.61,-22.03,1006.90,-29,-119,-311
1512178563,-0.0662,-0.0201,0.2027,-76.90,-11.17,979.86,-8,-109,-314
1512178563,-0.0148,0.0314,0.2043,-98.57,-7.14,943.54,-8,-109,-314
1512178563,-0.0153,0.0201,0.2011,-40.71,-5.86,1014.10,-8,-109,-314
1512178563,-0.0229,-0.0210,0.2007,-84.90,2.14,915.47,-8,-109,-314
1512178563,0.0644,0.0603,0.1956,-37.60,31.80,994.57,-8,-109,-314
1512178563,-0.1073,-0.0308,0.1983,-65.49,6.41,1004.76,-21,-118,-330
1512178563,-0.0421,-0.0007,0.1927,-47.36,-13.31,930.91,-21,-118,-330
1512178563,-0.0617,-0.0128,0.1955,-56.40,-23.56,952.76,-21,-118,-330
1512178563,-0.0955,-0.0410,0.1973,-49.87,8.30,938.35,-21,-118,-330
1512178563,-0.0156,0.0048,0.1960,15.63,3.23,910.89,-15,-133,-311
1512178563,0.0152,0.0160,0.1936,-62.50,-17.33,933.47,-15,-133,-311
1512178563,-0.0321,-0.0482,0.1905,-39.43,-64.39,890.99,-15,-133,-311
1512178563,-0.0019,0.0274,0.1925,-58.72,-3.85,957.34,-15,-133,-311
1512178563,0.0276,-0.0184,0.1867,-56.76,10.50,963.93,-15,-133,-311
1512178563,0.0084,-0.0146,0.1850,-31.43,-7.08,989.38,-8,-126,-321
1512178563,0.0145,0.0028,0.1858,6.90,-10.62,950.56,-8,-126,-321
1512178563,0.0166,-0.0037,0.1792,-3.42,-4.21,910.10,-8,-126,-321
1512178563,-0.0297,0.0374,0.1762,-9.95,0.92,962.89,-8,-126,-321
1512178563,0.0088,0.0138,0.1727,-37.96,63.54,927.49,-15,-119,-314
1512178563,0.0474,0.0867,0.1660,-84.47,7.39,980.53,-15,-119,-314
1512178563,-0.0262,-0.0260,0.1651,-75.62,55.36,986.15,-15,-119,-314
1512178563,0.0286,0.0076,0.1675,-65.61,57.37,916.99,-15,-119,-314
1512178563,0.0710,0.0338,0.1647,-39.18,25.88,954.65,-15,-119,-314
1512178563,-0.0397,-0.0173,0.1609,-69.58,8.97,986.21,-14,-128,-326
1512178564,-0.0421,0.0072,0.1573,-36.93,65.12,1009.89,-14,-128,-326
1512178564,-0.0711,-0.0189,0.1517,-52.19,38.57,1005.37,-14,-128,-326
1512178564,-0.0879,-0.0497,0.1475,-75.62,37.54,935.00,-14,-128,-326
1512178564,0.0300,0.0161,0.1433,-51.82,46.26,878.54,-14,-128,-326
1512178564,0.0526,0.0015,0.1443,-16.66,75.50,947.88,-10,-128,-313
1512178564,-0.0242,-0.0097,0.1386,-31.74,56.70,955.08,-10,-128,-313
1512178564,-0.0688,-0.0341,0.1372,-59.08,53.77,970.03,-10,-128,-313
1512178564,-0.0314,-0.0081,0.1368,-48.28,91.49,920.59,-10,-128,-313
1512178564,-0.0095,-0.0233,0.1309,-40.59,79.04,894.78,-12,-148,-301
1512178564,0.0418,0.0150,0.1289,-46.75,82.28,941.10,-12,-148,-301
1512178564,0.0286,0.0013,0.1217,-35.22,64.64,956.24,-12,-148,-301
1512178564,0.0093,-0.0032,0.1185,-34.85,51.64,977.17,-12,-148,-301
1512178564,-0.0148,0.0194,0.1166,-20.14,39.31,1002.38,-12,-148,-301
1512178564,-0.0145,-0.0124,0.1112,-64.76,60.91,971.31,-7,-142,-319
1512178564,0.0368,0.0125,0.1068,-53.83,29.17,890.81,-7,-142,-319
1512178564,0.0486,0.0304,0.1044,-62.26,87.16,1009.40,-7,-142,-319
1512178564,-0.0501,-0.0523,0.1032,-28.02,39.98,931.52,-7,-142,-319
1512178564,0.0692,0.0591,0.1052,-90.82,48.58,898.07,-7,-142,-319
1512178564,0.0541,-0.0001,0.1064,-56.58,32.23,914.06,-7,-156,-316
1512178564,0.0648,0.0349,0.1031,-52.55,29.66,953.19,-7,-156,-316
1512178564,-0.0024,-0.0403,0.1009,-73.85,37.05,914.06,-7,-156,-316
1512178564,0.0257,0.0378,0.0967,-66.89,94.30,983.64,-7,-156,-316
1512178564,-0.0457,-0.0244,0.0915,-82.52,98.82,979.25,-5,-172,-321
1512178564,0.0150,0.0093,0.0879,-84.05,114.56,971.25,-5,-172,-321
1512178564,0.0004,-0.0198,0.0860,-86.49,92.10,947.75,-5,-172,-321
1512178564,0.0104,-0.0099,0.0768,-60.91,38.51,942.32,-5,-172,-321
1512178564,0.0385,-0.0393,0.0722,-51.94,52.12,907.23,-5,-172,-321
1512178564,0.0455,0.0614,0.0663,-72.39,46.69,904.79,7,-156,-319
1512178564,-0.0085,0.0108,0.0658,-57.62,97.29,958.86,7,-156,-319
1512178564,-0.0201,-0.0027,0.0654,-101.50,73.43,955.75,7,-156,-319
1512178564,-0.0939,-0.0300,0.0691,-58.72,93.81,945.98,7,-156,-319
1512178564,0.0212,0.0578,0.0687,-109.31,67.26,944.40,1,-169,-314
1512178564,-0.0726,-0.0222,0.0639,-81.85,50.84,963.68,1,-169,-314
1512178564,0.0746,0.0710,0.0711,-59.39,54.75,998.78,1,-169,-314
1512178564,-0.0222,-0.0216,0.0643,-73.49,12.63,954.96,1,-169,-314
1512178564,-0.0659,-0.0031,0.0583,-10.56,8.12,954.22,1,-169,-314
1512178564,-0.0430,0.0272,0.0625,-38.45,62.01,998.66,-19,-169,-314
1512178564,-0.0511,-0.0165,0.0518,-29.05,55.79,1003.48,-19,-169,-314
1512178565,-0.0658,-0.0415,0.0611,-94.54,92.71,920.53,-19,-169,-314
1512178565,0.0387,0.0348,0.0550,-74.71,100.77,919.98,-19,-169,-314
1512178565,-0.0233,-0.0531,0.0558,-84.72,68.60,886.23,-19,-169,-314
1512178565,0.0505,0.0454,0.0517,-20.20,33.87,868.90,-1,-169,-304
1512178565,0.0270,0.0570,0.0486,-44.92,4.76,938.11,-1,-169,-304
1512178565,0.0250,0.0482,0.0499,-30.94,47.85,934.08,-1,-169,-304
1512178565,0.0213,0.0240,0.0486,-54.57,61.04,964.17,-1,-169,-304
1512178565,-0.0370,-0.0053,0.0585,-127.87,101.26,936.40,-7,-167,-319
1512178565,0.0414,0.0052,0.0626,-60.42,127.87,958.92,-7,-167,-319
1512178565,-0.0168,0.0088,0.0591,-91.43,82.52,996.70,-7,-167,-319
1512178565,-0.0901,-0.0498,0.0594,-37.84,74.95,934.81,-7,-167,-319
1512178565,0.0450,0.0309,0.0583,-71.23,80.75,943.24,-7,-167,-319
1512178565,-0.0543,-0.0344,0.0557,-64.33,87.83,974.12,-8,-151,-311
1512178565,-0.0285,-0.0063,0.0581,-103.27,102.11,956.24,-8,-151,-311
1512178565,0.0027,-0.0575,0.0545,-67.99,131.23,888.61,-8,-151,-311
1512178565,0.0779,0.0479,0.0503,-68.36,13.85,975.95,-8,-151,-311
1512178565,-0.0740,-0.0603,0.0511,-36.38,46.75,913.21,-7,-167,-292
1512178565,0.0594,0.0670,0.0610,-93.81,80.51,976.26,-7,-167,-292
1512178565,-0.0770,-0.0505,0.0551,-60.06,41.20,988.89,-7,-167,-292
1512178565,0.0262,0.0358,0.0575,-73.18,81.36,938.60,-7,-167,-292
1512178565,0.0136,-0.0230,0.0563,-58.29,27.34,928.71,-7,-167,-292
1512178565,0.0495,0.0345,0.0549,-23.99,29.05,902.28,-1,-169,-301
1512178565,0.0433,0.0292,0.0535,-40.83,52.98,966.37,-1,-169,-301
1512178565,-0.0650,-0.0242,0.0549,-77.82,25.88,989.38,-1,-169,-301
1512178565,0.0413,-0.0079,0.0561,-58.41,118.84,902.04,-1,-169,-301
1512178565,0.0977,0.0309,0.0573,-112.61,108.15,910.58,-1,-169,-301
1512178565,-0.0269,-0.0453,0.0606,-59.20,83.68,947.57,-12,-169,-308
1512178565,0.0226,0.0336,0.0553,-44.37,63.90,969.06,-12,-169,-308
1512178565,-0.0917,-0.0415,0.0549,-10.93,45.59,960.51,-12,-169,-308
1512178565,0.0249,0.0434,0.0577,-71.04,48.95,939.58,-12,-169,-308
1512178565,0.0309,-0.0213,0.0622,-78.67,79.96,927.12,-12,-179,-304
1512178565,0.1176,0.0160,0.0630,-56.34,41.69,916.32,-12,-179,-304
1512178565,0.0210,-0.0337,0.0688,-57.31,78.43,937.93,-12,-179,-304
1512178565,0.0374,0.0238,0.0732,-81.30,86.55,964.78,-12,-179,-304
1512178565,-0.0360,-0.0262,0.0738,-27.22,81.18,1004.33,-12,-179,-304
1512178565,0.0458,0.0427,0.0707,-47.85,37.05,1004.94,-8,-162,-304
1512178565,-0.1393,-0.0426,0.0764,-42.72,49.38,975.65,-8,-162,-304
1512178565,0.0145,0.0385,0.0746,-10.50,65.12,957.58,-8,-162,-304
1512178566,-0.0197,-0.0266,0.0831,-29.05,54.50,964.23,-8,-162,-304
1512178566,0.0557,0.0194,0.0872,-52.19,64.94,923.83,-8,-162,-304
1512178566,0.0804,0.0081,0.0854,-50.17,65.55,956.36,-7,-167,-299
1512178566,0.0273,0.0125,0.0897,-60.24,37.17,949.65,-7,-167,-299
1512178566,-0.0407,-0.0344,0.0949,-35.16,32.17,931.27,-7,-167,-299
1512178566,-0.0047,0.0362,0.0957,-15.56,15.08,947.33,-7,-167,-299
1512178566,-0.0920,-0.0494,0.1020,-57.43,17.64,916.20,-8,-165,-318
1512178566,0.0473,0.0060,0.1105,-24.54,91.37,897.22,-8,-165,-318
1512178566,0.1068,0.0332,0.1164,-12.08,38.27,919.80,-8,-165,-318
1512178566,-0.0043,0.0242,0.1170,-18.43,-30.27,978.15,-8,-165,-318
1512178566,-0.0366,0.0181,0.1158,-7.08,-2.50,981.87,-8,-165,-318
1512178566,-0.0361,0.0020,0.1258,-38.88,52.73,1013.67,-17,-174,-309
1512178566,-0.0514,-0.0418,0.1297,-37.48,41.44,871.34,-17,-174,-309
1512178566,0.1246,0.0563,0.1361,-41.81,85.94,920.65,-17,-174,-309
1512178566,0.0475,0.0137,0.1344,-47.42,19.65,945.50,-17,-174,-309
1512178566,-0.0196,0.0374,0.1366,-5.37,21.18,1037.11,-17,-174,-309
1512178566,-0.0422,-0.0011,0.1381,-20.08,24.35,991.94,-5,-179,-311
1512178566,-0.0550,-0.0101,0.1390,-21.42,51.82,886.54,-5,-179,-311
1512178566,0.0775,0.0429,0.1482,-30.88,52.49,877.62,-5,-179,-311
1512178566,0.0403,0.0222,0.1462,16.66,3.11,927.43,-5,-179,-311
1512178566,0.0178,0.0208,0.1530,-67.99,18.98,900.09,-7,-192,-309
1512178566,0.0293,0.0304,0.1570,-43.46,8.67,919.80,-7,-192,-309
1512178566,0.0107,0.0161,0.1555,-24.11,24.90,935.36,-7,-192,-309
1512178566,0.0394,0.0012,0.1597,-17.03,28.63,940.86,-7,-192,-309
1512178566,0.1017,-0.0049,0.1675,-35.71,49.19,861.21,-7,-192,-309
1512178566,0.1378,0.0405,0.1664,-64.09,72.08,924.13,-28,-185,-306
1512178566,0.0415,-0.0345,0.1675,-36.19,75.56,961.79,-28,-185,-306
1512178566,-0.0281,0.0104,0.1707,-112.24,76.23,1030.94,-28,-185,-306
1512178566,-0.0431,-0.0466,0.1714,-56.46,106.08,975.04,-28,-185,-306
1512178566,0.0931,-0.0344,0.1724,-112.98,117.68,911.50,-28,-185,-306
1512178566,0.0547,-0.0097,0.1692,-85.75,25.02,884.03,-36,-197,-294
1512178566,0.0229,-0.0377,0.1691,-52.25,51.88,931.09,-36,-197,-294
1512178566,-0.0722,-0.0280,0.1696,-45.72,32.35,992.80,-36,-197,-294
1512178566,-0.0615,-0.0594,0.1751,-34.55,45.17,969.67,-36,-197,-294
1512178566,0.0900,0.0150,0.1728,-5.86,56.58,971.68,-21,-192,-299
1512178566,0.0337,-0.0005,0.1723,5.55,19.71,1043.52,-21,-192,-299
1512178566,-0.0640,-0.0623,0.1844,-50.23,20.63,974.98,-21,-192,-299
1512178566,0.0639,0.0282,0.1828,-14.83,75.20,938.23,-21,-192,-299
1512178567,0.0434,-0.0354,0.2013,-49.68,49.93,964.11,-21,-192,-299
1512178567,-0.0308,-0.0103,0.2021,-26.86,71.72,1007.87,-33,-215,-297
1512178567,0.0594,0.0293,0.1997,-13.43,17.09,947.63,-33,-215,-297
1512178567,0.0056,-0.0192,0.2075,-18.37,24.60,968.32,-33,-215,-297
1512178567,0.0449,0.0284,0.2099,21.97,10.62,970.76,-33,-215,-297
1512178567,-0.0578,-0.0519,0.2147,-43.21,13.98,908.94,-33,-215,-297
1512178567,0.0449,0.0119,0.2173,-18.92,51.39,877.44,-17,-206,-302
1512178567,0.0752,0.0301,0.2182,-39.12,64.58,889.59,-17,-206,-302
1512178567,0.0623,0.0226,0.2185,23.44,8.73,944.34,-17,-206,-302
1512178567,-0.0085,0.0445,0.2208,-2.50,19.78,983.70,-17,-206,-302
1512178567,-0.0731,-0.0073,0.2229,-9.95,39.73,936.89,-14,-227,-296
1512178567,-0.0570,0.0072,0.2210,-48.34,77.15,999.63,-14,-227,-296
1512178567,0.0294,-0.0166,0.2204,-46.81,63.35,881.65,-14,-227,-296
1512178567,0.0967,0.0328,0.2151,-8.61,41.50,865.84,-14,-227,-296
1512178567,0.0138,0.1293,0.2188,19.29,-4.94,1011.90,-14,-227,-296
1512178567,-0.1146,-0.0063,0.2209,-37.41,51.33,1039.98,-17,-216,-302
1512178567,-0.0644,0.0197,0.2196,-24.48,29.85,954.04,-17,-216,-302
1512178567,-0.0148,0.0129,0.2281,-32.23,10.56,935.79,-17,-216,-302
1512178567,0.0196,0.0109,0.2348,-6.23,25.21,892.64,-17,-216,-302
1512178567,0.0506,0.0134,0.2407,-58.78,25.51,935.12,-17,-216,-302
1512178567,0.0101,0.0075,0.2398,34.12,-12.21,963.20,-14,-237,-306
1512178567,-0.0820,-0.0376,0.2388,27.04,-61.77,914.12,-14,-237,-306
1512178567,-0.0474,-0.0036,0.2443,-10.99,-7.08,910.95,-14,-237,-306
1512178567,0.1049,-0.0011,0.2465,-1.71,35.95,910.64,-14,-237,-306
1512178567,-0.0445,0.0072,0.2526,-10.74,-29.85,968.08,-10,-234,-306
1512178567,-0.0859,-0.0205,0.2569,-3.42,6.53,940.86,-10,-234,-306
1512178567,0.0525,0.0356,0.2598,9.64,-13.79,954.96,-10,-234,-306
1512178567,0.0121,0.0047,0.2712,-24.90,31.37,975.22,-10,-234,-306
1512178567,0.0031,0.0108,0.2727,-11.60,47.12,989.38,-10,-234,-306
1512178567,-0.0043,0.0125,0.2751,14.65,8.67,975.16,-17,-252,-313
1512178567,-0.0212,0.0306,0.2776,1.46,-2.26,921.08,-17,-252,-313
1512178567,-0.0031,0.0672,0.2840,-2.87,-1.89,999.51,-17,-252,-313
1512178567,-0.0748,0.0040,0.2823,48.46,-55.97,972.35,-17,-252,-313
1512178567,0.0486,0.0807,0.2854,6.16,-9.58,975.46,-17,-252,-313
1512178567,-0.0491,-0.0064,0.2810,12.15,-64.88,984.68,-8,-243,-304
1512178567,-0.0372,0.0445,0.2868,-47.42,1.04,915.77,-8,-243,-304
1512178567,-0.0582,0.0152,0.2892,-4.03,-32.47,961.67,-8,-243,-304
1512178568,-0.0820,0.0043,0.3057,-44.31,29.42,945.68,-8,-243,-304
1512178568,-0.0186,0.0471,0.3053,3.60,38.39,961.00,10,-266,-302
1512178568,-0.1107,-0.0100,0.3025,-32.59,-54.02,1025.45,10,-266,-302
1512178568,-0.0887,-0.0017,0.3139,-47.24,24.72,956.30,10,-266,-302
1512178568,-0.0305,0.0144,0.3036,6.47,-13.73,1000.12,10,-266,-302
1512178568,-0.1001,-0.0093,0.3119,-56.03,-36.07,1001.83,10,-266,-302
1512178568,-0.1137,-0.0692,0.3196,-25.88,-66.35,912.48,5,-264,-287
1512178568,-0.0017,0.0048,0.3188,-64.82,-44.80,877.08,5,-264,-287
1512178568,0.0664,0.0196,0.3169,16.48,-75.81,908.69,5,-264,-287
1512178568,0.0003,-0.0201,0.3218,-1.22,-55.79,928.28,5,-264,-287
1512178568,0.0015,0.0312,0.3214,11.66,-83.25,916.56,17,-255,-296
1512178568,-0.0534,-0.0726,0.3206,3.97,-72.45,850.89,17,-255,-296
1512178568,0.0325,0.0640,0.3240,28.14,-65.98,955.99,17,-255,-296
1512178568,-0.0474,-0.0292,0.3177,25.94,-76.11,1021.36,17,-255,-296
1512178568,-0.0248,0.0021,0.3182,28.87,-79.16,944.46,17,-255,-296
1512178568,0.0029,-0.0024,0.3169,-6.35,-104.49,875.55,35,-273,-309
1512178568,0.1376,0.1015,0.3245,4.27,-56.64,931.27,35,-273,-309
1512178568,-0.0085,0.0313,0.3224,60.61,-77.27,1004.21,35,-273,-309
1512178568,-0.1759,0.0081,0.3228,-13.73,-60.18,1056.27,35,-273,-309
1512178568,-0.0312,0.0185,0.3257,-28.81,-8.79,940.80,35,-273,-309
1512178568,0.1121,0.0862,0.3273,20.26,-16.24,921.57,24,-280,-292
1512178568,0.0374,0.0973,0.3342,-19.41,-14.28,1067.63,24,-280,-292
1512178568,0.0206,0.0602,0.3410,-20.45,6.47,1025.94,24,-280,-292
1512178568,-0.0629,0.0545,0.3434,-14.83,-3.91,1035.71,24,-280,-292
1512178568,-0.0646,-0.0193,0.3443,-19.23,-27.34,948.43,29,-264,-297
1512178568,0.0680,0.0683,0.3553,-106.14,17.94,908.51,29,-264,-297
1512178568,0.0836,-0.0129,0.3443,-38.21,27.59,957.58,29,-264,-297
1512178568,-0.0170,-0.0016,0.3493,-66.77,-30.58,923.46,29,-264,-297
1512178568,-0.0549,0.0368,0.3390,-45.29,15.26,977.48,29,-264,-297
1512178568,-0.1174,-0.0447,0.3409,-76.29,13.18,885.07,45,-280,-289
1512178568,-0.0290,0.0591,0.3366,-36.56,-10.13,937.44,45,-280,-289
1512178568,-0.0510,-0.0338,0.3386,-46.45,17.76,879.70,45,-280,-289
1512178568,0.0081,0.0909,0.3427,1.22,-43.88,997.50,45,-280,-289
1512178568,-0.2330,-0.0138,0.3462,14.22,-78.37,990.36,59,-283,-296
1512178568,-0.1152,0.0095,0.3408,-4.15,-34.12,917.72,59,-283,-296
1512178568,-0.1182,0.0137,0.3417,-5.07,-11.35,961.91,59,-283,-296
1512178568,-0.1001,0.0009,0.3417,-31.68,-20.57,924.38,59,-283,-296
1512178568,-0.1025,0.0100,0.3429,-97.60,-11.47,915.41,59,-283,-296
1512178569,-0.0642,0.0672,0.3566,-67.93,45.53,1054.75,61,-292,-284
1512178569,0.0196,-0.0134,0.3589,-124.57,57.19,1044.98,61,-292,-284
1512178569,-0.0613,-0.0465,0.3514,-19.90,-11.84,957.95,61,-292,-284
1512178569,0.0405,0.0695,0.3501,-9.70,-29.66,1076.72,61,-292,-284
1512178569,-0.1716,-0.0617,0.3369,-22.83,-72.27,1018.31,61,-292,-284
1512178569,0.0044,0.0394,0.3377,42.24,-37.72,937.07,77,-294,-289
1512178569,0.0418,-0.0080,0.3435,-28.99,1.40,959.35,77,-294,-289
1512178569,-0.0470,0.0168,0.3414,-49.13,-94.73,921.33,77,-294,-289
1512178569,-0.0103,0.0224,0.3449,-24.72,-37.78,941.53,77,-294,-289
1512178569,-0.0019,-0.0011,0.3454,-50.66,-44.68,907.47,72,-306,-284
1512178569,-0.0188,0.0109,0.3570,-25.94,-21.55,901.67,72,-306,-284
1512178569,0.0875,0.0551,0.3543,-86.18,-38.88,969.48,72,-306,-284
1512178569,-0.0346,-0.0056,0.3567,32.96,-67.14,984.44,72,-306,-284
1512178569,-0.0137,0.0061,0.3469,17.40,-68.12,995.36,72,-306,-284
1512178569,-0.0868,-0.0257,0.3518,-18.07,-120.12,953.55,72,-313,-294
1512178569,0.0623,-0.0112,0.3533,-74.71,-17.40,878.97,72,-313,-294
1512178569,0.1826,0.0867,0.3550,-26.06,-15.50,942.57,72,-313,-294
1512178569,-0.0691,-0.0626,0.3557,-6.90,-84.66,1054.20,72,-313,-294
1512178569,-0.0441,0.0411,0.3501,33.08,-76.97,928.77,72,-313,-294
1512178569,0.0100,-0.0321,0.3585,15.99,-60.06,906.31,82,-303,-287
1512178569,0.0786,0.0558,0.3514,-28.93,-75.50,914.31,82,-303,-287
1512178569,-0.0105,-0.0237,0.3546,-8.24,-56.46,966.98,82,-303,-287
1512178569,-0.0172,0.0092,0.3501,25.45,-57.31,937.62,82,-303,-287
1512178569,-0.0719,-0.0162,0.3601,-25.63,-29.60,1004.58,77,-322,-292
1512178569,-0.0180,-0.0274,0.3591,-20.87,12.21,926.45,77,-322,-292
1512178569,0.0554,0.0313,0.3498,6.29,-0.98,934.45,77,-322,-292
1512178569,-0.0052,-0.0012,0.3486,-15.81,-59.45,949.77,77,-322,-292
1512178569,-0.0166,-0.0055,0.3435,11.72,-33.08,942.32,77,-322,-292
1512178569,0.0280,-0.0008,0.3486,-42.72,-44.80,926.45,87,-326,-292
1512178569,0.0306,-0.0308,0.3473,5.13,-11.78,957.64,87,-326,-292
1512178569,-0.0238,0.0063,0.3486,41.08,-26.79,979.06,87,-326,-292
1512178569,-0.1092,-0.0382,0.3450,-48.34,-21.36,997.25,87,-326,-292
1512178569,-0.1028,-0.0702,0.3423,34.48,-23.80,890.38,107,-331,-291
1512178569,0.1196,0.0321,0.3393,-18.13,5.80,932.92,107,-331,-291
1512178569,0.0035,-0.0811,0.3421,-34.61,-23.80,953.12,107,-331,-291
1512178569,0.0876,0.0393,0.3372,-33.26,5.74,980.53,107,-331,-291
1512178569,-0.0522,-0.0617,0.3338,-17.52,-60.00,937.99,107,-331,-291
1512178569,-0.0389,0.0579,0.3309,15.99,-52.43,987.55,115,-340,-302
1512178570,-0.0977,-0.0413,0.3312,56.03,5.07,911.13,115,-340,-302
1512178570,0.0097,0.0356,0.3298,45.59,-3.60,962.52,115,-340,-302
1512178570,-0.0676,0.0045,0.3276,14.77,28.50,1013.55,115,-340,-302
1512178570,-0.0096,-0.0028,0.3286,-42.72,-21.42,1009.22,115,-340,-302
1512178570,-0.1415,-0.0782,0.3264,-24.96,-21.18,954.90,128,-345,-304
1512178570,0.0510,0.0880,0.3147,14.53,4.33,895.51,128,-345,-304
1512178570,-0.1048,-0.0338,0.3170,45.65,-6.10,997.50,128,-345,-304
1512178570,-0.0284,0.0281,0.3161,32.17,-31.68,916.14,128,-345,-304
1512178570,-0.0254,0.0229,0.3161,55.91,20.26,967.77,131,-334,-294
1512178570,0.0076,0.0177,0.3190,-32.41,56.88,934.63,131,-334,-294
1512178570,0.0696,0.0587,0.3089,4.82,34.24,971.62,131,-334,-294
1512178570,-0.0079,0.0059,0.3087,41.50,-15.44,895.26,131,-334,-294
1512178570,-0.0044,0.0664,0.3123,62.32,11.66,962.28,131,-334,-294
1512178570,-0.1398,-0.0563,0.3124,-10.56,7.51,913.94,151,-347,-296
1512178570,-0.0505,0.0305,0.3148,9.77,46.02,950.68,151,-347,-296
1512178570,-0.0683,-0.0117,0.3045,41.87,14.47,952.51,151,-347,-296
1512178570,-0.0566,0.0055,0.3089,-19.84,2.62,999.08,151,-347,-296
1512178570,-0.1013,-0.0132,0.3087,-9.95,-26.12,982.85,151,-347,-296
1512178570,0.0455,-0.0095,0.3013,46.94,55.42,915.77,147,-333,-296
1512178570,0.0851,0.0382,0.3004,6.10,28.63,963.93,147,-333,-296
1512178570,0.0065,-0.0947,0.2953,58.96,16.60,941.71,147,-333,-296
1512178570,0.1221,0.1021,0.2957,74.89,-13.79,951.72,147,-333,-296
1512178570,-0.1346,-0.0089,0.3008,34.67,-51.51,954.96,159,-338,-301
1512178570,0.0142,0.0352,0.2939,25.45,-21.48,901.86,159,-338,-301
1512178570,-0.0197,-0.0181,0.2933,14.71,-15.81,899.23,159,-338,-301
1512178570,0.0609,0.0317,0.2894,57.68,-10.86,850.10,159,-338,-301
1512178570,0.0402,0.0373,0.2991,-21.55,15.01,909.73,159,-338,-301
1512178570,-0.0642,-0.0004,0.2913,63.17,-25.45,966.86,152,-349,-294
1512178570,-0.0574,0.0288,0.2878,29.79,-30.27,956.97,152,-349,-294
1512178570,-0.0009,0.0411,0.2876,56.58,-60.42,935.24,152,-349,-294
1512178570,0.0154,-0.0229,0.2888,-22.22,58.11,975.04,152,-349,-294
1512178570,0.1061,0.0494,0.2899,-14.28,73.43,1004.58,152,-349,-294
1512178570,-0.0583,-0.0226,0.2830,56.15,8.06,1033.75,170,-345,-301
1512178570,-0.0387,0.0047,0.2792,-1.71,-0.85,1026.18,170,-345,-301
1512178570,-0.0302,-0.0148,0.2782,50.23,2.26,904.66,170,-345,-301
1512178570,0.0055,0.0016,0.2710,45.23,-4.09,926.45,170,-345,-301
1512178570,0.0490,0.0069,0.2818,14.40,49.56,878.36,170,-345,-294
1512178570,-0.0240,-0.0068,0.2803,74.77,17.82,940.73,170,-345,-294
1512178571,-0.0293,0.0152,0.2802,11.84,25.45,920.10,170,-345,-294
1512178571,-0.0170,-0.0130,0.2726,63.72,14.22,891.97,170,-345,-294
1512178571,0.0274,0.0839,0.2711,82.40,-20.14,924.74,170,-345,-294
1512178571,-0.0406,-0.0345,0.2755,73.06,-14.40,968.87,175,-354,-299
1512178571,0.0089,0.0269,0.2800,23.86,32.71,963.56,175,-354,-299
1512178571,0.0063,-0.0116,0.2816,0.00,27.04,971.13,175,-354,-299
1512178571,-0.0365,-0.0039,0.2751,29.97,40.83,977.66,175,-354,-299
1512178571,-0.0683,0.0077,0.2722,15.01,25.82,1048.89,202,-349,-294
1512178571,-0.0895,-0.0569,0.2704,66.71,-1.59,952.94,202,-349,-294
1512178571,0.0109,0.0081,0.2743,-34.18,90.27,937.87,202,-349,-294
1512178571,-0.0128,-0.0293,0.2744,-11.23,46.69,926.76,202,-349,-294
1512178571,0.1047,0.0389,0.2726,60.18,57.19,952.27,202,-349,-294
1512178571,0.0738,0.0419,0.2732,71.66,-14.59,992.43,191,-345,-291
1512178571,-0.0397,-0.0133,0.2702,75.62,-43.03,959.66,191,-345,-291
1512178571,0.1071,0.0433,0.2708,79.28,48.65,966.19,191,-345,-291
1512178571,0.0971,0.0154,0.2731,40.16,50.84,959.47,191,-345,-291
1512178571,-0.0036,-0.0012,0.2799,47.49,38.57,977.78,200,-336,-282
1512178571,-0.0079,0.0129,0.2762,18.98,62.13,930.30,200,-336,-282
1512178571,0.0786,0.0610,0.2867,-24.96,53.28,918.95,200,-336,-282
1512178571,0.0318,0.0313,0.2787,43.88,-2.81,955.75,200,-336,-282
1512178571,-0.0095,0.0469,0.2752,87.10,-41.14,968.87,200,-336,-282
1512178571,0.0012,0.0288,0.2858,49.62,-17.76,971.86,203,-347,-296
1512178571,0.0253,0.0394,0.2812,86.36,26.55,980.47,203,-347,-296
1512178571,-0.0233,-0.0076,0.2815,20.51,-17.27,961.06,203,-347,-296
1512178571,0.0704,0.0537,0.2806,89.48,62.07,937.87,203,-347,-296
1512178571,0.0716,0.0368,0.2878,51.76,66.89,932.50,203,-347,-296
1512178571,0.0664,0.0071,0.2939,25.33,57.13,936.77,216,-345,-291
1512178571,0.0638,0.0419,0.2932,-3.30,94.30,911.62,216,-345,-291
1512178571,0.0088,0.0284,0.2988,-20.08,74.52,963.68,216,-345,-291
1512178571,-0.0735,0.0063,0.2960,30.15,73.12,975.10,216,-345,-291
1512178571,-0.0523,-0.0087,0.2952,35.28,75.62,945.62,230,-338,-301
1512178571,-0.0854,0.0288,0.2910,19.78,25.76,964.60,230,-338,-301
1512178571,-0.0609,-0.0302,0.2959,-11.84,97.05,968.93,230,-338,-301
1512178571,0.0501,0.0244,0.3003,15.08,107.91,972.35,230,-338,-301
1512178571,0.0455,-0.0277,0.2968,32.17,77.94,910.83,230,-338,-301
1512178571,0.0999,0.0233,0.2973,52.61,65.25,885.99,233,-334,-294
1512178571,0.0995,0.0581,0.2936,1.22,71.66,918.09,233,-334,-294
1512178572,-0.0212,-0.0092,0.2921,33.02,52.80,991.58,233,-334,-294
1512178572,-0.0373,0.0080,0.2995,-34.48,76.29,937.62,233,-334,-294
1512178572,-0.0210,-0.0028,0.2981,-17.64,95.46,963.81,233,-334,-294
1512178572,-0.0301,0.0045,0.2999,74.46,22.40,905.09,226,-356,-301
1512178572,0.0192,0.0538,0.3053,15.38,44.13,946.35,226,-356,-301
1512178572,-0.0826,0.0019,0.3048,89.11,-34.42,976.99,226,-356,-301
1512178572,-0.0856,0.0221,0.2944,63.17,-5.19,978.27,226,-356,-301
1512178572,-0.0806,0.0158,0.3069,26.31,-39.61,968.69,237,-327,-294
1512178572,-0.0446,-0.0146,0.2997,86.73,66.77,899.35,237,-327,-294
1512178572,0.0987,0.0831,0.3007,48.16,12.88,1002.93,237,-327,-294
1512178572,-0.0630,-0.0133,0.3055,31.43,24.05,993.16,237,-327,-294
1512178572,-0.0294,0.0517,0.3032,25.45,69.89,966.06,237,-327,-294
1512178572,-0.0414,-0.0196,0.3111,-17.40,101.32,1008.18,242,-340,-292
1512178572,0.0088,0.0316,0.2980,15.81,-2.44,872.44,242,-340,-292
1512178572,0.0450,0.0537,0.3004,27.71,-27.34,904.11,242,-340,-292
1512178572,-0.1055,-0.0389,0.3072,-21.12,51.51,919.92,242,-340,-292
1512178572,-0.0140,0.0455,0.3157,-10.68,-12.63,923.22,242,-340,-292
1512178572,-0.0619,-0.0502,0.3189,3.17,23.13,883.06,253,-333,-275
1512178572,0.0358,0.0897,0.3212,14.59,-3.66,922.85,253,-333,-275
1512178572,-0.1007,-0.0462,0.3230,27.28,-14.22,976.68,253,-333,-275
1512178572,-0.0080,0.0127,0.3164,27.28,3.05,989.56,253,-333,-275
1512178572,-0.0104,-0.0316,0.3205,-10.50,5.86,917.48,261,-331,-277
1512178572,0.0810,0.0510,0.3156,58.47,-10.74,897.22,261,-331,-277
1512178572,0.0921,0.0399,0.3222,-11.29,43.03,975.59,261,-331,-277
1512178572,-0.0680,-0.0447,0.3286,-46.08,27.10,1034.73,261,-331,-277
1512178572,-0.0158,-0.0007,0.3304,1.10,61.77,894.04,261,-331,-277
1512178572,0.0156,0.0048,0.3313,-18.98,41.93,942.26,265,-334,-291
1512178572,0.0025,0.0233,0.3357,-12.88,83.19,932.98,265,-334,-291
1512178572,0.0004,0.0072,0.3309,-36.74,37.35,962.52,265,-334,-291
1512178572,0.0170,-0.0170,0.3288,-25.21,41.56,933.29,265,-334,-291
1512178572,0.0153,0.0127,0.3293,-9.03,60.24,937.13,291,-329,-289
1512178572,0.0156,-0.0076,0.3282,-9.77,3.91,967.29,291,-329,-289
1512178572,0.0146,0.0305,0.3301,-22.22,30.88,992.92,291,-329,-289
1512178572,-0.0329,0.0194,0.3278,36.25,-23.62,995.91,291,-329,-289
1512178572,-0.0936,-0.0107,0.3353,-31.92,18.37,1035.40,291,-329,-289
1512178572,0.0903,-0.0148,0.3316,-37.84,56.64,882.39,284,-319,-289
1512178572,0.0495,0.0771,0.3290,-13.98,12.33,964.11,284,-319,-289
1512178572,-0.1292,0.0061,0.3312,3.91,7.26,1050.72,284,-319,-289
1512178573,-0.1324,-0.0314,0.3350,-13.49,26.06,968.20,284,-319,-289
1512178573,0.0527,0.0296,0.3410,36.93,41.81,900.02,284,-319,-289
1512178573,0.1005,0.0454,0.3495,-38.57,21.12,987.18,286,-327,-291
1512178573,-0.0278,-0.0189,0.3466,13.98,-20.75,948.61,286,-327,-291
1512178573,0.0056,0.0357,0.3527,57.86,16.91,944.58,286,-327,-291
1512178573,-0.0507,0.0092,0.3527,-49.50,-29.36,937.99,286,-327,-291
1512178573,0.0422,-0.0418,0.3493,35.10,59.75,888.98,286,-327,-291
1512178573,0.0694,0.0924,0.3462,8.61,-4.03,969.06,296,-331,-277
1512178573,-0.1308,-0.0593,0.3397,6.23,-8.67,961.36,296,-331,-277
1512178573,0.0690,0.0393,0.3438,8.42,40.41,883.79,296,-331,-277
1512178573,0.0391,-0.0184,0.3478,-41.75,67.81,974.12,296,-331,-277
1512178573,0.0080,0.0153,0.3498,60.49,30.52,943.66,298,-312,-275
1512178573,-0.0202,0.0115,0.3543,-46.88,-15.32,1003.05,298,-312,-275
1512178573,-0.0772,-0.0754,0.3573,-19.96,-8.61,903.50,298,-312,-275
1512178573,0.0571,0.0696,0.3530,1.10,43.09,945.01,298,-312,-275
1512178573,-0.1607,-0.1326,0.3545,-37.96,-16.85,962.28,298,-312,-275
1512178573,0.0144,0.0174,0.3566,11.72,30.58,844.24,316,-297,-282
1512178573,0.0470,-0.0150,0.3591,-22.34,-32.29,908.20,316,-297,-282
1512178573,-0.0302,-0.0168,0.3522,78.98,-57.56,904.79,316,-297,-282
1512178573,0.0172,-0.0321,0.3583,-33.02,1.28,898.93,316,-297,-282
1512178573,0.0383,0.0194,0.3547,-90.03,29.66,1006.16,325,-306,-287
1512178573,-0.1003,-0.1248,0.3502,21.06,33.51,932.92,325,-306,-287
1512178573,0.0059,0.0226,0.3526,-63.84,-19.17,945.43,325,-306,-287
1512178573,-0.0415,-0.0908,0.3489,-12.27,1.16,975.77,325,-306,-287
1512178573,0.0044,0.0076,0.3494,-6.04,-32.71,966.61,325,-306,-287
1512178573,-0.0935,-0.0862,0.3483,13.98,-32.10,944.27,337,-294,-272
1512178573,0.0032,-0.0161,0.3562,-72.33,65.12,967.04,337,-294,-272
1512178573,-0.0209,-0.0975,0.3570,-75.74,98.75,1016.54,337,-294,-272
1512178573,-0.0638,-0.0376,0.3583,-22.64,-18.55,981.32,337,-294,-272
1512178573,-0.0270,-0.0381,0.3559,15.26,-44.31,938.42,337,-294,-272
1512178573,0.0233,0.0317,0.3519,31.43,-23.13,1034.67,335,-299,-284
1512178573,-0.0695,-0.0302,0.3421,52.12,-73.43,1010.86,335,-299,-284
1512178573,0.1051,0.0776,0.3397,39.12,-14.47,1024.78,335,-299,-284
1512178573,0.0422,0.0545,0.3422,-18.31,-63.72,1070.37,335,-299,-284
1512178573,0.0017,-0.0127,0.3506,47.67,37.23,980.83,340,-294,-272
1512178573,0.1562,0.1561,0.3241,100.40,-108.34,886.05,340,-294,-272
1512178573,-0.0020,0.0658,0.3446,28.08,-161.44,977.42,340,-294,-272
1512178573,-0.0870,-0.0419,0.3570,-80.75,71.72,748.90,340,-294,-272
1512178574,0.0442,0.0475,0.3679,-76.11,51.88,833.31,340,-294,-272
1512178574,0.0101,0.0736,0.3666,-105.47,4.70,1023.80,344,-269,-282
1512178574,-0.2912,-0.2366,0.3570,-102.97,78.67,750.37,344,-269,-282
1512178574,0.3794,0.2097,0.3474,10.19,34.48,934.33,344,-269,-282
1512178574,-0.2750,-0.1666,0.3545,-11.72,-50.42,1041.63,344,-269,-282
1512178574,-0.0854,-0.0919,0.3426,-43.03,-49.99,911.01,347,-269,-282
1512178574,-0.0724,-0.0839,0.3447,19.04,-2.75,985.17,347,-269,-282
1512178574,-0.0904,-0.0313,0.3410,1.77,-73.43,950.56,347,-269,-282
1512178574,-0.1607,-0.0746,0.3368,-21.30,-90.94,1044.62,347,-269,-282
1512178574,-0.0288,-0.0340,0.3372,-52.55,9.28,916.44,347,-269,-282
1512178574,-0.1017,-0.0561,0.3320,-7.51,-34.06,954.83,351,-273,-282
1512178574,0.0099,0.0225,0.3370,-14.53,-46.51,914.18,351,-273,-282
1512178574,-0.0852,-0.0140,0.3417,-5.74,-100.83,984.25,351,-273,-282
1512178574,-0.0345,0.0350,0.3489,8.36,-87.65,955.93,351,-273,-282
1512178574,-0.0469,-0.0356,0.3549,-23.38,-61.58,1005.13,351,-273,-282
1512178574,-0.0093,0.0075,0.3507,5.86,-128.23,891.36,370,-264,-284
1512178574,-0.0064,-0.0059,0.3473,-33.94,-47.00,926.15,370,-264,-284
1512178574,0.0063,0.0662,0.3581,1.40,-116.39,914.61,370,-264,-284
1512178574,-0.0049,-0.0061,0.3474,17.15,-60.61,909.73,370,-264,-284
1512178574,0.0397,0.0434,0.3525,47.67,-67.20,984.37,370,-264,-284
1512178574,-0.0403,-0.0192,0.3573,-55.36,-60.91,1025.70,374,-246,-277
1512178574,0.0024,-0.0056,0.3505,3.36,-41.87,971.25,374,-246,-277
1512178574,0.0013,0.0123,0.3503,-16.54,-90.52,1010.93,374,-246,-277
1512178574,-0.0639,-0.0369,0.3481,17.94,-55.30,976.26,374,-246,-277
1512178574,-0.0061,-0.0116,0.3474,1.04,-67.02,990.11,384,-260,-294
1512178574,-0.0735,-0.0278,0.3489,9.03,-81.73,952.58,384,-260,-294
1512178574,-0.0429,-0.0277,0.3462,-12.15,-16.48,939.39,384,-260,-294
1512178574,-0.0557,0.0298,0.3417,-62.81,-5.62,1026.12,384,-260,-294
1512178574,-0.0411,-0.0714,0.3410,-44.98,-23.25,1000.73,384,-260,-294
1512178574,0.0505,0.0401,0.3412,13.43,-48.34,941.04,388,-232,-277
1512178574,0.0779,0.0356,0.3360,37.35,-128.48,1067.08,388,-232,-277
1512178574,-0.0190,-0.0092,0.3297,50.84,-136.11,1105.77,388,-232,-277
1512178574,0.0706,-0.0205,0.3264,24.11,-86.85,1002.38,388,-232,-277
1512178574,-0.0072,-0.0738,0.3260,6.65,-115.84,867.68,383,-230,-275
1512178574,0.2272,0.0806,0.3254,9.16,-31.86,827.94,383,-230,-275
1512178574,-0.0041,-0.0654,0.3380,-81.05,-28.87,921.33,383,-230,-275
1512178574,-0.0142,0.0493,0.3412,-15.01,16.30,893.07,383,-230,-275
1512178575,-0.1352,-0.0509,0.3404,-48.83,-52.80,893.86,383,-230,-275
1512178575,-0.0141,0.0578,0.3413,-39.79,20.63,865.11,400,-234,-269
1512178575,0.0141,0.0208,0.3328,-3.42,-11.41,935.79,400,-234,-269
1512178575,-0.0162,0.0390,0.3234,-67.57,-8.61,982.12,400,-234,-269
1512178575,-0.0333,0.0037,0.3133,-5.00,4.94,926.57,400,-234,-269
1512178575,-0.0369,0.0794,0.3039,-62.50,-45.29,1014.65,400,-234,-269
1512178575,-0.1305,-0.0566,0.2965,10.50,-47.85,982.30,386,-237,-282
1512178575,-0.0322,0.0514,0.2947,34.42,-36.13,972.47,386,-237,-282
1512178575,-0.0366,-0.0186,0.2967,-15.20,-33.14,962.89,386,-237,-282
1512178575,-0.0437,0.0146,0.2949,-27.77,-38.82,958.56,386,-237,-282
1512178575,-0.0855,-0.0248,0.2898,16.66,-50.11,946.11,404,-206,-296
1512178575,-0.0474,0.0441,0.2911,-21.61,-57.01,978.15,404,-206,-296
1512178575,-0.0969,-0.0318,0.2866,-14.53,-27.53,942.81,404,-206,-296
1512178575,0.0115,0.0443,0.2908,-41.87,16.42,1009.95,404,-206,-296
1512178575,0.0276,-0.0174,0.2933,-9.16,8.48,984.80,404,-206,-296
1512178575,0.0542,-0.0290,0.2900,-51.82,5.07,962.52,414,-202,-289
1512178575,-0.1228,-0.1381,0.2961,-31.01,-71.35,914.73,414,-202,-289
1512178575,0.0736,0.0750,0.2844,-17.03,-83.86,854.31,414,-202,-289
1512178575,0.0261,-0.0321,0.2775,42.36,-98.69,889.77,414,-202,-289
1512178575,-0.0989,0.0671,0.2818,4.21,-85.88,1005.86,414,-202,-289
1512178575,-0.0237,-0.0064,0.2748,-58.96,-62.44,958.44,405,-218,-291
1512178575,-0.0454,-0.0840,0.2670,50.48,-83.13,860.84,405,-218,-291
1512178575,0.0859,0.1322,0.2855,-22.40,-93.93,939.03,405,-218,-291
1512178575,-0.0107,0.0182,0.2700,17.70,-92.65,968.75,405,-218,-291
1512178575,-0.0547,0.0088,0.2719,-10.07,-131.71,1002.87,414,-213,-292
1512178575,-0.1385,-0.0024,0.2719,-20.81,-96.07,993.90,414,-213,-292
1512178575,-0.0036,0.0439,0.2692,-54.69,-4.94,923.89,414,-213,-292
1512178575,-0.0055,0.0142,0.2726,-92.90,-39.25,993.77,414,-213,-292
1512178575,-0.0959,0.0358,0.2651,-49.44,-89.42,979.06,414,-213,-292
1512178575,0.0326,0.0517,0.2619,-13.73,-71.41,981.87,402,-197,-284
1512178575,0.0591,0.0515,0.2593,-25.82,-101.44,982.30,402,-197,-284
1512178575,-0.0658,0.0061,0.2551,-46.02,-113.77,937.07,402,-197,-284
1512178575,-0.0016,0.0410,0.2535,-80.57,-73.00,951.42,402,-197,-284
1512178575,-0.0083,0.0254,0.2453,-47.49,-75.74,928.22,402,-197,-284
1512178575,0.0182,0.0884,0.2470,-55.79,-54.63,977.54,426,-176,-294
1512178575,-0.0077,0.0192,0.2384,-73.36,-96.37,953.37,426,-176,-294
1512178575,-0.0190,0.0521,0.2397,-87.04,-97.96,982.30,426,-176,-294
1512178575,-0.0462,-0.0091,0.2341,-89.66,-90.58,977.29,426,-176,-294
1512178576,-0.0598,0.0157,0.2349,-116.76,-101.68,966.80,409,-176,-284
1512178576,-0.0535,-0.0350,0.2250,-36.38,-59.45,894.78,409,-176,-284
1512178576,0.0784,0.0590,0.2224,-114.01,-103.94,873.17,409,-176,-284
1512178576,0.0640,0.0617,0.2100,-50.78,-75.99,986.94,409,-176,-284
1512178576,0.0261,0.0166,0.2091,-104.92,-81.48,954.83,409,-176,-284
1512178576,-0.0105,0.0309,0.2113,-69.82,-87.46,966.31,402,-155,-294
1512178576,0.0162,0.0736,0.2107,-102.48,-39.43,1008.42,402,-155,-294
1512178576,-0.0541,-0.0052,0.2032,-92.47,-79.53,982.54,402,-155,-294
1512178576,-0.0013,0.0442,0.1989,-86.98,-102.91,940.98,402,-155,-294
1512178576,0.0944,0.0357,0.1960,-91.98,-77.51,929.26,402,-151,-297
1512178576,0.0087,-0.0087,0.1980,-148.99,-76.60,890.81,402,-151,-297
1512178576,0.0150,0.0148,0.1882,-131.10,-6.65,921.14,402,-151,-297
1512178576,0.0900,0.0438,0.1795,-116.58,-4.15,952.45,402,-151,-297
1512178576,0.0170,0.0352,0.1715,-125.31,-50.05,1038.76,402,-151,-297
1512178576,-0.0346,-0.0025,0.1607,-92.29,-2.50,1025.57,404,-139,-292
1512178576,-0.0100,0.0329,0.1578,-113.83,-41.32,1010.50,404,-139,-292
1512178576,-0.0732,-0.0112,0.1553,-107.30,-46.02,953.43,404,-139,-292
1512178576,0.0154,0.0245,0.1471,-80.32,-30.03,932.19,404,-139,-292
1512178576,0.0136,0.0132,0.1467,-173.16,-22.95,921.69,404,-139,-292
1512178576,0.0353,0.0206,0.1358,-119.63,-43.82,910.52,400,-135,-286
1512178576,0.0879,0.0447,0.1314,-150.09,-10.50,944.76,400,-135,-286
1512178576,-0.0305,-0.0225,0.1273,-114.14,-6.47,964.84,400,-135,-286
1512178576,0.0426,0.0313,0.1246,-190.61,33.08,972.66,400,-135,-286
1512178576,-0.0280,-0.0224,0.1172,-153.75,-8.42,923.52,400,-142,-272
1512178576,-0.0127,0.0061,0.1044,-117.43,-3.05,982.30,400,-142,-272
1512178576,-0.0354,0.0173,0.1029,-82.70,-52.98,917.60,400,-142,-272
1512178576,0.0029,0.0401,0.0943,-100.40,-37.54,991.82,400,-142,-272
1512178576,-0.0229,-0.0025,0.0940,-130.00,-36.44,959.05,400,-142,-272
1512178576,-0.0377,-0.0021,0.0908,-118.41,-27.04,972.35,411,-146,-272
1512178576,0.0667,0.0617,0.0886,-81.24,20.39,985.47,411,-146,-272
1512178576,0.0088,0.0152,0.0846,-87.40,-42.18,982.67,411,-146,-272
1512178576,-0.0517,0.0409,0.0846,-129.46,-96.19,1013.49,411,-146,-272
1512178576,0.0442,-0.0297,0.0603,-68.18,-65.67,786.62,411,-146,-272
1512178576,0.1222,0.1965,0.0858,-110.05,-99.79,1060.85,404,-142,-265
1512178576,0.0318,0.0273,0.0663,-104.55,-3.23,853.21,404,-142,-265
1512178576,0.0886,-0.0176,0.0639,-35.28,-67.99,912.54,404,-142,-265
1512178576,0.1174,0.1108,0.0631,-202.70,-36.74,911.62,404,-142,-265
1512178576,-0.0250,-0.0317,0.0617,-143.43,35.10,949.34,412,-123,-274
1512178577,0.1069,0.0963,0.0555,-174.62,41.08,970.83,412,-123,-274
1512178577,-0.0477,-0.0160,0.0593,-212.34,11.29,1032.47,412,-123,-274
1512178577,0.0325,0.0406,0.0441,-151.25,-17.21,1002.14,412,-123,-274
1512178577,0.0196,-0.0081,0.0390,-130.49,-20.57,968.93,412,-123,-274
1512178577,0.0194,0.0627,0.0330,-115.54,-36.32,979.92,407,-128,-275
1512178577,-0.0249,0.0146,0.0286,-117.86,9.40,983.34,407,-128,-275
1512178577,0.0699,0.0889,0.0270,-170.84,-3.60,907.35,407,-128,-275
1512178577,-0.0481,0.0398,0.0273,-127.20,-25.09,1017.58,407,-128,-275
1512178577,0.0317,0.0924,0.0254,-137.02,-15.56,945.01,407,-128,-275
1512178577,-0.1021,0.0206,0.0246,-107.85,-56.76,974.30,407,-132,-279
1512178577,0.0270,0.0798,0.0237,-155.88,-5.37,824.89,407,-132,-279
1512178577,0.0770,0.0605,0.0230,-148.68,-3.23,943.24,407,-132,-279
1512178577,0.0407,0.0675,0.0176,-182.92,-20.20,925.29,407,-132,-279
1512178577,-0.0680,-0.0483,0.0176,-102.60,-60.97,901.55,411,-135,-289
1512178577,0.0654,0.2447,0.0213,-167.54,-26.25,1088.99,411,-135,-289
1512178577,-0.2049,-0.1498,-0.0021,-191.10,38.45,907.84,411,-135,-289
1512178577,-0.0862,0.0543,0.0037,-112.06,-56.21,998.84,411,-135,-289
1512178577,0.1377,0.0794,-0.0065,-142.15,148.56,876.46,411,-135,-289
1512178577,0.1372,-0.0370,-0.0156,-33.94,-16.97,946.90,407,-146,-296
1512178577,-0.2747,-0.0692,0.0021,-213.38,-0.31,900.33,407,-146,-296
1512178577,0.2458,0.2561,-0.0120,-109.25,89.84,941.10,407,-146,-296
1512178577,-0.0422,-0.1288,-0.0032,-125.61,-56.27,957.70,407,-146,-296
1512178577,0.0598,0.0716,-0.0036,-78.12,-27.04,909.48,412,-137,-294
1512178577,-0.0909,-0.0401,-0.0087,-166.20,-34.24,883.30,412,-137,-294
1512178577,0.0419,0.0446,0.0064,-186.89,-4.03,964.11,412,-137,-294
1512178577,0.0382,0.0076,-0.0028,-176.51,-12.94,941.41,412,-137,-294
1512178577,-0.0220,0.0104,-0.0032,-172.36,0.55,1000.43,412,-137,-294
1512178577,-0.0121,-0.0494,-0.0150,-158.02,50.90,945.80,411,-142,-292
1512178577,0.0434,0.0241,-0.0181,-178.96,25.82,991.76,411,-142,-292
1512178577,-0.0045,-0.0636,-0.0256,-152.59,-22.03,927.37,411,-142,-292
1512178577,0.1240,0.0735,-0.0280,-109.13,27.04,980.47,411,-142,-292
1512178577,0.0959,-0.0457,-0.0260,-112.79,14.22,944.03,395,-133,-294
1512178577,0.0258,0.0051,-0.0249,-165.16,-3.11,932.31,395,-133,-294
1512178577,0.0443,-0.0401,-0.0340,-147.83,61.10,898.74,395,-133,-294
1512178577,0.1116,0.0146,-0.0333,-174.68,21.55,904.54,395,-133,-294
1512178577,0.0973,0.0242,-0.0349,-176.21,58.23,906.13,395,-133,-294
1512178577,-0.0069,-0.0474,-0.0402,-159.24,83.80,921.20,412,-141,-291
1512178577,0.1304,0.1394,-0.0322,-271.48,42.42,1021.36,412,-141,-291
1512178578,-0.0967,-0.2060,-0.0514,-191.04,-23.93,812.81,412,-141,-291
1512178578,0.2402,0.1348,-0.0386,-139.40,53.04,922.79,412,-141,-291
1512178578,-0.1509,-0.0306,-0.0317,-220.46,-33.63,966.67,412,-141,-291
1512178578,-0.0435,-0.0421,-0.0475,-160.83,58.11,878.48,407,-146,-302
1512178578,0.0836,-0.0008,-0.0466,-204.77,40.77,899.17,407,-146,-302
1512178578,0.0395,-0.0064,-0.0550,-163.02,60.97,981.51,407,-146,-302
1512178578,-0.0087,-0.0627,-0.0558,-168.15,26.98,913.15,407,-146,-302
1512178578,0.0112,0.0470,-0.0621,-234.68,16.17,951.17,397,-135,-296
1512178578,-0.0240,-0.0577,-0.0609,-153.50,42.11,953.00,397,-135,-296
1512178578,0.1168,0.0522,-0.0569,-178.89,29.66,906.19,397,-135,-296
1512178578,-0.0485,-0.0913,-0.0547,-175.23,72.02,930.24,397,-135,-296
1512178578,0.0703,0.0380,-0.0551,-200.81,60.36,961.91,397,-135,-296
1512178578,-0.0629,-0.1003,-0.0566,-153.08,26.86,903.26,404,-149,-299
1512178578,0.1660,0.0766,-0.0594,-201.11,34.85,947.81,404,-149,-299
1512178578,-0.0047,-0.1116,-0.0625,-191.65,46.51,918.58,404,-149,-299
1512178578,0.1031,0.0354,-0.0674,-157.35,58.90,919.43,404,-149,-299
1512178578,0.0095,-0.0851,-0.0692,-192.69,84.84,959.59,404,-149,-299
1512178578,0.0664,-0.0228,-0.0700,-140.56,71.90,933.59,405,-144,-291
1512178578,0.0204,-0.0668,-0.0686,-158.45,62.99,941.41,405,-144,-291
1512178578,0.0603,-0.0053,-0.0711,-211.98,56.40,903.69,405,-144,-291
1512178578,0.0033,-0.0591,-0.0802,-138.43,71.59,930.30,405,-144,-291
1512178578,0.0445,0.0052,-0.0824,-202.82,39.49,948.06,418,-153,-292
1512178578,-0.0573,-0.0834,-0.0846,-177.43,48.28,930.73,418,-153,-292
1512178578,0.0230,0.0115,-0.0848,-208.56,55.11,928.77,418,-153,-292
1512178578,-0.0463,-0.0603,-0.0905,-176.45,62.13,948.18,418,-153,-292
1512178578,0.0045,-0.0019,-0.0871,-203.98,80.63,930.54,418,-153,-292
1512178578,0.0015,-0.0293,-0.0878,-222.84,86.36,945.50,409,-165,-301
1512178578,-0.0134,-0.0382,-0.0919,-185.55,83.68,933.84,409,-165,-301
1512178578,0.0261,-0.0369,-0.0933,-199.16,95.15,939.33,409,-165,-301
1512178578,0.0277,-0.0281,-0.0965,-198.36,39.55,913.51,409,-165,-301
1512178578,0.0352,-0.0221,-0.0945,-150.76,70.01,880.68,414,-181,-282
1512178578,0.0233,-0.0087,-0.0997,-160.83,69.09,929.14,414,-181,-282
1512178578,0.0149,-0.0360,-0.1000,-190.49,44.49,915.04,414,-181,-282
1512178578,-0.0027,-0.0138,-0.0997,-230.04,70.13,901.49,414,-181,-282
1512178578,0.0519,-0.0240,-0.1059,-153.26,92.22,911.50,414,-181,-282
1512178578,0.0198,-0.0127,-0.0957,-207.95,63.66,998.90,409,-158,-287
1512178578,-0.0589,-0.0447,-0.0956,-181.95,46.26,914.00,409,-158,-287
1512178579,0.0204,-0.0132,-0.1020,-127.75,63.48,955.93,409,-158,-287
1512178579,-0.0336,-0.0403,-0.1075,-168.76,62.13,928.71,409,-158,-287
1512178579,-0.0534,-0.0835,-0.1139,-111.21,71.66,852.91,409,-158,-287
1512178579,0.0965,0.0563,-0.1073,-137.94,105.53,880.07,407,-171,-282
1512178579,-0.0945,-0.0545,-0.1068,-148.44,26.12,1006.65,407,-171,-282
1512178579,-0.0057,-0.0744,-0.1182,-109.13,106.63,863.22,407,-171,-282
1512178579,0.1088,0.0217,-0.1226,-134.77,76.35,895.39,407,-171,-282
1512178579,0.0547,-0.0563,-0.1228,-185.12,136.90,912.84,398,-169,-274
1512178579,0.0409,-0.0213,-0.1234,-229.74,158.75,960.33,398,-169,-274
1512178579,-0.0409,-0.0676,-0.1317,-185.42,98.69,960.08,398,-169,-274
1512178579,-0.1025,-0.0680,-0.1324,-163.21,129.70,937.62,398,-169,-274
1512178579,-0.0222,-0.0087,-0.1377,-167.11,149.96,947.20,398,-169,-274
1512178579,0.0008,-0.0692,-0.1345,-170.90,101.99,966.43,386,-160,-279
1512178579,0.0711,0.0652,-0.1403,-143.86,95.64,1022.52,386,-160,-279
1512178579,-0.0498,-0.0688,-0.1461,-138.85,86.49,984.92,386,-160,-279
1512178579,0.0507,0.0589,-0.1482,-149.48,141.66,936.28,386,-160,-279
1512178579,-0.0625,-0.0137,-0.1498,-172.06,116.58,994.45,386,-160,-279
1512178579,-0.0687,-0.0174,-0.1581,-183.29,120.36,921.51,397,-156,-255
1512178579,-0.0269,-0.0100,-0.1529,-160.71,114.07,895.20,397,-156,-255
1512178579,0.0417,0.0205,-0.1626,-140.50,106.99,918.15,397,-156,-255
1512178579,-0.0735,-0.0923,-0.1641,-90.33,117.31,835.51,397,-156,-255
1512178579,0.0744,0.0806,-0.1583,-98.69,86.98,895.75,409,-158,-264
1512178579,-0.0220,-0.0294,-0.1684,-188.29,90.88,899.60,409,-158,-264
1512178579,0.0128,0.0541,-0.1747,-75.68,56.76,961.67,409,-158,-264
1512178579,0.0140,0.0104,-0.1783,-150.45,88.01,977.05,409,-158,-264
1512178579,-0.0409,-0.0194,-0.1783,-141.60,139.95,949.83,409,-158,-264
1512178579,0.0281,-0.0053,-0.1824,-123.35,133.67,911.07,412,-162,-274
1512178579,-0.0277,0.0190,-0.1832,-115.78,106.26,995.18,412,-162,-274
1512178579,-0.0583,-0.0467,-0.1826,-149.84,159.91,946.29,412,-162,-274
1512178579,0.0112,-0.0021,-0.1792,-206.48,133.85,964.78,412,-162,-274
1512178579,-0.0538,-0.0221,-0.1782,-153.99,111.94,994.38,412,-162,-274
1512178579,-0.0202,0.0055,-0.1824,-127.93,106.69,1013.24,418,-171,-279
1512178579,0.0265,-0.0265,-0.1939,-137.57,114.14,1010.93,418,-171,-279
1512178579,0.0687,-0.0648,-0.1969,-89.36,129.70,937.87,418,-171,-279
1512178579,0.1369,0.0252,-0.1957,-162.05,149.78,902.53,418,-171,-279
1512178579,0.0276,-0.0924,-0.2052,-127.50,194.21,907.04,405,-176,-270
1512178579,0.0971,0.0475,-0.2059,-221.25,210.69,909.00,405,-176,-270
1512178579,-0.0625,-0.0483,-0.2177,-160.34,202.82,890.38,405,-176,-270
1512178580,0.0874,0.0770,-0.2156,-137.57,219.36,918.27,405,-176,-270
1512178580,0.0011,-0.0048,-0.2262,-113.34,166.14,954.22,405,-176,-270
1512178580,-0.0233,-0.0121,-0.2253,-169.13,152.10,899.35,395,-169,-270
1512178580,0.0270,0.0141,-0.2280,-163.45,232.42,965.39,395,-169,-270
1512178580,0.0216,-0.0290,-0.2373,-147.83,231.02,886.60,395,-169,-270
1512178580,0.0571,-0.0190,-0.2443,-157.35,213.93,903.32,395,-169,-270
1512178580,0.0332,0.0550,-0.2603,-128.66,194.46,1004.64,412,-186,-287
1512178580,-0.0715,-0.0605,-0.2655,-122.92,198.73,934.88,412,-186,-287
1512178580,-0.0091,-0.0438,-0.2579,-204.41,222.05,927.92,412,-186,-287
1512178580,0.0242,0.0121,-0.2696,-126.95,251.71,944.03,412,-186,-287
1512178580,0.0302,-0.0197,-0.2703,-232.60,263.18,906.19,412,-186,-287
1512178580,0.0081,0.0003,-0.2788,-197.81,237.06,1017.70,407,-178,-289
1512178580,0.0268,0.0490,-0.2907,-203.19,222.23,983.52,407,-178,-289
1512178580,-0.0095,-0.0170,-0.2971,-150.33,235.96,992.49,407,-178,-289
1512178580,0.0711,0.0553,-0.2969,-207.58,226.62,1000.00,407,-178,-289
1512178580,-0.0486,-0.0202,-0.3024,-163.27,230.77,983.09,407,-195,-282
1512178580,0.0640,0.0802,-0.3119,-138.24,263.98,987.12,407,-195,-282
1512178580,-0.0230,0.0009,-0.3160,-87.34,147.58,971.56,407,-195,-282
1512178580,-0.0338,0.0538,-0.3048,-186.34,203.25,1025.94,407,-195,-282
1512178580,-0.0489,-0.0080,-0.3173,-116.52,252.08,876.22,407,-195,-282
1512178580,0.0345,0.0706,-0.3065,-183.59,183.65,949.46,395,-211,-280
1512178580,-0.0514,0.0437,-0.3135,-177.55,221.62,937.07,395,-211,-280
1512178580,-0.0033,0.0233,-0.3111,-74.34,234.13,925.42,395,-211,-280
1512178580,-0.0644,0.0483,-0.3061,-150.94,184.88,963.99,395,-211,-280
1512178580,-0.0028,0.0093,-0.3092,-138.98,242.80,903.69,395,-211,-280
1512178580,0.0486,0.0489,-0.3135,-199.77,241.46,997.44,391,-211,-287
1512178580,-0.0133,0.0013,-0.3103,-119.20,223.69,907.59,391,-211,-287
1512178580,0.1324,0.1164,-0.3182,-154.72,176.45,883.73,391,-211,-287
1512178580,0.0451,0.0447,-0.3119,-185.06,226.26,954.96,391,-211,-287
1512178580,0.2021,0.1170,-0.3182,-178.53,238.22,956.24,398,-211,-287
1512178580,0.0634,-0.0198,-0.3190,-116.15,235.90,914.18,398,-211,-287
1512178580,0.0241,0.1282,-0.3268,-142.82,253.78,982.36,398,-211,-287
1512178580,0.0068,0.0397,-0.3225,-179.63,281.25,963.50,398,-211,-287
1512178580,-0.0154,-0.0558,-0.3209,-158.81,285.52,933.04,398,-211,-287
1512178580,0.1253,0.0787,-0.3228,-205.32,264.22,997.01,384,-236,-280
1512178580,-0.0353,-0.0376,-0.3221,-111.27,221.80,965.21,384,-236,-280
1512178580,0.0807,0.0578,-0.3188,-141.11,199.95,934.02,384,-236,-280
1512178580,-0.0664,-0.0169,-0.3241,-142.27,153.14,1033.94,384,-236,-280
1512178581,-0.0011,-0.0434,-0.3145,-120.79,245.36,935.91,384,-236,-280
1512178581,0.0687,0.0180,-0.3163,-176.82,273.07,904.30,391,-229,-270
1512178581,0.0523,-0.0376,-0.3153,-197.20,288.94,916.20,391,-229,-270
1512178581,0.0501,0.0357,-0.3190,-130.74,256.04,927.49,391,-229,-270
1512178581,-0.0248,-0.0104,-0.3205,-145.26,181.76,977.91,391,-229,-270
1512178581,0.0342,-0.0044,-0.3182,-113.10,230.04,864.81,393,-227,-279
1512178581,0.0754,0.0356,-0.3188,-134.58,211.85,857.24,393,-227,-279
1512178581,0.0381,-0.0514,-0.3144,-118.04,251.22,897.22,393,-227,-279
1512178581,0.0458,0.0675,-0.3131,-101.81,224.49,929.87,393,-227,-279
1512178581,-0.0056,0.0258,-0.3170,-116.64,177.06,1025.09,393,-227,-279
1512178581,-0.0011,-0.0441,-0.3029,-120.48,202.76,929.69,377,-260,-280
1512178581,0.0952,0.0044,-0.3013,-145.26,202.27,835.82,377,-260,-280
1512178581,0.1144,-0.0127,-0.2952,-137.15,239.56,916.02,377,-260,-280
1512178581,0.0406,0.0107,-0.2912,-111.27,213.20,1017.46,377,-260,-280
1512178581,-0.0216,-0.0334,-0.2796,-139.65,234.13,991.15,377,-260,-280
1512178581,-0.0678,-0.0921,-0.2735,-114.50,203.86,888.31,377,-250,-277
1512178581,0.1100,0.0043,-0.2649,-143.01,253.48,969.48,377,-250,-277
1512178581,-0.0105,-0.0545,-0.2566,-112.79,235.96,946.90,377,-250,-277
1512178581,0.0993,-0.0196,-0.2537,-117.86,231.87,962.83,377,-250,-277
1512178581,0.0407,-0.0903,-0.2518,-111.63,216.80,937.62,377,-271,-277
1512178581,0.0776,0.0316,-0.2522,-107.54,161.13,951.90,377,-271,-277
1512178581,-0.0180,-0.0374,-0.2415,-134.58,209.78,958.80,377,-271,-277
1512178581,-0.0411,-0.0334,-0.2370,-83.44,190.98,929.87,377,-271,-277
1512178581,0.0326,0.0305,-0.2281,-83.80,195.98,976.50,377,-271,-277
1512178581,-0.0413,-0.0268,-0.2250,-95.34,185.61,968.51,368,-273,-269
1512178581,0.0149,-0.0254,-0.2145,-108.89,202.09,972.11,368,-273,-269
1512178581,0.0314,-0.0099,-0.2009,-82.64,178.10,962.59,368,-273,-269
1512178581,-0.0040,-0.0240,-0.1959,-91.43,203.06,890.44,368,-273,-269
1512178581,0.0320,0.0127,-0.1915,-83.13,149.23,942.57,361,-283,-289
1512178581,0.0221,-0.0361,-0.1830,-85.82,178.47,881.77,361,-283,-289
1512178581,0.0670,0.0583,-0.1759,-87.22,139.95,895.08,361,-283,-289
1512178581,-0.0222,0.0433,-0.1743,-84.11,151.98,948.79,361,-283,-289
1512178581,-0.0338,-0.0032,-0.1637,-71.47,154.54,1009.09,361,-283,-289
1512178581,0.0249,-0.0099,-0.1501,-113.77,211.12,974.12,358,-287,-279
1512178581,0.0120,-0.1092,-0.1449,-112.00,106.26,841.67,358,-287,-279
1512178581,-0.3863,-0.0847,-0.1297,-51.82,198.06,924.80,358,-287,-279
1512178581,0.2121,0.0960,-0.1253,15.01,237.00,983.15,358,-287,-279
1512178582,-0.1080,-0.2008,-0.1220,-24.23,49.87,960.94,358,-287,-279
1512178582,0.0597,0.0036,-0.1156,60.67,48.28,859.86,370,-296,-274
1512178582,-0.1895,0.1184,-0.0770,105.35,40.65,1157.90,370,-296,-274
1512178582,-0.0360,-0.0618,-0.0971,-33.69,110.60,928.47,370,-296,-274
1512178582,0.2025,-0.0317,-0.0819,-7.81,126.59,849.79,370,-296,-274
1512178582,0.0221,0.1972,-0.0435,19.29,-24.41,1097.05,360,-292,-297
1512178582,-0.0720,-0.0549,-0.0582,-25.63,72.02,943.48,360,-292,-297
1512178582,0.0976,0.0507,-0.0294,-68.36,45.96,937.50,360,-292,-297
1512178582,-0.0079,0.0148,-0.0208,10.62,94.54,979.74,360,-292,-297
1512178582,0.0790,0.1173,-0.0174,13.98,21.67,964.17,360,-292,-297
1512178582,-0.1168,-0.0164,-0.0064,80.69,-6.29,995.24,342,-292,-270
1512178582,0.0660,0.1526,0.0029,39.86,56.15,965.33,342,-292,-270
1512178582,-0.0662,-0.0246,0.0081,18.92,44.13,946.29,342,-292,-270
1512178582,0.0417,0.0305,0.0177,-13.00,95.09,940.12,342,-292,-270
1512178582,-0.0170,0.0257,0.0216,10.01,83.13,918.09,342,-292,-270
1512178582,0.0795,0.0284,0.0310,9.58,108.76,914.00,353,-275,-287
1512178582,-0.0180,0.0578,0.0398,-51.21,40.65,982.12,353,-275,-287
1512178582,-0.0868,-0.0059,0.0455,34.12,53.83,995.91,353,-275,-287
1512178582,-0.0583,-0.0180,0.0534,9.95,40.04,899.41,353,-275,-287
1512178582,-0.0133,-0.0506,0.0501,-25.27,122.86,839.60,363,-292,-277
1512178582,-0.0409,0.1056,0.0691,-44.68,121.58,1000.06,363,-292,-277
1512178582,0.0454,0.0356,0.0743,102.29,7.87,992.61,363,-292,-277
1512178582,-0.0859,-0.0064,0.0816,55.05,-21.48,975.10,363,-292,-277
1512178582,-0.1429,0.0015,0.0846,61.89,21.12,998.84,363,-292,-277
1512178582,0.0933,0.0401,0.0875,94.91,18.62,953.98,354,-269,-282
1512178582,0.1662,0.0186,0.0832,70.01,56.27,915.89,354,-269,-282
1512178582,-0.1236,0.0067,0.0948,4.82,0.98,1065.98,354,-269,-282
1512178582,0.0051,-0.0284,0.0967,-1.04,78.55,873.72,354,-269,-282
1512178582,0.1059,0.0338,0.1088,-39.67,67.75,918.70,354,-269,-282
1512178582,0.0051,-0.0093,0.1184,-17.03,86.36,965.64,340,-273,-282
1512178582,-0.0386,-0.0228,0.1166,19.47,45.47,968.02,340,-273,-282
1512178582,0.0020,0.0238,0.1190,-4.27,29.36,1026.12,340,-273,-282
1512178582,-0.0381,-0.0783,0.1254,-8.30,58.78,949.52,340,-273,-282
1512178582,0.0569,0.0370,0.1200,34.48,83.92,962.28,354,-273,-289
1512178582,-0.0214,-0.0063,0.1276,-3.78,22.40,981.26,354,-273,-289
1512178582,-0.0201,0.0060,0.1294,16.85,56.40,1037.29,354,-273,-289
1512178582,-0.0044,0.0075,0.1381,36.07,35.95,966.00,354,-273,-289
1512178582,0.0593,0.0854,0.1486,-5.68,54.87,1052.61,354,-273,-289
1512178583,0.0148,-0.0072,0.1551,7.32,21.24,985.41,344,-280,-286
1512178583,0.0587,0.0597,0.1603,-25.27,35.28,943.60,344,-280,-286
1512178583,-0.0414,0.0242,0.1635,6.96,10.31,926.94,344,-280,-286
1512178583,-0.1246,0.0021,0.1641,-27.89,44.86,966.25,344,-280,-286
1512178583,-0.0609,0.0065,0.1739,-8.61,97.66,930.97,358,-269,-282
1512178583,0.0210,0.0433,0.1760,-15.56,67.32,964.17,358,-269,-282
1512178583,0.0206,-0.0352,0.1634,50.60,33.69,894.29,358,-269,-282
1512178583,0.0316,0.0510,0.1609,-1.22,85.14,947.88,358,-269,-282
1512178583,-0.1485,-0.0462,0.1634,-17.15,-22.83,965.45,358,-269,-282
1512178583,0.0309,0.0083,0.1630,-16.36,56.09,897.71,368,-252,-282
1512178583,0.0304,0.0044,0.1700,-22.40,-26.06,905.03,368,-252,-282
1512178583,0.0133,-0.0142,0.1738,22.16,3.05,931.52,368,-252,-282
1512178583,0.0146,0.0390,0.1808,25.88,-29.48,963.13,368,-252,-282
1512178583,-0.0862,-0.0451,0.1852,0.79,18.13,956.48,368,-252,-282
1512178583,-0.0631,-0.0190,0.1905,18.92,6.47,923.95,384,-250,-277
1512178583,-0.0216,0.0487,0.1979,-11.84,35.89,928.34,384,-250,-277
1512178583,-0.0176,0.0104,0.1980,44.98,-25.57,1036.13,384,-250,-277
1512178583,-0.0917,0.0009,0.2067,20.14,-4.21,980.96,384,-250,-277
1512178583,-0.0648,-0.0108,0.2057,20.20,5.86,993.29,384,-250,-277
1512178583,-0.0125,-0.0226,0.2083,70.19,-14.59,953.74,368,-266,-282
1512178583,-0.0138,0.0048,0.2089,94.79,-13.98,929.81,368,-266,-282
1512178583,-0.0415,0.0160,0.2313,45.59,16.66,962.04,368,-266,-282
1512178583,-0.0162,-0.0443,0.2293,43.09,1.71,974.43,368,-266,-282
1512178583,0.1225,0.0212,0.2304,-20.94,37.54,991.46,365,-245,-286
1512178583,-0.0003,-0.0097,0.2304,-14.16,14.59,977.17,365,-245,-286
1512178583,0.0250,0.0097,0.2329,3.30,33.14,1047.49,365,-245,-286
1512178583,-0.0995,-0.0871,0.2349,-3.66,4.64,957.52,365,-245,-286
1512178583,-0.0313,-0.0016,0.2397,24.66,9.58,952.39,365,-245,-286
1512178583,0.0252,-0.0201,0.2501,-10.19,59.45,908.14,354,-230,-282
1512178583,0.0053,-0.0109,0.2575,-22.89,17.09,949.40,354,-230,-282
1512178583,0.0001,-0.0329,0.2634,49.26,42.97,948.18,354,-230,-282
1512178583,-0.0433,0.0221,0.2710,44.56,-50.35,966.37,354,-230,-282
1512178583,-0.1039,-0.0971,0.2728,2.93,21.67,927.12,354,-230,-282
1512178583,0.0454,0.0290,0.2711,86.30,26.61,950.87,358,-234,-279
1512178583,-0.0627,-0.0039,0.2760,34.30,13.98,1073.18,358,-234,-279
1512178583,-0.1356,-0.0679,0.2786,96.80,-28.99,951.42,358,-234,-279
1512178583,-0.0284,-0.0193,0.2923,59.27,38.33,923.28,358,-234,-279
1512178583,0.0115,-0.0288,0.3025,29.85,8.42,945.43,377,-236,-284
1512178584,-0.0394,-0.0671,0.3008,118.04,-22.22,924.56,377,-236,-284
1512178584,0.0895,0.0196,0.3079,95.28,-44.98,912.96,377,-236,-284
1512178584,-0.0614,-0.0415,0.3075,69.58,-46.69,967.16,377,-236,-284
1512178584,0.0053,0.0184,0.3159,57.25,73.18,997.99,377,-236,-284
1512178584,-0.0426,-0.0449,0.3181,29.85,-11.60,1023.32,379,-227,-292
1512178584,-0.0096,0.0242,0.3248,59.33,57.92,1003.36,379,-227,-292
1512178584,-0.1024,-0.0634,0.3306,23.74,20.39,996.40,379,-227,-292
1512178584,-0.0575,-0.0202,0.3360,41.93,7.51,949.22,379,-227,-292
1512178584,0.0678,0.0414,0.3409,91.67,32.96,975.71,379,-227,-292
1512178584,-0.0418,-0.0166,0.3491,74.46,1.46,988.53,388,-225,-294
1512178584,-0.0362,-0.0113,0.3535,66.16,6.10,960.69,388,-225,-294
1512178584,0.0422,0.0113,0.3507,93.57,18.98,992.31,388,-225,-294
1512178584,-0.0772,-0.0087,0.3546,80.93,-14.77,1053.71,388,-225,-294
1512178584,-0.0792,-0.0140,0.3661,92.59,26.00,1038.45,398,-197,-284
1512178584,-0.0629,-0.0514,0.3611,98.63,-9.52,907.04,398,-197,-284
1512178584,0.0509,0.0510,0.3699,63.35,41.32,951.84,398,-197,-284
1512178584,-0.0591,-0.0045,0.3619,42.54,-20.69,964.97,398,-197,-284
1512178584,-0.1141,-0.0254,0.3653,93.44,1.22,933.11,398,-197,-284
1512178584,0.0573,0.1064,0.3739,-28.14,56.21,1037.41,388,-200,-277
1512178584,0.0377,-0.0415,0.3704,94.18,-77.70,882.87,388,-200,-277
1512178584,-0.1364,0.0569,0.3800,143.86,-68.60,948.06,388,-200,-277
1512178584,0.0281,0.0461,0.3832,13.00,5.62,902.34,388,-200,-277
1512178584,0.0330,-0.0691,0.3842,-3.72,48.16,907.35,397,-202,-279
1512178584,-0.0128,0.0815,0.3910,59.63,-55.18,943.91,397,-202,-279
1512178584,-0.0842,-0.0683,0.3935,28.56,19.04,916.63,397,-202,-279
1512178584,0.0013,0.0260,0.3961,20.32,15.44,916.87,397,-202,-279
1512178584,0.0887,0.0158,0.3979,-0.18,15.08,958.68,397,-202,-279
1512178584,-0.0639,-0.0152,0.3900,77.15,-19.71,1048.40,390,-156,-279
1512178584,-0.2097,-0.0264,0.3953,111.57,-62.81,981.08,390,-156,-279
1512178584,-0.0989,0.0040,0.3933,70.80,-73.00,935.12,390,-156,-279
1512178584,0.0798,0.0305,0.4037,22.09,45.10,946.90,390,-156,-279
1512178584,0.0479,0.0128,0.4041,0.67,-14.83,976.20,390,-156,-279
1512178584,-0.0188,0.0395,0.4040,81.30,-89.29,985.53,398,-165,-284
1512178584,-0.0369,0.0021,0.4092,31.49,-41.99,950.01,398,-165,-284
1512178584,-0.0459,-0.0073,0.4145,34.79,-19.53,979.61,398,-165,-284
1512178584,-0.0165,0.0598,0.4257,-6.71,38.21,979.37,398,-165,-284
1512178584,-0.0539,0.0068,0.4159,101.56,-20.20,960.51,391,-162,-284
1512178584,-0.0454,0.0690,0.4089,88.81,-65.31,991.64,391,-162,-284
1512178585,-0.0796,0.0434,0.4252,12.45,78.98,1130.98,391,-162,-284
1512178585,-0.0844,0.0028,0.4249,65.98,9.52,1044.92,391,-162,-284
1512178585,-0.0882,-0.0190,0.4220,111.21,-8.18,940.61,391,-162,-284
1512178585,0.1486,0.0627,0.4204,-78.74,26.73,922.42,390,-132,-282
1512178585,-0.0598,0.0318,0.4321,-8.36,-24.41,1052.31,390,-132,-282
1512178585,-0.0762,0.0758,0.4354,27.04,-25.51,1052.06,390,-132,-282
1512178585,-0.0411,0.0240,0.4290,78.49,-49.80,952.39,390,-132,-282
1512178585,0.0738,0.0796,0.4328,27.10,-31.56,952.45,390,-132,-282
1512178585,-0.0562,-0.0063,0.4344,28.87,-28.87,967.65,400,-139,-286
1512178585,0.0586,0.0969,0.4329,-6.59,-15.81,1015.81,400,-139,-286
1512178585,-0.0445,-0.0119,0.4346,38.33,-70.43,1015.56,400,-139,-286
1512178585,0.0380,0.0566,0.4289,77.09,-127.87,923.77,400,-139,-286
1512178585,-0.0015,0.0395,0.4252,78.92,-93.26,964.66,398,-116,-291
1512178585,0.0264,0.0613,0.4308,78.55,-82.21,876.16,398,-116,-291
1512178585,-0.1256,-0.0148,0.4386,-36.44,-55.42,973.88,398,-116,-291
1512178585,-0.0434,-0.0112,0.4406,40.83,-3.60,813.05,398,-116,-291
1512178585,0.0907,0.1024,0.4485,-64.27,-10.25,928.47,398,-116,-291
1512178585,-0.0722,0.0194,0.4538,-34.12,-48.71,1032.29,388,-116,-287
1512178585,-0.0670,0.0276,0.4547,20.20,-71.47,921.14,388,-116,-287
1512178585,0.0365,0.0826,0.4498,41.93,-97.35,952.09,388,-116,-287
1512178585,-0.0485,0.0077,0.4529,-18.80,-72.57,974.00,388,-116,-287
1512178585,-0.0510,0.0993,0.4441,49.13,-79.53,1005.92,388,-116,-287
1512178585,-0.1539,-0.0382,0.4412,15.56,-21.18,957.89,393,-100,-279
1512178585,0.0985,0.0920,0.4432,-158.39,37.11,968.02,393,-100,-279
1512178585,0.1027,0.0698,0.4514,88.99,-39.06,990.66,393,-100,-279
1512178585,-0.0557,0.0734,0.4531,19.78,-153.02,977.48,393,-100,-279
1512178585,-0.1117,0.0116,0.4521,-46.57,-53.83,1009.89,381,-84,-277
1512178585,0.0654,0.0574,0.4557,18.98,4.27,882.87,381,-84,-277
1512178585,0.0511,0.0851,0.4539,-78.25,-101.81,976.81,381,-84,-277
1512178585,-0.0722,0.0256,0.4453,40.16,-117.98,947.33,381,-84,-277
1512178585,-0.1329,0.0463,0.4541,-23.93,-63.05,975.52,381,-84,-277
1512178585,-0.0068,0.0433,0.4605,-17.27,-0.31,973.02,381,-81,-301
1512178585,0.0204,0.0313,0.4546,19.23,-42.97,932.92,381,-81,-301
1512178585,0.0417,0.0750,0.4598,-25.63,-39.86,970.34,381,-81,-301
1512178585,-0.0479,0.0138,0.4618,25.76,-54.02,984.56,381,-81,-301
1512178585,0.0023,0.0150,0.4755,-39.18,-44.98,997.68,377,-66,-277
1512178585,-0.0089,-0.0194,0.4700,61.28,-74.40,850.40,377,-66,-277
1512178585,0.1453,0.1272,0.4804,-21.91,-36.62,939.51,377,-66,-277
1512178586,-0.0336,-0.0039,0.4768,8.67,-132.14,960.02,377,-66,-277
1512178586,-0.0091,0.0063,0.4904,-58.59,27.71,915.53,377,-66,-277
1512178586,0.0611,0.0590,0.4867,-70.37,-8.18,998.90,374,-59,-284
1512178586,-0.0619,-0.0510,0.4892,-63.17,-69.95,970.89,374,-59,-284
1512178586,0.0675,0.0290,0.4824,21.30,-17.27,845.58,374,-59,-284
1512178586,0.0888,0.1161,0.4887,-42.48,-79.77,1010.07,374,-59,-284
1512178586,-0.1834,-0.0541,0.4903,-18.80,-102.48,967.16,353,-45,-297
1512178586,0.0288,0.0708,0.4875,16.11,-33.33,919.62,353,-45,-297
1512178586,-0.0228,-0.0119,0.4916,47.49,-72.45,897.95,353,-45,-297
1512178586,0.0190,0.0101,0.4980,-111.69,15.93,951.29,353,-45,-297
1512178586,0.0704,0.0029,0.4965,-66.41,37.66,948.55,353,-45,-297
1512178586,-0.1149,-0.0056,0.4964,-43.76,-38.21,983.70,358,-33,-282
1512178586,-0.1278,-0.0225,0.5053,-8.00,-79.10,898.62,358,-33,-282
1512178586,-0.0146,0.0324,0.5060,10.50,-34.30,911.19,358,-33,-282
1512178586,-0.0589,0.0458,0.5131,-18.55,-39.67,1045.10,358,-33,-282
1512178586,-0.1309,-0.0128,0.5000,35.46,-14.04,962.04,358,-33,-282
1512178586,-0.0591,0.0441,0.4979,21.85,-13.98,1014.34,349,-21,-287
1512178586,-0.0120,0.0064,0.4951,-69.34,95.03,1093.14,349,-21,-287
1512178586,-0.0884,-0.0333,0.4916,-42.18,32.65,978.64,349,-21,-287
1512178586,-0.0571,-0.0127,0.4969,-110.60,92.35,1110.11,349,-21,-287
1512178586,-0.2380,-0.0812,0.4818,34.36,-91.19,959.41,340,-22,-292
1512178586,-0.1621,0.0063,0.4931,-1.46,29.48,995.54,340,-22,-292
1512178586,-0.2457,-0.0824,0.4862,-2.14,-51.57,976.26,340,-22,-292
1512178586,-0.2330,-0.0383,0.4810,82.28,-68.73,981.38,340,-22,-292
1512178586,-0.3172,-0.0870,0.4906,14.40,-6.16,1023.86,340,-22,-292
1512178586,-0.3348,-0.0931,0.4951,12.70,-87.77,970.58,342,-14,-287
1512178586,-0.1277,-0.0901,0.4894,-8.61,-71.17,832.28,342,-14,-287
1512178586,-0.0941,0.0043,0.5081,73.91,-181.46,899.90,342,-14,-287
1512178586,-0.0814,-0.0832,0.5101,87.22,-93.99,873.11,342,-14,-287
1512178586,-0.0699,0.0012,0.5123,107.30,-196.04,829.59,342,-14,-287
1512178586,-0.0244,-0.0229,0.5284,16.66,-75.50,962.46,349,-14,-294
1512178586,-0.0016,0.0518,0.5073,-29.85,25.21,1110.41,349,-14,-294
1512178586,-0.0381,0.0041,0.5036,124.02,-108.95,980.22,349,-14,-294
1512178586,-0.0425,0.0812,0.4880,79.10,-98.75,1005.31,349,-14,-294
1512178586,0.0509,0.1976,0.4935,101.75,-84.35,1075.20,337,8,-306
1512178586,-0.0003,0.1268,0.4943,60.67,-31.19,1121.09,337,8,-306
1512178586,0.0449,0.1534,0.4900,-19.59,-81.48,1022.77,337,8,-306
1512178587,0.1364,0.2473,0.4866,77.39,-67.44,968.93,337,8,-306
1512178587,0.0174,0.1908,0.4943,2.26,-73.36,978.39,337,8,-306
1512178587,-0.0534,0.1707,0.4943,18.49,-25.27,840.76,333,12,-302
1512178587,0.0364,0.1919,0.4938,-70.31,7.32,789.67,333,12,-302
1512178587,-0.0334,0.1827,0.4985,-115.72,-0.37,881.04,333,12,-302
1512178587,-0.1189,0.0824,0.4959,-204.28,20.75,831.12,333,12,-302
1512178587,0.0133,0.1451,0.5021,-178.22,49.50,911.32,333,12,-302
1512178587,-0.1103,0.0317,0.5043,-230.65,31.43,954.28,319,26,-296
1512178587,-0.1276,0.0822,0.4955,-70.74,-57.37,897.95,319,26,-296
1512178587,-0.1654,0.0325,0.4896,-57.43,-47.55,913.70,319,26,-296
1512178587,-0.1655,0.0752,0.4826,-8.54,-167.85,914.25,319,26,-296
1512178587,-0.1142,0.0439,0.4766,-7.93,-134.70,878.48,298,37,-306
1512178587,-0.1073,0.0133,0.4904,-48.77,-131.65,1034.48,298,37,-306
1512178587,-0.1823,0.0168,0.5144,-146.91,-61.34,996.58,298,37,-306
1512178587,0.0051,0.0308,0.5069,-67.99,-70.86,908.87,298,37,-306
1512178587,-0.0806,0.0550,0.5169,-102.91,-110.35,1055.05,298,37,-306
1512178587,-0.2374,-0.0300,0.5317,-103.88,-93.81,1084.96,300,52,-324
1512178587,-0.1298,-0.0144,0.5382,-74.77,-20.32,1058.53,300,52,-324
1512178587,-0.1621,-0.1300,0.5497,-115.11,-75.38,923.34,300,52,-324
1512178587,-0.0170,-0.0188,0.5345,-82.21,-66.04,950.20,300,52,-324
1512178587,-0.1743,-0.1511,0.5344,-85.08,-107.85,1011.05,289,56,-311
1512178587,-0.1838,-0.0695,0.5286,-29.97,-149.23,928.22,289,56,-311
1512178587,-0.1901,-0.1417,0.5191,-62.81,-142.64,905.27,289,56,-311
1512178587,-0.0895,-0.0740,0.5163,-54.38,-117.61,872.31,289,56,-311
1512178587,-0.0819,-0.1027,0.5187,-42.66,-125.18,872.13,289,56,-311
1512178587,-0.0999,-0.0301,0.5252,-34.06,-104.80,1009.58,286,56,-308
1512178587,-0.0889,-0.1300,0.5330,-50.72,-125.06,987.92,286,56,-308
1512178587,-0.0475,-0.0433,0.5325,80.99,-179.93,952.21,286,56,-308
1512178587,0.1386,-0.0479,0.5396,-19.41,-220.58,1003.60,286,56,-308
1512178587,0.0463,-0.0390,0.5159,7.75,-226.81,1060.42,270,40,-319
1512178587,0.0566,-0.0533,0.5527,-28.32,-181.70,994.08,270,40,-319
1512178587,0.1182,-0.0249,0.4832,-45.78,-136.78,938.35,270,40,-319
1512178587,0.2075,0.0387,0.4803,-62.99,-186.65,923.83,270,40,-319
1512178587,0.1230,0.0398,0.5008,-76.29,-115.66,988.04,270,40,-319
1512178587,0.1210,-0.0205,0.4971,-129.33,-126.83,793.70,254,38,-301
1512178587,0.1421,0.0711,0.4967,-141.91,-76.78,873.66,254,38,-301
1512178587,0.0350,0.0117,0.5019,-190.86,-94.48,823.91,254,38,-301
1512178587,0.0557,0.0866,0.5041,-198.79,-57.62,889.83,254,38,-301
1512178588,-0.0136,0.0493,0.5005,-156.37,-84.05,887.76,254,38,-301
1512178588,-0.0336,0.0506,0.4955,-166.50,-60.42,959.05,235,37,-313
1512178588,0.0016,0.0217,0.4941,-169.43,-85.02,892.58,235,37,-313
1512178588,0.0160,0.0575,0.4890,-163.27,-88.68,987.37,235,37,-313
1512178588,-0.1104,0.0266,0.4856,-80.57,-130.37,1008.85,235,37,-313
1512178588,-0.1236,0.0020,0.4862,-67.57,-127.93,1018.98,228,65,-323
1512178588,-0.0284,-0.0060,0.4991,-96.31,-126.22,892.76,228,65,-323
1512178588,0.0545,0.0182,0.5029,-67.14,-112.24,967.16,228,65,-323
1512178588,0.0276,0.0076,0.5127,-122.80,-132.45,960.69,228,65,-323
1512178588,-0.0340,0.0185,0.5144,-46.81,-192.81,1019.71,228,65,-323
1512178588,-0.0973,-0.0123,0.5268,-115.23,-152.22,1002.32,219,59,-308
1512178588,-0.0702,-0.0069,0.5220,-83.50,-169.62,991.82,219,59,-308
1512178588,-0.0581,-0.0198,0.5193,-73.61,-130.86,969.79,219,59,-308
1512178588,0.0577,0.0136,0.5169,-81.97,-147.89,940.00,219,59,-308
1512178588,0.0276,0.0297,0.5147,-154.54,-160.64,926.27,219,59,-308
1512178588,0.0105,-0.0071,0.5153,-133.42,-104.55,958.13,196,37,-316
1512178588,-0.0545,0.0075,0.5077,-133.24,-146.73,998.35,196,37,-316
1512178588,-0.0260,0.0157,0.5153,-119.75,-91.61,884.46,196,37,-316
1512178588,0.0064,0.0715,0.5093,-179.81,-153.75,956.73,196,37,-316
1512178588,-0.0891,-0.0096,0.5104,-59.75,-83.56,968.81,188,70,-321
1512178588,-0.0822,0.0210,0.5079,-67.44,-134.46,938.78,188,70,-321
1512178588,-0.0618,0.0065,0.5096,-169.13,-96.92,901.61,188,70,-321
1512178588,-0.0210,-0.0244,0.5097,-121.70,-110.96,917.42,188,70,-321
1512178588,0.0258,0.0168,0.5072,-120.91,-65.37,951.60,188,70,-321
1512178588,-0.0694,-0.0332,0.5072,-147.71,-153.50,954.22,173,49,-314
1512178588,-0.0208,0.0305,0.5015,-96.37,-145.08,969.12,173,49,-314
1512178588,-0.1678,-0.0587,0.5012,-108.28,-200.07,986.88,173,49,-314
1512178588,-0.0999,-0.0352,0.4972,-100.16,-106.08,950.13,173,49,-314
1512178588,-0.0222,-0.0060,0.4863,-136.35,-170.04,893.43,173,49,-314
1512178588,0.0060,0.0132,0.4894,-162.84,-118.04,914.79,151,47,-323
1512178588,0.0329,0.0109,0.4808,-135.80,-123.11,811.28,151,47,-323
1512178588,-0.0261,0.0419,0.4731,-157.59,-114.69,994.38,151,47,-323
1512178588,-0.1224,-0.0411,0.4692,-116.64,-126.10,899.48,151,47,-323
1512178588,0.0270,0.0931,0.4649,-179.87,-67.63,995.61,140,51,-319
1512178588,-0.0477,-0.0264,0.4579,-138.67,-141.66,983.22,140,51,-319
1512178588,0.0292,0.0482,0.4587,-168.21,-101.93,973.94,140,51,-319
1512178588,0.0194,0.0073,0.4526,-115.42,-142.58,983.83,140,51,-319
1512178588,-0.0348,0.0153,0.4502,-156.19,-142.27,941.04,140,51,-319
1512178589,0.0262,0.0538,0.4455,-163.21,-78.55,1017.52,135,38,-328
1512178589,-0.0790,-0.0067,0.4386,-179.99,-106.38,1035.40,135,38,-328
1512178589,0.0389,0.0692,0.4365,-157.78,-102.54,957.09,135,38,-328
1512178589,-0.0127,0.0162,0.4302,-168.95,-146.30,987.43,135,38,-328
1512178589,-0.0104,0.0423,0.4238,-140.81,-124.27,1007.87,135,38,-328
1512178589,0.0013,-0.0218,0.4210,-193.85,-138.92,906.68,121,31,-321
1512178589,0.0193,0.0378,0.4129,-186.65,-104.00,934.63,121,31,-321
1512178589,-0.0397,-0.0180,0.4029,-166.14,-95.21,900.09,121,31,-321
1512178589,0.0079,0.0210,0.3967,-145.75,-94.67,903.81,121,31,-321
1512178589,-0.0731,-0.0292,0.3916,-141.48,-79.59,907.29,86,59,-321
1512178589,-0.0029,0.0288,0.3832,-155.94,-85.02,899.54,86,59,-321
1512178589,-0.0378,0.0025,0.3762,-170.84,-106.26,889.77,86,59,-321
1512178589,0.0280,0.0497,0.3748,-163.94,-93.93,939.45,86,59,-321
1512178589,-0.0387,-0.0182,0.3675,-162.29,-65.98,936.95,86,59,-321
1512178589,-0.0288,-0.0185,0.3635,-176.94,-61.40,875.18,91,33,-306
1512178589,-0.0168,0.0260,0.3535,-177.31,-20.69,978.82,91,33,-306
1512178589,-0.0607,-0.0253,0.3459,-128.97,-49.38,991.88,91,33,-306
1512178589,-0.0907,-0.0324,0.3490,-208.86,-41.08,930.60,91,33,-306
1512178589,-0.0360,0.0043,0.3305,-188.48,-18.98,944.46,82,17,-321
1512178589,-0.0170,-0.0067,0.3233,-206.91,-64.15,940.92,82,17,-321
1512178589,-0.0481,-0.0024,0.3099,-130.43,-55.24,958.68,82,17,-321
1512178589,-0.0498,-0.0064,0.3043,-175.29,-64.21,954.96,82,17,-321
1512178589,-0.0188,-0.0093,0.2977,-219.48,-54.63,953.43,82,17,-321
1512178589,-0.0648,-0.0322,0.2919,-160.34,-36.56,1011.35,82,14,-318
1512178589,-0.0708,-0.0321,0.2755,-168.15,-31.49,955.08,82,14,-318
1512178589,-0.0146,-0.0029,0.2603,-116.58,-67.32,1000.85,82,14,-318
1512178589,0.0053,-0.0116,0.2474,-85.33,-66.59,980.59,82,14,-318
1512178589,0.0394,0.0005,0.2422,-125.73,-30.40,960.27,82,14,-318
1512178589,-0.0080,0.0141,0.2345,-111.27,-22.22,975.40,72,21,-311
1512178589,-0.0103,-0.0369,0.2229,-104.00,-3.78,921.69,72,21,-311
1512178589,0.0614,0.0361,0.2217,-209.11,12.76,946.41,72,21,-311
1512178589,-0.0188,-0.0509,0.2149,-160.10,32.35,902.83,72,21,-311
1512178589,0.0458,0.0493,0.2113,-153.69,-19.78,915.16,68,10,-318
1512178589,-0.0130,-0.0045,0.2005,-101.38,-30.03,894.90,68,10,-318
1512178589,0.0322,0.0119,0.1933,-124.02,-30.03,794.07,68,10,-318
1512178589,0.0625,0.0648,0.1856,-124.69,-41.75,880.31,68,10,-318
1512178589,0.0533,0.0108,0.1807,-145.63,-24.96,881.16,68,10,-318
1512178590,0.0391,0.0285,0.1707,-157.47,-17.82,951.78,61,7,-318
1512178590,-0.0099,-0.0174,0.1664,-164.49,24.90,885.25,61,7,-318
1512178590,0.0406,0.0081,0.1543,-226.93,70.68,942.87,61,7,-318
1512178590,0.0513,-0.0076,0.1454,-179.93,14.65,945.19,61,7,-318
1512178590,-0.0269,-0.0193,0.1461,-170.04,64.03,979.13,50,17,-318
1512178590,-0.0252,-0.0186,0.1413,-192.02,49.68,976.38,50,17,-318
1512178590,-0.0365,-0.0325,0.1398,-204.16,29.36,917.79,50,17,-318
1512178590,0.0013,0.0065,0.1320,-173.40,71.17,945.50,50,17,-318
1512178590,0.0156,-0.0217,0.1294,-151.79,52.19,940.73,50,17,-318
1512178590,-0.0566,-0.0081,0.1232,-140.62,10.01,948.24,47,0,-314
1512178590,-0.0181,-0.0265,0.1197,-123.41,19.65,966.74,47,0,-314
1512178590,-0.0008,-0.0405,0.1103,-108.03,7.63,945.13,47,0,-314
1512178590,0.0694,0.0027,0.1123,-158.14,34.73,934.33,47,0,-314
1512178590,0.0040,-0.0477,0.1064,-164.61,68.05,948.18,47,0,-314
1512178590,0.0036,-0.0403,0.0991,-165.10,56.40,944.70,42,1,-319
1512178590,0.0265,0.0119,0.0960,-160.34,80.87,941.65,42,1,-319
1512178590,0.0103,0.0100,0.0904,-168.46,38.88,978.52,42,1,-319
1512178590,-0.0061,-0.0473,0.0818,-131.29,26.25,853.33,42,1,-319
1512178590,0.1146,0.0644,0.0802,-106.69,66.04,931.88,40,0,-318
1512178590,0.0345,0.0023,0.0798,-178.47,65.55,965.09,40,0,-318
1512178590,0.0075,-0.0057,0.0690,-108.52,56.09,891.24,40,0,-318
1512178590,0.0196,0.0574,0.0631,-170.04,82.82,916.38,40,0,-318
1512178590,-0.0972,-0.0252,0.0541,-162.60,32.47,940.67,40,0,-318
1512178590,0.0120,0.0421,0.0510,-173.40,73.49,936.10,29,-7,-324
1512178590,-0.0181,-0.0013,0.0490,-187.19,50.90,959.35,29,-7,-324
1512178590,0.0621,-0.0115,0.0487,-214.54,99.06,963.68,29,-7,-324
1512178590,0.1056,0.0037,0.0447,-118.71,79.96,954.65,29,-7,-324
1512178590,0.0345,-0.0103,0.0409,-92.90,42.05,888.31,29,-7,-324
1512178590,0.0304,0.0272,0.0417,-98.94,-2.75,964.42,33,-10,-304
1512178590,-0.0740,-0.0285,0.0501,-122.38,76.60,934.14,33,-10,-304
1512178590,0.0297,0.0266,0.0489,-162.66,67.75,956.85,33,-10,-304
1512178590,-0.0281,-0.0541,0.0437,-105.10,38.76,926.51,33,-10,-304
1512178590,0.0884,0.0501,0.0410,-101.62,50.72,907.29,36,-10,-314
1512178590,-0.0453,-0.0453,0.0442,-173.16,71.59,947.14,36,-10,-314
1512178590,0.0124,0.0329,0.0376,-132.08,34.42,864.44,36,-10,-314
1512178590,-0.0071,0.0278,0.0334,-126.46,30.40,922.00,36,-10,-314
1512178590,-0.0107,0.0305,0.0308,-199.40,30.40,954.47,36,-10,-314
1512178590,-0.1109,-0.0501,0.0282,-175.48,68.97,958.74,38,-12,-313
1512178591,0.0017,0.0360,0.0250,-133.00,97.47,969.24,38,-12,-313
1512178591,0.0204,-0.0237,0.0264,-203.25,86.12,902.34,38,-12,-313
1512178591,0.0309,0.0168,0.0185,-115.97,104.55,915.41,38,-12,-313
1512178591,-0.0538,-0.0052,0.0198,-195.74,124.82,923.89,29,-3,-331
1512178591,-0.0269,-0.0041,0.0085,-137.63,78.74,958.01,29,-3,-331
1512178591,-0.0706,-0.0365,0.0112,-80.75,131.90,933.35,29,-3,-331
1512178591,0.0485,0.0546,0.0105,-108.28,98.45,965.39,29,-3,-331
1512178591,-0.0539,-0.0985,0.0073,-153.14,111.51,938.72,29,-3,-331
1512178591,0.0756,0.0358,0.0056,-108.22,87.71,877.75,36,-10,-328
1512178591,-0.0228,-0.0619,0.0061,-112.79,80.14,909.36,36,-10,-328
1512178591,0.0550,0.0008,0.0028,-45.41,89.72,882.26,36,-10,-328
1512178591,0.0423,-0.0130,-0.0037,-151.49,74.52,940.73,36,-10,-328
1512178591,0.0015,-0.0662,-0.0088,-162.84,71.90,886.66,36,-10,-328
1512178591,0.1080,0.0342,-0.0150,-95.52,67.50,959.17,35,-12,-323
1512178591,-0.0636,-0.0619,-0.0120,-138.55,150.45,955.32,35,-12,-323
1512178591,0.0744,-0.0222,-0.0123,-110.78,99.98,897.16,35,-12,-323
1512178591,0.0497,-0.0157,-0.0138,-206.85,125.12,929.38,35,-12,-323
1512178591,-0.0872,-0.0105,-0.0119,-117.25,132.93,1018.43,43,-14,-304
1512178591,-0.0736,-0.0459,-0.0103,-148.93,178.53,994.02,43,-14,-304
1512178591,0.0065,-0.0349,-0.0132,-156.62,124.94,934.94,43,-14,-304
1512178591,-0.0289,-0.0052,-0.0189,-88.20,106.81,915.16,43,-14,-304
1512178591,0.0188,-0.0041,-0.0172,-82.89,98.39,946.11,43,-14,-304
1512178591,-0.0526,-0.0017,-0.0138,-128.97,89.72,999.21,40,-17,-328
1512178591,0.0438,-0.0153,-0.0198,-94.85,79.59,876.59,40,-17,-328
1512178591,-0.0724,-0.0178,-0.0142,-70.92,98.33,956.48,40,-17,-328
1512178591,0.0438,0.0411,-0.0120,-156.98,134.09,951.84,40,-17,-328
1512178591,-0.0648,-0.0562,-0.0153,-136.05,156.74,955.20,40,-17,-328
1512178591,0.0201,0.0210,-0.0168,-122.56,160.34,951.42,40,-38,-324
1512178591,0.0146,0.0124,-0.0154,-194.52,166.87,975.83,40,-38,-324
1512178591,-0.0353,-0.0096,-0.0244,-42.54,104.86,888.85,40,-38,-324
1512178591,-0.0451,0.0313,-0.0161,-136.17,107.67,932.74,40,-38,-324
1512178591,0.0205,-0.0128,-0.0237,-102.72,122.92,917.24,33,-24,-321
1512178591,-0.0077,0.0208,-0.0160,-98.75,152.95,899.41,33,-24,-321
1512178591,0.0008,0.0007,-0.0125,-156.25,144.78,925.17,33,-24,-321
1512178591,0.0678,-0.0015,-0.0116,-62.32,174.13,987.79,33,-24,-321
1512178591,-0.0254,-0.0296,-0.0208,-114.99,142.94,912.54,33,-24,-321
1512178591,0.0927,0.0834,-0.0196,-116.03,51.51,973.82,42,-26,-302
1512178591,-0.0361,-0.0423,-0.0170,-114.93,107.24,952.64,42,-26,-302
1512178592,0.0115,0.0208,-0.0172,-152.53,83.80,1042.42,42,-26,-302
1512178592,-0.0473,-0.0129,-0.0123,-112.24,126.77,1016.78,42,-26,-302
1512178592,-0.0296,0.0113,-0.0172,-61.22,146.61,952.51,42,-26,-302
1512178592,-0.0407,0.0001,-0.0245,-113.83,119.81,1019.41,40,-10,-291
1512178592,-0.0184,-0.0099,-0.0160,-110.29,125.06,893.25,40,-10,-291
1512178592,0.0196,0.0530,-0.0168,-56.27,109.37,1017.94,40,-10,-291
1512178592,-0.1200,-0.0031,-0.0095,-86.79,106.93,937.62,40,-10,-291
1512178592,0.0324,0.0104,-0.0200,-81.12,100.34,860.05,59,-1,-302
1512178592,0.0310,0.0177,-0.0124,-80.26,103.70,825.68,59,-1,-302
1512178592,0.0583,0.1009,-0.0083,-115.11,24.11,948.49,59,-1,-302
1512178592,-0.0326,-0.0228,-0.0162,-37.90,107.18,968.02,59,-1,-302
1512178592,-0.0015,0.0144,-0.0134,-52.61,86.30,959.23,59,-1,-302
1512178592,0.0383,-0.0124,-0.0056,-133.06,198.24,950.50,47,0,-314
1512178592,0.0824,-0.0236,-0.0127,-82.28,178.71,905.70,47,0,-314
1512178592,-0.0027,0.0336,-0.0095,-129.76,97.53,914.92,47,0,-314
1512178592,-0.0779,0.0124,-0.0169,-102.84,110.53,993.96,47,0,-314
1512178592,-0.0783,0.0128,-0.0150,-112.12,121.22,972.78,52,1,-319
1512178592,-0.0964,-0.0138,-0.0096,-144.10,150.02,1015.93,52,1,-319
1512178592,0.0132,0.0138,-0.0119,-118.10,161.07,958.50,52,1,-319
1512178592,-0.0378,-0.0182,-0.0073,-145.02,130.74,1012.15,52,1,-319
1512178592,-0.0316,-0.0213,-0.0023,-84.05,147.09,918.64,52,1,-319
1512178592,0.0735,0.0015,0.0009,-103.33,153.50,926.27,45,5,-319
1512178592,-0.0320,-0.0072,-0.0080,-51.70,124.88,952.82,45,5,-319
1512178592,-0.0293,-0.0125,-0.0017,-118.29,162.05,959.59,45,5,-319
1512178592,-0.0364,-0.0146,-0.0053,-56.34,89.29,955.20,45,5,-319
1512178592,-0.0225,0.0272,-0.0116,-46.45,55.42,962.10,45,5,-319
1512178592,-0.0032,-0.0250,-0.0044,-87.83,131.23,973.57,36,0,-311
1512178592,-0.0462,-0.0145,-0.0004,-49.99,95.34,906.13,36,0,-311
1512178592,-0.0162,0.0043,0.0047,-120.36,153.20,937.81,36,0,-311
1512178592,-0.0036,0.0345,-0.0079,-89.90,144.96,1007.93,36,0,-311
1512178592,0.0112,0.0080,-0.0044,-141.17,147.89,1022.71,45,-12,-326
1512178592,-0.0181,-0.0049,0.0017,-110.53,142.76,969.42,45,-12,-326
1512178592,0.0096,0.0028,0.0057,-116.82,106.26,916.75,45,-12,-326
1512178592,-0.1008,-0.0116,0.0055,-78.92,131.23,986.57,45,-12,-326
1512178592,-0.0053,0.0169,0.0127,-90.45,131.47,953.86,45,-12,-326
1512178592,-0.0382,-0.0565,0.0109,-138.24,127.56,947.81,42,1,-333
1512178592,0.0928,0.0389,0.0137,-108.28,140.75,901.43,42,1,-333
1512178592,0.0270,-0.0364,0.0084,-51.88,106.38,941.41,42,1,-333
1512178593,0.0382,0.0414,0.0145,-118.90,141.85,956.18,42,1,-333
1512178593,-0.0445,-0.0333,0.0160,-58.17,196.11,965.39,42,1,-333
1512178593,-0.0522,0.0083,0.0185,-140.20,187.50,977.36,59,-19,-316
1512178593,-0.0489,0.0150,0.0125,-68.48,81.67,928.96,59,-19,-316
1512178593,-0.0664,-0.0443,0.0174,-88.87,113.89,905.15,59,-19,-316
1512178593,0.0012,0.0498,0.0165,-99.49,106.02,929.63,59,-19,-316
1512178593,-0.0184,-0.0451,0.0272,-69.27,90.33,954.59,42,1,-309
1512178593,-0.0535,0.0067,0.0244,-68.54,87.59,1015.50,42,1,-309
1512178593,-0.0314,-0.0403,0.0317,-68.48,115.11,985.60,42,1,-309
1512178593,-0.0105,-0.0346,0.0377,-69.09,110.72,972.90,42,1,-309
1512178593,-0.0210,-0.0170,0.0429,-80.20,118.65,981.51,42,1,-309
1512178593,-0.0281,-0.0061,0.0423,-20.75,93.99,1021.73,49,-19,-343
1512178593,-0.0979,-0.0289,0.0507,-44.56,129.88,1018.07,49,-19,-343
1512178593,-0.0419,-0.0426,0.0493,-91.00,131.77,943.36,49,-19,-343
1512178593,0.0115,-0.0442,0.0561,-63.84,103.27,953.67,49,-19,-343
1512178593,0.0172,0.0334,0.0640,-48.34,85.69,957.28,49,-19,-343
1512178593,-0.0502,-0.0429,0.0715,-34.67,25.33,914.18,45,-5,-336
1512178593,-0.0188,0.0526,0.0758,-42.36,46.63,992.43,45,-5,-336
1512178593,0.0027,-0.0297,0.0799,19.35,59.88,953.98,45,-5,-336
1512178593,-0.0346,0.0250,0.0903,-21.36,17.03,951.29,45,-5,-336
1512178593,0.0566,0.0241,0.0852,-75.93,77.94,964.42,45,-15,-336
1512178593,0.0383,0.0079,0.0949,-44.31,-0.49,894.04,45,-15,-336
1512178593,0.0948,0.1029,0.1009,-68.85,34.30,896.42,45,-15,-336
1512178593,-0.0863,-0.0622,0.1027,-26.31,6.59,968.02,45,-15,-336
1512178593,-0.0762,0.0426,0.1214,-88.07,59.45,943.36,45,-15,-336
1512178593,-0.0728,-0.0313,0.1142,-57.13,80.20,899.48,29,-35,-314
1512178593,-0.0426,-0.0075,0.1137,-26.73,60.24,977.72,29,-35,-314
1512178593,0.0035,0.0037,0.1321,11.41,74.89,947.33,29,-35,-314
1512178593,0.0413,-0.0063,0.1380,-34.67,18.01,910.28,29,-35,-314
1512178593,0.0056,0.0423,0.1486,35.03,-14.04,1028.38,45,-26,-319
1512178593,-0.1402,-0.0487,0.1511,13.79,-22.95,980.53,45,-26,-319
1512178593,-0.0746,-0.0136,0.1535,1.16,-14.83,942.14,45,-26,-319
1512178593,-0.0276,-0.0266,0.1615,-64.21,11.90,951.97,45,-26,-319
1512178593,0.0160,-0.0459,0.1627,32.47,-94.73,892.82,45,-26,-319
1512178593,0.0590,0.0116,0.1854,-35.58,38.70,960.88,54,-28,-314
1512178593,0.0104,-0.0320,0.1894,13.79,22.09,967.71,54,-28,-314
1512178593,0.0104,-0.0112,0.1936,8.67,-12.21,1004.21,54,-28,-314
1512178594,-0.0775,-0.0200,0.1933,-29.42,-45.41,958.74,54,-28,-314
1512178594,-0.0708,-0.0083,0.2113,27.77,-20.94,980.96,54,-28,-314
1512178594,-0.0040,0.0140,0.2185,-61.65,11.41,976.87,45,-22,-316
1512178594,0.0164,-0.0431,0.2212,-13.49,17.15,966.67,45,-22,-316
1512178594,0.0238,0.0593,0.2256,49.87,-33.39,985.90,45,-22,-316
1512178594,0.0017,-0.0208,0.2318,26.79,6.53,980.83,45,-22,-316
1512178594,0.0168,0.0937,0.2361,69.64,-100.22,1051.15,19,-21,-304
1512178594,0.0060,0.0294,0.2342,62.87,5.80,965.45,19,-21,-304
1512178594,0.0830,0.1095,0.2427,45.90,-93.26,965.64,19,-21,-304
1512178594,-0.0987,-0.0482,0.2493,19.96,-9.64,863.89,19,-21,-304
1512178594,0.1269,0.0831,0.2507,-16.78,-37.90,819.64,19,-21,-304
1512178594,-0.0075,0.0346,0.2593,-0.79,-32.84,816.59,17,-22,-302
1512178594,-0.0073,-0.0024,0.2699,-8.73,103.21,848.57,17,-22,-302
1512178594,0.0336,0.0344,0.2643,-66.53,30.21,903.32,17,-22,-302
1512178594,-0.0157,-0.0185,0.2585,-7.87,13.55,952.51,17,-22,-302
1512178594,0.0129,0.0402,0.2499,33.63,-78.31,936.22,17,-22,-302
1512178594,-0.0012,0.0280,0.2539,47.97,-87.89,1002.99,24,-29,-306
1512178594,-0.0975,-0.0125,0.2491,12.39,-42.24,1000.06,24,-29,-306
1512178594,-0.0262,-0.0115,0.2667,-8.79,-29.48,944.34,24,-29,-306
1512178594,-0.0601,-0.0032,0.2746,-46.39,-28.14,995.61,24,-29,-306
1512178594,-0.0192,-0.0072,0.2762,-17.82,12.82,931.76,14,-40,-323
1512178594,0.0115,0.0048,0.2827,-41.69,-11.60,952.76,14,-40,-323
1512178594,-0.0353,-0.0073,0.2763,-31.19,-9.77,959.41,14,-40,-323
1512178594,0.0216,0.0100,0.2842,7.08,-26.31,913.64,14,-40,-323
1512178594,-0.0871,0.0043,0.2883,9.46,-46.57,970.03,14,-40,-323
1512178594,-0.0619,-0.0011,0.2932,-41.26,-36.62,963.56,12,-45,-311
1512178594,-0.0394,0.0004,0.2911,-34.67,-54.26,1001.22,12,-45,-311
1512178594,-0.0258,-0.0129,0.2972,-15.87,-73.00,926.03,12,-45,-311
1512178594,0.0188,0.0391,0.2975,-19.71,-34.00,932.56,12,-45,-311
1512178594,0.0136,0.0505,0.2941,-11.84,0.06,1091.67,12,-45,-311
1512178594,-0.0505,-0.0289,0.2862,-39.98,-69.46,993.29,1,-45,-304
1512178594,0.0521,0.0617,0.2856,-10.19,-19.78,990.42,1,-45,-304
1512178594,-0.0065,0.0076,0.2822,-81.18,-75.93,947.02,1,-45,-304
1512178594,-0.0558,0.0455,0.2883,-68.05,-74.46,971.86,1,-45,-304
1512178594,-0.0285,-0.0049,0.2923,-79.83,0.00,852.11,-5,-59,-304
1512178594,0.0076,0.0529,0.2895,-60.85,-4.52,942.87,-5,-59,-304
1512178594,-0.0539,0.0176,0.2948,-22.52,-39.92,888.98,-5,-59,-304
1512178594,-0.0071,0.0419,0.2957,-64.76,-45.10,922.12,-5,-59,-304
1512178595,-0.0035,-0.0168,0.2996,-49.32,-37.29,882.63,-5,-59,-304
1512178595,0.0294,0.0642,0.2971,-65.61,-52.67,893.80,-8,-74,-311
1512178595,-0.0772,-0.0084,0.2955,-37.11,-68.48,899.23,-8,-74,-311
1512178595,0.0149,0.0282,0.2977,-100.16,-5.49,930.91,-8,-74,-311
1512178595,0.0256,0.0189,0.2921,-62.32,-20.26,916.81,-8,-74,-311
1512178595,0.0330,0.0161,0.2997,-109.74,-53.77,974.00,-7,-61,-309
1512178595,-0.0320,0.0374,0.2979,-53.65,-73.73,979.31,-7,-61,-309
1512178595,-0.0531,-0.0212,0.2973,-78.86,-38.57,961.18,-7,-61,-309
1512178595,0.0170,0.0409,0.2956,-95.40,-72.02,950.62,-7,-61,-309
1512178595,-0.0973,-0.0084,0.2923,-95.52,-111.88,972.11,-7,-61,-309
1512178595,-0.0145,0.0405,0.2900,-35.83,-83.25,986.76,-12,-70,-304
1512178595,-0.0413,-0.0091,0.2936,-94.24,-104.25,960.63,-12,-70,-304
1512178595,0.0244,0.0015,0.2987,-41.50,-99.30,874.15,-12,-70,-304
1512178595,0.0571,0.0103,0.3035,-135.86,-78.19,919.43,-12,-70,-304
1512178595,-0.0128,-0.0188,0.3025,-80.20,-41.81,879.46,-12,-70,-304
1512178595,-0.0213,0.0225,0.3020,-106.26,-49.26,996.46,-15,-77,-301
1512178595,-0.1688,-0.0376,0.3009,-67.57,-52.61,918.21,-15,-77,-301
1512178595,0.0095,0.0177,0.2977,-90.09,-20.51,920.04,-15,-77,-301
1512178595,0.0085,0.0108,0.2955,-118.47,-77.03,879.94,-15,-77,-301
1512178595,0.0450,-0.0105,0.2955,-54.81,-78.00,971.31,-19,-98,-301
1512178595,-0.0585,-0.0009,0.2964,-69.58,-105.90,998.72,-19,-98,-301
1512178595,-0.0778,-0.0980,0.2959,-67.57,-58.47,954.22,-19,-98,-301
1512178595,0.0031,-0.0051,0.2892,-7.32,-99.00,963.32,-19,-98,-301
1512178595,-0.0237,-0.0132,0.2945,-60.36,-112.24,907.17,-19,-98,-301
1512178595,0.0450,-0.0052,0.2917,-81.91,-62.44,953.43,-5,-74,-314
1512178595,0.0402,0.0212,0.2929,-96.92,-83.19,983.28,-5,-74,-314
1512178595,-0.0063,-0.0309,0.2879,-67.08,-85.45,933.29,-5,-74,-314
1512178595,-0.0273,0.0103,0.2859,-60.24,-64.76,982.42,-5,-74,-314
1512178595,-0.0830,-0.0389,0.2884,-60.24,-45.59,928.53,-5,-74,-314
1512178595,0.0116,0.0180,0.2866,-53.47,-58.04,996.58,-19,-98,-297
1512178595,-0.0174,-0.0232,0.2884,-121.58,-79.53,924.87,-19,-98,-297
1512178595,0.0188,-0.0076,0.2826,-108.70,-66.47,965.70,-19,-98,-297
1512178595,-0.0142,-0.0310,0.2812,-97.41,-63.90,931.95,-19,-98,-297
1512178595,0.0089,0.0096,0.2778,-133.48,-50.48,937.01,-10,-111,-306
1512178595,-0.0389,-0.0055,0.2719,-44.92,-96.92,967.47,-10,-111,-306
1512178595,-0.0011,0.0571,0.2682,-63.42,-112.43,917.36,-10,-111,-306
1512178595,-0.0338,0.0257,0.2676,-108.95,-90.03,984.50,-10,-111,-306
1512178595,-0.0372,0.0262,0.2680,-64.64,-85.21,999.57,-10,-111,-306
1512178596,-0.0387,0.0076,0.2728,-72.33,-65.31,965.15,-31,-114,-316
1512178596,-0.0419,0.0152,0.2739,-129.82,-52.92,1011.66,-31,-114,-316
1512178596,-0.0579,-0.0282,0.2759,-132.57,-46.02,951.17,-31,-114,-316
1512178596,0.0064,0.0466,0.2684,-37.48,-94.18,949.83,-31,-114,-316
1512178596,-0.0770,0.0437,0.2703,-72.39,-114.75,1007.63,-31,-114,-316
1512178596,-0.0844,-0.0193,0.2688,-59.63,-80.51,966.92,-17,-118,-299
1512178596,0.0060,0.0643,0.2666,-79.77,-88.62,923.71,-17,-118,-299
1512178596,-0.0635,-0.0075,0.2631,-112.67,-62.26,908.45,-17,-118,-299
1512178596,0.0519,0.0670,0.2651,-166.26,-32.17,916.81,-17,-118,-299
1512178596,-0.0246,-0.0055,0.2639,-138.31,-44.01,987.37,-22,-112,-308
1512178596,-0.0804,-0.0100,0.2662,-83.01,-77.88,946.47,-22,-112,-308
1512178596,-0.1156,-0.0013,0.2672,-63.05,-69.40,987.85,-22,-112,-308
1512178596,-0.0111,0.0088,0.2686,-116.76,-72.08,924.32,-22,-112,-308
1512178596,-0.0032,0.0016,0.2618,-119.93,-62.87,931.21,-22,-112,-308
1512178596,0.0212,0.0256,0.2573,-95.95,-124.45,970.09,-29,-133,-304
1512178596,-0.0334,0.0044,0.2593,-98.75,-98.94,1028.32,-29,-133,-304
1512178596,-0.0395,0.0095,0.2554,-66.77,-96.44,983.83,-29,-133,-304
1512178596,-0.0088,0.0019,0.2543,-110.11,-87.71,959.90,-29,-133,-304
1512178596,0.0684,0.0646,0.2495,-44.19,-80.44,984.19,-29,-144,-301
1512178596,-0.0462,-0.0121,0.2490,-37.60,-68.24,985.53,-29,-144,-301
1512178596,0.0426,0.0748,0.2462,10.25,-26.37,1022.95,-29,-144,-301
1512178596,-0.0587,-0.0543,0.2453,-31.86,-52.43,983.09,-29,-144,-301
1512178596,0.0357,-0.0049,0.2365,-95.15,-47.85,857.06,-29,-144,-301
1512178596,0.0105,0.0264,0.2276,-94.73,-45.17,963.01,-29,-137,-297
1512178596,-0.0495,0.0470,0.2222,-92.10,-49.93,945.37,-29,-137,-297
1512178596,-0.0040,0.0358,0.2228,-85.82,-27.77,947.94,-29,-137,-297
1512178596,0.0190,0.0529,0.2216,-93.20,-28.32,967.04,-29,-137,-297
1512178596,-0.0112,0.0073,0.2177,-120.24,11.29,935.12,-29,-137,-297
1512178596,0.0366,0.0674,0.2083,-108.34,37.72,998.54,-19,-165,-304
1512178596,-0.0935,-0.0138,0.1972,-55.36,-13.18,989.26,-19,-165,-304
1512178596,-0.0433,0.0601,0.1941,-64.39,14.22,984.80,-19,-165,-304
1512178596,-0.0790,-0.0324,0.1911,-81.91,34.30,919.92,-19,-165,-304
1512178596,0.0040,0.0525,0.1868,-54.20,2.62,986.82,-24,-139,-323
1512178596,-0.0526,-0.0346,0.1831,-30.94,7.14,983.15,-24,-139,-323
1512178596,0.0024,0.0330,0.1835,-60.36,23.32,927.00,-24,-139,-323
1512178596,-0.0393,-0.0262,0.1824,-51.15,18.74,984.44,-24,-139,-323
1512178596,-0.0438,0.0206,0.1732,-21.36,16.85,975.46,-24,-139,-323
1512178596,-0.0101,0.0233,0.1738,-61.89,33.63,985.78,-15,-162,-314
1512178597,-0.0358,-0.0225,0.1758,-47.55,29.05,956.30,-15,-162,-314
1512178597,0.0141,0.0185,0.1667,-31.01,14.59,926.94,-15,-162,-314
1512178597,0.0204,0.0473,0.1623,-79.77,13.06,989.50,-15,-162,-314
1512178597,-0.0740,-0.0582,0.1562,-68.91,22.16,956.42,-15,-162,-314
1512178597,-0.0688,0.0237,0.1573,-91.61,15.87,981.63,-8,-158,-318
1512178597,-0.0945,-0.0618,0.1518,-30.27,-19.23,901.92,-8,-158,-318
1512178597,0.0603,0.0461,0.1567,-37.11,14.77,929.75,-8,-158,-318
1512178597,-0.0013,0.0023,0.1506,-49.93,25.51,986.21,-8,-158,-318
1512178597,-0.0232,-0.0099,0.1433,-30.40,38.33,999.57,-14,-163,-319
1512178597,-0.0119,-0.0024,0.1393,-70.86,72.39,976.50,-14,-163,-319
1512178597,-0.0459,-0.0206,0.1393,-58.53,86.91,986.63,-14,-163,-319
1512178597,0.0380,0.0260,0.1329,-4.46,67.20,945.13,-14,-163,-319
1512178597,0.0298,-0.0490,0.1262,-16.05,30.21,913.33,-14,-163,-319
1512178597,0.0511,-0.0084,0.1234,-49.62,36.44,842.10,-12,-165,-314
1512178597,0.0266,0.0766,0.1202,-45.90,41.50,951.29,-12,-165,-314
1512178597,-0.0487,-0.0127,0.1061,-40.22,28.20,967.47,-12,-165,-314
1512178597,-0.0406,0.0405,0.1056,-32.96,31.19,1014.89,-12,-165,-314
1512178597,-0.0626,-0.0322,0.1101,-12.82,75.50,954.90,-8,-169,-321
1512178597,0.0011,-0.0043,0.1068,-63.17,83.37,930.66,-8,-169,-321
1512178597,0.0256,0.0136,0.1040,-119.57,80.08,982.18,-8,-169,-321
1512178597,-0.0525,-0.0523,0.1003,-55.05,38.57,971.01,-8,-169,-321
1512178597,-0.0262,-0.0109,0.1003,-26.55,35.52,924.07,-8,-169,-321
1512178597,-0.0115,-0.0378,0.0992,-29.66,59.63,901.55,-14,-163,-316
1512178597,-0.0618,-0.0775,0.0971,-18.43,46.88,885.86,-14,-163,-316
1512178597,0.0314,0.0089,0.0928,-43.27,62.56,866.21,-14,-163,-316
1512178597,0.0133,-0.0040,0.0880,-36.25,49.38,871.77,-14,-163,-316
1512178597,0.0895,0.0972,0.0854,-41.87,51.51,1001.95,-14,-163,-316
1512178597,-0.1051,-0.0559,0.0814,-58.29,66.04,1060.61,-5,-186,-311
1512178597,0.0093,0.0332,0.0751,-56.27,75.13,1009.89,-5,-186,-311
1512178597,-0.0565,-0.0538,0.0728,-84.90,48.77,946.84,-5,-186,-311
1512178597,0.0583,0.0385,0.0672,-60.06,91.98,936.22,-5,-186,-311
1512178597,0.0228,-0.0036,0.0630,-79.65,80.57,968.57,-5,-186,-311
1512178597,0.0525,-0.0240,0.0607,-50.05,65.98,837.52,-5,-169,-311
1512178597,0.0876,0.0679,0.0569,-55.66,52.98,943.79,-5,-169,-311
1512178597,0.0057,0.0036,0.0553,-70.19,53.10,960.88,-5,-169,-311
1512178597,0.0001,-0.0414,0.0559,-30.27,92.35,880.19,-5,-169,-311
1512178597,0.0806,0.0391,0.0578,-105.16,155.27,965.03,-8,-176,-311
1512178597,0.0182,-0.0158,0.0489,-76.84,103.21,1033.69,-8,-176,-311
1512178598,-0.0515,-0.0597,0.0497,-109.07,115.36,980.41,-8,-176,-311
1512178598,-0.0450,-0.0330,0.0470,-90.58,90.39,989.32,-8,-176,-311
1512178598,-0.0313,-0.0192,0.0405,-109.62,83.56,890.93,-8,-176,-311
1512178598,-0.0362,-0.0258,0.0322,-63.11,60.61,905.09,-15,-179,-331
1512178598,-0.0262,0.0320,0.0278,-70.92,41.50,943.73,-15,-179,-331
1512178598,-0.0668,-0.0586,0.0277,-32.04,111.39,946.66,-15,-179,-331
1512178598,0.0891,0.0719,0.0314,-74.77,116.94,913.57,-15,-179,-331
1512178598,-0.0019,-0.0033,0.0274,-15.81,64.82,997.74,3,-195,-313
1512178598,-0.0157,0.0834,0.0305,-56.76,47.67,965.39,3,-195,-313
1512178598,-0.0905,-0.0748,0.0293,-73.36,52.00,936.77,3,-195,-313
1512178598,0.0541,0.0866,0.0284,-63.29,65.25,961.91,3,-195,-313
1512178598,-0.0438,-0.0767,0.0221,-73.61,121.89,1015.87,3,-195,-313
1512178598,0.0350,0.0265,0.0250,-90.64,93.51,921.26,-1,-183,-318
1512178598,-0.0181,-0.0385,0.0285,-95.46,122.07,981.38,-1,-183,-318
1512178598,-0.0232,-0.0405,0.0252,-54.26,67.57,797.85,-1,-183,-318
1512178598,0.0776,0.0593,0.0210,-21.00,39.25,839.11,-1,-183,-318
1512178598,0.0730,0.1433,0.0138,-15.08,36.56,982.85,-1,-183,-318
1512178598,-0.1060,-0.0417,0.0079,-61.77,79.96,948.43,-1,-183,-308
1512178598,-0.0644,0.0272,0.0083,-94.18,149.35,980.41,-1,-183,-308
1512178598,0.0751,0.0056,0.0212,-81.12,185.06,957.89,-1,-183,-308
1512178598,0.0415,0.0270,0.0264,-107.36,100.46,964.60,-1,-183,-308
1512178598,-0.1080,-0.0820,0.0268,-5.62,113.83,905.33,-5,-197,-308
1512178598,0.1165,0.0945,0.0185,-48.71,19.78,943.42,-5,-197,-308
1512178598,-0.0791,-0.0754,0.0197,-10.62,3.91,945.68,-5,-197,-308
1512178598,-0.0397,0.0457,0.0180,-13.92,27.34,951.29,-5,-197,-308
1512178598,-0.0409,-0.0136,0.0198,-32.84,74.34,984.07,-5,-197,-308
1512178598,0.0297,0.0065,0.0306,-99.12,128.60,1001.53,8,-186,-297
1512178598,-0.0117,-0.0503,0.0256,-32.90,121.28,935.67,8,-186,-297
1512178598,0.0230,0.0128,0.0270,-46.33,64.33,909.67,8,-186,-297
1512178598,-0.0409,-0.0205,0.0269,14.40,75.93,918.21,8,-186,-297
1512178598,0.0390,0.0200,0.0236,-27.40,89.36,943.12,8,-186,-297
1512178598,0.0232,-0.0276,0.0254,-34.61,88.38,930.79,3,-195,-309
1512178598,0.0754,0.0321,0.0262,-46.94,114.56,949.04,3,-195,-309
1512178598,-0.0582,-0.0111,0.0280,-60.30,83.37,1030.40,3,-195,-309
1512178598,-0.0808,-0.0515,0.0368,-59.08,59.57,970.76,3,-195,-309
1512178598,0.0482,0.0252,0.0418,-17.40,96.50,923.10,-3,-188,-306
1512178598,0.0115,-0.0194,0.0461,-50.42,50.29,937.50,-3,-188,-306
1512178599,0.0531,0.0160,0.0449,6.90,95.95,965.82,-3,-188,-306
1512178599,0.0212,-0.0206,0.0483,-11.29,65.86,931.15,-3,-188,-306
1512178599,0.0079,0.0270,0.0542,-10.62,47.30,952.45,-3,-188,-306
1512178599,-0.0417,-0.0185,0.0577,-14.04,91.98,975.83,-12,-186,-308
1512178599,-0.0145,0.0281,0.0664,-70.37,71.78,997.38,-12,-186,-308
1512178599,0.0136,-0.0184,0.0651,-14.28,78.19,913.27,-12,-186,-308
1512178599,0.1091,0.0786,0.0674,-11.47,48.77,984.25,-12,-186,-308
1512178599,-0.0477,-0.0278,0.0715,-7.75,16.72,937.74,-12,-186,-308
1512178599,0.0036,0.0340,0.0698,18.37,42.66,1007.26,0,-199,-296
1512178599,-0.0559,0.0193,0.0751,-6.96,47.73,1008.61,0,-199,-296
1512178599,-0.0372,-0.0413,0.0799,-8.54,55.60,933.29,0,-199,-296
1512178599,-0.0161,0.0033,0.0839,9.40,78.92,939.03,0,-199,-296
1512178599,0.0284,0.0177,0.0871,-1.95,71.59,900.82,-15,-183,-314
1512178599,-0.0036,-0.0073,0.0936,-35.52,54.38,985.53,-15,-183,-314
1512178599,-0.0446,-0.0197,0.0929,3.42,34.61,910.16,-15,-183,-314
1512178599,0.0130,0.0387,0.0905,31.25,-1.65,907.47,-15,-183,-314
1512178599,0.0236,0.0154,0.0947,-5.25,43.52,956.05,-15,-183,-314
1512178599,0.0188,0.0394,0.0960,-6.71,84.96,948.00,-14,-188,-306
1512178599,-0.0310,0.0208,0.1044,-40.34,78.00,1038.21,-14,-188,-306
1512178599,-0.0189,-0.0270,0.1105,-3.11,91.31,942.38,-14,-188,-306
1512178599,0.1128,0.0530,0.1116,-3.05,47.85,887.51,-14,-188,-306
1512178599,0.0760,0.0695,0.1123,1.40,39.92,992.43,-14,-188,-306
1512178599,-0.1189,-0.0405,0.1095,42.11,31.01,960.51,-5,-197,-311
1512178599,-0.0535,0.0047,0.1164,19.10,67.99,922.79,-5,-197,-311
1512178599,0.0288,0.0087,0.1182,-58.17,95.40,863.71,-5,-197,-311
1512178599,0.1077,0.0447,0.1284,-45.90,87.71,891.72,-5,-197,-311
1512178599,0.0454,0.0061,0.1322,-4.39,60.00,908.75,-21,-209,-306
1512178599,0.0196,0.0521,0.1348,-13.67,10.31,966.92,-21,-209,-306
1512178599,0.0377,-0.0463,0.1334,32.78,46.33,845.03,-21,-209,-306
1512178599,0.1816,0.0507,0.1332,6.53,73.12,851.07,-21,-209,-306
1512178599,0.0276,-0.0394,0.1356,-18.49,43.21,983.95,-21,-209,-306
1512178599,0.0224,-0.0053,0.1394,-10.80,44.56,976.68,-12,-204,-318
1512178599,-0.0009,-0.0664,0.1501,-15.50,73.73,951.35,-12,-204,-318
1512178599,0.0095,-0.0127,0.1507,-30.09,83.50,901.06,-12,-204,-318
1512178599,-0.0234,-0.0523,0.1554,10.50,97.84,978.21,-12,-204,-318
1512178599,-0.0423,-0.0209,0.1541,-17.76,57.13,1006.84,-24,-223,-306
1512178599,-0.0284,-0.0526,0.1563,11.11,68.79,989.32,-24,-223,-306
1512178599,0.0160,0.0063,0.1654,39.37,36.13,980.10,-24,-223,-306
1512178600,-0.0020,-0.0188,0.1715,53.96,39.73,923.40,-24,-223,-306
1512178600,-0.0053,0.0107,0.1728,67.44,7.81,928.41,-24,-223,-306
1512178600,0.0365,-0.0041,0.1715,86.30,55.48,983.09,-7,-223,-302
1512178600,-0.0051,0.0140,0.1819,41.32,-8.24,994.38,-7,-223,-302
1512178600,-0.0318,0.0201,0.1879,10.50,-13.49,993.23,-7,-223,-302
1512178600,-0.0410,-0.0112,0.1913,22.03,31.31,958.31,-7,-223,-302
1512178600,-0.0383,-0.0184,0.1944,57.56,23.25,901.12,-7,-223,-302
1512178600,0.0503,-0.0085,0.1973,31.13,28.14,838.50,-3,-234,-309
1512178600,0.0696,0.0254,0.1996,26.67,38.70,925.72,-3,-234,-309
1512178600,-0.0085,0.0021,0.2075,-6.35,62.26,933.17,-3,-234,-309
1512178600,-0.0225,0.0170,0.2083,42.18,62.13,909.06,-3,-234,-309
1512178600,0.0350,0.0075,0.2095,53.83,12.57,883.67,-19,-229,-308
1512178600,0.0727,0.0712,0.2169,27.59,32.41,863.89,-19,-229,-308
1512178600,-0.0302,0.0210,0.2188,38.82,7.02,1011.05,-19,-229,-308
1512178600,-0.0884,0.0571,0.2240,39.98,46.45,984.07,-19,-229,-308
1512178600,-0.0153,-0.0121,0.2340,-4.76,39.06,962.59,-19,-229,-308
1512178600,0.0293,0.0292,0.2365,69.52,23.07,941.10,-3,-245,-309
1512178600,-0.0210,0.0477,0.2423,43.21,25.88,987.55,-3,-245,-309
1512178600,-0.0920,-0.0341,0.2419,39.98,-2.20,972.72,-3,-245,-309
1512178600,-0.0204,0.0085,0.2506,72.08,27.10,952.64,-3,-245,-309
1512178600,0.0134,0.0185,0.2519,35.52,27.83,920.72,-3,-245,-309
1512178600,0.0200,-0.0189,0.2561,3.23,66.96,946.04,-14,-245,-319
1512178600,-0.0008,0.0260,0.2563,-21.97,46.63,954.71,-14,-245,-319
1512178600,-0.0494,-0.0088,0.2535,23.74,25.70,984.56,-14,-245,-319
1512178600,-0.0591,0.0055,0.2511,41.14,-50.78,908.75,-14,-245,-319
1512178600,0.0466,0.0614,0.2637,-19.29,4.76,943.79,-8,-257,-311
1512178600,0.0435,0.0690,0.2634,14.53,-39.61,973.21,-8,-257,-311
1512178600,-0.0951,-0.0056,0.2719,-54.69,13.55,1065.31,-8,-257,-311
1512178600,-0.0210,0.0236,0.2649,-0.43,50.29,982.48,-8,-257,-311
1512178600,-0.0543,0.0001,0.2696,-3.17,8.79,960.51,-8,-257,-311
1512178600,0.0269,0.0399,0.2711,0.12,7.63,886.60,-8,-257,-314
1512178600,0.0189,0.0666,0.2720,64.27,-34.12,1006.41,-8,-257,-314
1512178600,-0.0233,0.0124,0.2872,0.49,17.58,1004.70,-8,-257,-314
1512178600,-0.0293,-0.0233,0.2903,-17.27,41.69,926.33,-8,-257,-314
1512178600,0.1204,0.0594,0.2794,-10.99,59.63,913.76,0,-266,-309
1512178600,-0.0491,-0.0154,0.2894,-46.26,77.94,997.68,0,-266,-309
1512178600,-0.0806,0.0273,0.2908,-28.02,66.35,995.54,0,-266,-309
1512178600,-0.1313,0.0091,0.2941,-54.93,45.96,962.52,0,-266,-309
1512178601,-0.0959,0.0333,0.2929,23.38,90.39,1009.22,0,-266,-309
1512178601,-0.1032,0.0192,0.2933,-4.94,43.46,998.11,-7,-262,-302
1512178601,-0.1401,-0.0322,0.2955,-5.37,-4.52,1000.06,-7,-262,-302
1512178601,-0.0286,0.0241,0.2980,23.99,-3.91,918.52,-7,-262,-302
1512178601,-0.0688,0.0083,0.2923,5.80,-49.93,953.55,-7,-262,-302
1512178601,-0.1285,-0.0455,0.3063,-16.42,-17.76,933.53,-7,-262,-302
1512178601,-0.0016,-0.0067,0.3101,-20.51,53.16,918.70,17,-262,-299
1512178601,0.0539,-0.0286,0.3077,-32.35,28.32,894.17,17,-262,-299
1512178601,0.0545,0.0353,0.3112,-16.72,-8.30,922.30,17,-262,-299
1512178601,0.0119,0.0261,0.3077,16.91,-46.20,953.92,17,-262,-299
1512178601,-0.1048,-0.0368,0.3144,18.62,-42.11,993.41,17,-269,-292
1512178601,-0.0103,0.0177,0.3172,29.91,-38.15,926.09,17,-269,-292
1512178601,-0.0047,-0.0739,0.3155,-45.59,51.76,916.38,17,-269,-292
1512178601,0.0471,0.0475,0.3198,-36.13,48.10,990.72,17,-269,-292
1512178601,-0.0842,0.0001,0.3216,20.87,-27.34,1031.56,17,-269,-292
1512178601,-0.0001,0.0296,0.3254,-28.32,20.02,939.58,19,-275,-301
1512178601,-0.0377,0.0431,0.3294,26.18,6.96,1051.15,19,-275,-301
1512178601,0.0104,0.0048,0.3204,-54.99,25.27,1003.72,19,-275,-301
1512178601,0.0398,0.0747,0.3306,30.88,-1.34,991.82,19,-275,-301
1512178601,-0.0075,0.0317,0.3309,-11.66,-53.59,938.60,19,-275,-301
1512178601,0.0578,0.1116,0.3368,8.36,-18.13,1013.00,28,-273,-302
1512178601,-0.0678,0.0277,0.3412,-16.60,-59.14,1003.05,28,-273,-302
1512178601,-0.0497,0.0413,0.3518,38.88,-36.99,981.57,28,-273,-302
1512178601,0.0415,0.0716,0.3569,-22.46,55.97,1036.99,28,-273,-302
1512178601,-0.1166,-0.0434,0.3595,-23.19,-2.44,975.71,28,-294,-299
1512178601,-0.0433,0.0262,0.3748,-45.72,-22.03,971.44,28,-294,-299
1512178601,-0.0771,-0.0329,0.3666,-20.14,25.51,936.89,28,-294,-299
1512178601,-0.0025,0.0284,0.3666,-38.02,-33.08,913.94,28,-294,-299
1512178601,-0.1188,-0.0178,0.3557,-70.74,-22.58,964.72,28,-294,-299
1512178601,-0.0506,0.0427,0.3550,-13.06,8.54,917.66,33,-292,-297
1512178601,-0.0828,0.0250,0.3522,-12.82,-40.95,972.41,33,-292,-297
1512178601,-0.0887,0.0514,0.3633,0.61,-67.87,928.04,33,-292,-297
1512178601,-0.0911,0.0418,0.3655,15.63,-10.01,961.36,33,-292,-297
1512178601,-0.0266,0.0265,0.3671,14.16,-50.72,915.22,33,-292,-297
1512178601,-0.0726,0.0474,0.3739,-9.16,-113.95,965.76,47,-296,-284
1512178601,-0.2051,-0.0489,0.3750,-36.38,-30.94,947.14,47,-296,-284
1512178601,-0.1061,0.0157,0.3731,13.92,-47.61,890.32,47,-296,-284
1512178602,-0.1595,0.0443,0.3779,-8.97,-20.45,940.31,47,-296,-284
1512178602,-0.0607,0.0483,0.3859,-8.36,-46.57,998.54,59,-301,-292
1512178602,-0.0241,-0.0049,0.3822,-1.77,-64.58,974.24,59,-301,-292
1512178602,0.0463,0.0598,0.3766,-22.28,-69.34,1001.46,59,-301,-292
1512178602,-0.0073,-0.0021,0.3684,-20.08,-95.89,993.59,59,-301,-292
1512178602,0.0013,0.0391,0.3642,-9.40,-57.50,1036.13,59,-301,-292
1512178602,-0.0654,-0.0029,0.3704,-38.33,-100.83,1016.91,68,-306,-291
1512178602,-0.0565,-0.0366,0.3778,-5.00,-10.99,917.72,68,-306,-291
1512178602,0.0409,0.0553,0.3808,-96.13,-39.18,932.13,68,-306,-291
1512178602,-0.0264,-0.0226,0.3766,-15.56,-20.32,903.75,68,-306,-291
1512178602,0.1073,0.1049,0.3792,-54.93,-3.85,916.38,82,-320,-294
1512178602,-0.0324,0.0096,0.3814,-51.03,-62.99,1016.42,82,-320,-294
1512178602,-0.0483,-0.0241,0.3755,4.64,-37.72,975.28,82,-320,-294
1512178602,-0.0553,0.0221,0.3755,-25.94,-61.16,934.63,82,-320,-294
1512178602,-0.0326,-0.0354,0.3728,-19.53,-86.85,910.10,82,-320,-294
1512178602,0.0969,0.0454,0.3736,-5.07,-30.58,868.65,75,-317,-277
1512178602,-0.0168,-0.0111,0.3680,-22.52,-69.09,971.86,75,-317,-277
1512178602,-0.0506,0.0061,0.3730,-28.32,-44.49,999.33,75,-317,-277
1512178602,-0.0115,-0.0178,0.3715,-2.32,-40.77,973.08,75,-317,-277
1512178602,0.0477,0.0127,0.3712,-24.48,-61.28,908.51,75,-317,-277
1512178602,0.0168,0.0140,0.3679,5.43,-76.90,955.99,86,-331,-297
1512178602,-0.0603,-0.0099,0.3663,-47.97,-38.51,1001.83,86,-331,-297
1512178602,-0.0575,-0.0457,0.3659,12.45,-27.95,903.69,86,-331,-297
1512178602,0.0605,0.0230,0.3671,-64.88,-31.74,887.08,86,-331,-297
1512178602,0.0156,-0.0142,0.3646,-9.52,-70.37,904.85,94,-340,-292
1512178602,0.0703,0.0324,0.3712,-40.04,-7.02,956.42,94,-340,-292
1512178602,-0.0494,-0.0583,0.3698,-39.98,-18.31,967.77,94,-340,-292
1512178602,0.0051,0.0099,0.3758,-65.43,23.19,1042.60,94,-340,-292
1512178602,-0.0915,-0.0900,0.3726,-57.07,-2.93,888.55,94,-340,-292
1512178602,-0.0333,0.0475,0.3661,-52.19,-69.52,927.37,98,-329,-296
1512178602,-0.0317,-0.0325,0.3661,-28.99,-4.15,963.62,98,-329,-296
1512178602,-0.0252,-0.0212,0.3646,-46.51,-48.28,974.67,98,-329,-296
1512178602,-0.0357,-0.0011,0.3635,-40.83,-57.68,980.83,98,-329,-296
1512178602,-0.0409,-0.0300,0.3687,78.25,-68.91,886.96,98,-329,-296
1512178602,-0.0145,0.0501,0.3704,-9.77,-65.31,983.03,107,-342,-287
1512178602,-0.0569,-0.1035,0.3747,-38.45,-69.27,955.38,107,-342,-287
1512178602,0.0807,0.0652,0.3686,-36.62,-54.99,954.65,107,-342,-287
1512178602,-0.0815,-0.0369,0.3747,7.02,-102.60,916.08,107,-342,-287
1512178603,0.0210,0.0224,0.3746,-56.46,-35.71,1015.69,115,-343,-292
1512178603,0.0594,-0.0338,0.3815,15.56,12.02,916.75,115,-343,-292
1512178603,0.0144,0.0164,0.3784,-13.92,-18.19,925.66,115,-343,-292
1512178603,-0.0214,0.0811,0.3727,-1.40,-94.48,1061.22,115,-343,-292
1512178603,-0.1095,-0.0409,0.3819,-12.63,-44.25,1025.02,115,-343,-292
1512178603,-0.0595,-0.0301,0.3778,24.05,-14.77,897.89,131,-338,-274
1512178603,0.0727,0.0731,0.3766,-25.21,-34.67,970.83,131,-338,-274
1512178603,-0.0886,-0.0422,0.3698,50.11,-54.38,908.20,131,-338,-274
1512178603,-0.0164,0.0816,0.3734,24.11,-98.27,939.15,131,-338,-274
1512178603,0.0017,-0.0072,0.3744,12.27,-50.60,929.14,131,-338,-274
1512178603,0.0485,0.0851,0.3755,86.00,-104.74,951.84,137,-357,-265
1512178603,-0.0980,-0.0032,0.3792,-27.59,-108.95,953.19,137,-357,-265
1512178603,-0.0037,0.0020,0.3776,-26.37,-43.95,889.22,137,-357,-265
1512178603,-0.0134,0.0007,0.3763,-101.75,-51.88,819.40,137,-357,-265
1512178603,0.0288,-0.0032,0.3790,-50.17,-15.81,866.94,159,-352,-291
1512178603,-0.0276,0.0405,0.3806,-88.99,-86.18,981.81,159,-352,-291
1512178603,-0.1144,-0.0478,0.3854,6.90,-75.87,971.50,159,-352,-291
1512178603,0.0060,0.0368,0.3738,12.45,-81.79,949.10,159,-352,-291
1512178603,-0.1123,-0.0181,0.3732,-2.01,-40.59,1028.02,159,-352,-291
1512178603,-0.0313,0.0325,0.3631,26.37,-66.47,996.03,147,-343,-275
1512178603,-0.0897,-0.0655,0.3637,-36.38,-3.72,962.71,147,-343,-275
1512178603,0.0834,0.0595,0.3577,5.00,-89.05,890.69,147,-343,-275
1512178603,-0.0016,0.0127,0.3493,7.45,-73.00,975.59,147,-343,-275
1512178603,0.0326,0.0796,0.3441,-21.36,-108.22,984.37,180,-359,-294
1512178603,-0.1615,-0.0607,0.3513,-14.40,-45.53,967.83,180,-359,-294
1512178603,-0.0037,0.0675,0.3445,-23.07,-41.99,909.42,180,-359,-294
1512178603,-0.0376,-0.0076,0.3406,36.44,-32.17,951.78,180,-359,-294
1512178603,-0.0113,0.0707,0.3431,-71.72,-44.56,961.12,180,-359,-294
1512178603,-0.0226,-0.0176,0.3384,10.80,-100.95,973.39,170,-345,-284
1512178603,0.0856,0.1085,0.3394,10.68,-65.92,929.81,170,-345,-284
1512178603,-0.1011,-0.0245,0.3357,48.10,-150.21,1071.11,170,-345,-284
1512178603,-0.0947,-0.0013,0.3258,106.26,-63.66,983.34,170,-345,-284
1512178603,0.0827,-0.0123,0.3186,-30.88,-42.91,960.82,170,-345,-284
1512178603,0.0192,-0.0258,0.3262,-0.79,-68.48,917.11,180,-349,-291
1512178603,-0.0067,0.0614,0.3188,33.57,-93.51,933.90,180,-349,-291
1512178603,-0.0819,-0.0659,0.3354,-58.65,-36.13,930.11,180,-349,-291
1512178603,0.0166,-0.0065,0.3264,34.00,12.76,800.90,180,-349,-291
1512178603,0.0402,0.0700,0.3292,8.12,-16.48,1023.07,196,-354,-306
1512178604,-0.0827,-0.0192,0.3282,42.97,-57.25,973.69,196,-354,-306
1512178604,-0.0248,0.0104,0.3265,51.39,-47.06,1009.28,196,-354,-306
1512178604,-0.0354,0.0012,0.3320,38.51,11.96,962.28,196,-354,-306
1512178604,0.0394,0.0505,0.3157,24.11,-80.81,998.47,196,-354,-306
1512178604,-0.0357,-0.0068,0.3072,77.45,-98.82,935.79,189,-364,-292
1512178604,-0.0262,0.0128,0.3069,48.83,-77.45,1004.15,189,-364,-292
1512178604,-0.0951,0.0301,0.3217,47.24,-64.45,1024.29,189,-364,-292
1512178604,-0.0173,-0.0349,0.3184,57.13,-46.08,940.80,189,-364,-292
1512178604,0.0933,0.0863,0.3217,134.46,-50.78,1027.59,189,-364,-292
1512178604,-0.1081,-0.0625,0.3196,62.26,-52.61,980.59,219,-356,-294
1512178604,0.1390,0.0426,0.3266,11.84,53.22,904.11,219,-356,-294
1512178604,0.1025,-0.0144,0.3289,23.50,67.99,920.96,219,-356,-294
1512178604,-0.0092,0.0557,0.3357,27.53,13.43,1009.22,219,-356,-294
1512178604,-0.1226,-0.0449,0.3419,31.43,49.07,962.28,216,-370,-294
1512178604,0.0289,0.0788,0.3340,17.27,42.66,983.46,216,-370,-294
1512178604,-0.0027,0.0228,0.3358,62.99,-22.03,971.74,216,-370,-294
1512178604,0.0668,0.0559,0.3389,39.86,16.78,895.69,216,-370,-294
1512178604,0.0985,0.0642,0.3344,100.95,-6.47,921.87,216,-370,-294
1512178604,0.0338,0.0682,0.3413,117.92,-64.09,1005.00,228,-350,-296
1512178604,-0.0899,-0.0003,0.3337,124.15,-4.15,959.29,228,-350,-296
1512178604,0.0406,0.1016,0.3348,64.58,-24.60,1027.40,228,-350,-296
1512178604,-0.0397,-0.0174,0.3425,74.83,-39.12,997.13,228,-350,-296
1512178604,0.0364,0.0571,0.3413,116.33,-17.33,938.60,226,-349,-297
1512178604,-0.0325,-0.0047,0.3479,72.27,-23.62,920.17,226,-349,-297
1512178604,0.0640,0.0494,0.3389,91.43,-9.46,884.89,226,-349,-297
1512178604,0.0461,0.0346,0.3459,50.35,-36.13,952.15,226,-349,-297
1512178604,-0.1208,-0.0393,0.3342,127.99,-58.17,891.36,226,-349,-297
1512178604,-0.0360,0.0867,0.3404,145.26,-20.63,955.08,244,-342,-287
1512178604,-0.0593,0.0174,0.3412,57.68,-6.77,960.39,244,-342,-287
1512178604,-0.1185,-0.0060,0.3463,97.53,-14.71,939.45,244,-342,-287
1512178604,-0.0296,0.0409,0.3462,83.98,15.87,945.50,244,-342,-287
1512178604,0.0121,0.0107,0.3469,110.66,30.03,974.91,244,-342,-287
