timestamp(unix),attitude_roll(radians),attitude_pitch(radians),attitude_yaw(radians),rotation_rate_x(radians/s),rotation_rate_y(radians/s),rotation_rate_z(radians/s),gravity_x(G),gravity_y(G),gravity_z(G),user_acc_x(G),user_acc_y(G),user_acc_z(G),magnetic_field_x(microteslas),magnetic_field_y(microteslas),magnetic_field_z(microteslas),latitude(degree),longitude(degree),altitude(meter),speed(m/s),course(degree),timestamp(unix),User Mark
1512177343.080361,0.321167,0.861436,-2.824041,-0.140536,-0.218107,-0.040894,0.205614,-0.758778,-0.618043,-0.013246,0.018208,0.014772,-28.195053,-14.863777,-36.019707,,,,,,,
1512177343.100350,0.317523,0.858874,-2.823858,-0.106618,-0.123023,-0.025150,0.203967,-0.757108,-0.620633,-0.029833,0.019696,0.013913,-28.195953,-15.013771,-36.469780,,,,,,,
1512177343.120369,0.316494,0.857829,-2.823544,-0.023907,0.008429,0.008489,0.203574,-0.756424,-0.621594,-0.016318,0.014908,0.001447,-28.346481,-15.163994,-36.168571,,,,,,,
1512177343.140358,0.316893,0.858131,-2.823125,0.013211,0.038371,0.021925,0.203751,-0.756622,-0.621296,0.000625,0.005370,-0.001766,-28.720551,-14.939568,-36.315269,,,,,,,
1512177343.160348,0.316453,0.857878,-2.822722,-0.043035,-0.039662,0.001645,0.203537,-0.756457,-0.621567,0.007599,-0.004560,0.003220,-28.720505,-14.939568,-36.240273,,,,,,,
1512177343.180367,0.314855,0.856353,-2.822586,-0.085220,-0.083462,-0.027901,0.202900,-0.755458,-0.622988,0.001659,0.004924,0.003588,-28.947495,-15.389900,-36.163582,,,,,,,
1512177343.200356,0.313621,0.854870,-2.823082,-0.047703,-0.062016,-0.039008,0.202477,-0.754485,-0.624303,-0.004754,0.010055,0.005040,-28.872681,-15.464790,-35.864250,,,,,,,
1512177343.220376,0.313695,0.854362,-2.823954,0.003324,-0.010684,-0.027428,0.202641,-0.754152,-0.624653,-0.005070,0.010225,-0.000210,-28.718475,-14.489555,-36.240074,,,,,,,
1512177343.240365,0.313955,0.854575,-2.824724,0.016960,-0.020303,-0.014472,0.202754,-0.754292,-0.624447,-0.001613,0.006932,0.005718,-28.344421,-14.713997,-36.093361,,,,,,,
1512177343.260384,0.313805,0.854191,-2.825449,-0.033799,-0.036357,-0.040851,0.202750,-0.754040,-0.624753,-0.014090,0.014233,0.009015,-28.946442,-15.164894,-36.088463,,,,,,,
1512177343.280373,0.313530,0.852790,-2.826879,-0.058842,-0.083324,-0.075489,0.202904,-0.753119,-0.625813,-0.004997,0.006765,-0.004405,-29.022827,-15.465019,-36.162971,,,,,,,
1512177343.300362,0.313181,0.851252,-2.828604,-0.047122,-0.075834,-0.075296,0.203041,-0.752106,-0.626985,-0.006295,0.007966,-0.008117,-29.098953,-15.690132,-36.387444,,,,,,,
1512177343.320382,0.313537,0.850226,-2.830833,-0.013831,-0.039440,-0.088547,0.203503,-0.751430,-0.627646,-0.020764,0.009929,0.000113,-28.418365,-14.489113,-36.017616,,,,,,,
1512177343.340371,0.315183,0.850064,-2.833600,0.047053,-0.017966,-0.093983,0.204573,-0.751323,-0.627426,-0.002242,0.004771,-0.021973,-28.418930,-14.639107,-35.792686,,,,,,,
1512177343.360390,0.317142,0.850919,-2.836720,0.079745,-0.026499,-0.072215,0.205602,-0.751887,-0.626413,0.011836,-0.005392,-0.021292,-28.719269,-14.714561,-35.790184,,,,,,,
1512177343.380379,0.318380,0.851862,-2.839589,0.074524,-0.055337,-0.080923,0.206155,-0.752508,-0.625484,0.000846,0.003973,-0.010441,-28.644867,-14.864449,-35.640877,,,,,,,
1512177343.400368,0.319621,0.852610,-2.843303,0.073996,-0.080910,-0.115135,0.206754,-0.753000,-0.624694,-0.004926,-0.000708,0.009139,-28.348312,-15.614006,-35.793785,,,,,,,
1512177343.420388,0.320849,0.853104,-2.847021,0.053387,-0.064956,-0.091920,0.207404,-0.753325,-0.624086,0.000436,-0.018007,0.029543,-28.725723,-16.139565,-35.865837,,,,,,,
1512177343.440377,0.321718,0.853219,-2.849403,0.023141,-0.037280,-0.066677,0.207919,-0.753401,-0.623824,-0.009799,0.003828,0.011382,-28.945175,-14.939903,-35.563362,,,,,,,
1512177343.460396,0.323271,0.853276,-2.852327,0.045037,-0.023297,-0.101494,0.208874,-0.753438,-0.623460,-0.022625,0.022909,0.004761,-28.796265,-15.164665,-35.714745,,,,,,,
1512177343.480385,0.326377,0.853855,-2.856358,0.087974,0.024870,-0.116694,0.210669,-0.753819,-0.622394,-0.021780,0.018635,0.006900,-28.348312,-15.614006,-35.793785,,,,,,,
1512177343.500374,0.330767,0.855407,-2.860928,0.134943,0.056991,-0.119101,0.213019,-0.754838,-0.620356,-0.033423,0.034822,-0.009634,-28.574265,-15.839348,-35.641975,,,,,,,
1512177343.520394,0.336768,0.857854,-2.866485,0.206668,0.125496,-0.133814,0.216127,-0.756440,-0.617322,-0.031221,0.024019,-0.024051,-28.500305,-16.064232,-35.717705,,,,,,,
1512177343.540383,0.345361,0.862116,-2.872904,0.305611,0.234572,-0.116008,0.220330,-0.759221,-0.612403,-0.028863,0.020894,-0.012063,-28.124893,-15.988670,-35.570854,,,,,,,
1512177343.560402,0.355708,0.867908,-2.879533,0.356388,0.279458,-0.090600,0.225119,-0.762979,-0.605957,0.008371,-0.007560,-0.007904,-28.126312,-16.288673,-35.721001,,,,,,,
1512177343.580391,0.364561,0.873786,-2.884544,0.314701,0.237599,-0.020988,0.228872,-0.766764,-0.599741,0.043284,-0.045278,0.009332,-27.828995,-16.888222,-35.648827,,,,,,,
1512177343.600411,0.370495,0.878445,-2.887446,0.213118,0.160507,-0.005670,0.231131,-0.769747,-0.595035,0.018716,-0.032865,0.028644,-27.454666,-17.037666,-35.652092,,,,,,,
1512177343.620400,0.374789,0.880776,-2.890066,0.107236,0.093138,-0.053280,0.233027,-0.771233,-0.592366,0.001593,-0.012825,0.016987,-27.229858,-17.112328,-35.354027,,,,,,,
1512177343.640389,0.378671,0.881928,-2.893314,0.098087,0.069681,-0.081211,0.234995,-0.771966,-0.590631,0.005422,-0.001792,0.001962,-27.230270,-17.187325,-35.504066,,,,,,,
1512177343.660409,0.382934,0.883757,-2.896551,0.135705,0.110232,-0.033620,0.236983,-0.773127,-0.588313,0.018266,-0.018209,0.003260,-27.156250,-17.412209,-35.429817,,,,,,,
1512177343.680398,0.387254,0.886462,-2.898439,0.146786,0.162510,0.008299,0.238732,-0.774840,-0.585345,-0.002984,0.003020,-0.000226,-27.006012,-17.336983,-35.656044,,,,,,,
1512177343.700381,0.392081,0.889313,-2.900665,0.154736,0.146563,-0.021488,0.240710,-0.776639,-0.582142,0.004255,0.006315,-0.016430,-26.857300,-17.636772,-35.507454,,,,,,,
1512177343.720370,0.395993,0.891920,-2.903247,0.150442,0.072850,-0.023942,0.242204,-0.778279,-0.579326,0.005828,0.001957,0.034373,-27.008713,-17.936989,-35.656319,,,,,,,
1512177343.740359,0.397924,0.892797,-2.904850,-0.031812,0.018104,-0.028904,0.243057,-0.778829,-0.578228,0.030854,-0.031764,0.079906,-26.558228,-17.861320,-35.360115,,,,,,,
1512177343.760379,0.395145,0.889866,-2.904503,-0.181828,-0.189295,-0.056315,0.242327,-0.776987,-0.581005,0.056486,-0.034872,0.017071,-26.557251,-17.636314,-35.435020,,,,,,,
1512177343.780368,0.391007,0.887361,-2.904172,-0.057868,-0.141141,-0.008516,0.240662,-0.775408,-0.583800,0.015228,-0.003614,-0.043595,-27.007294,-17.636986,-35.506187,,,,,,,
1512177343.800387,0.390230,0.888975,-2.903711,0.127393,0.050180,0.080121,0.239731,-0.776426,-0.582829,-0.001954,-0.013399,-0.022960,-27.082672,-17.712105,-35.580574,,,,,,,
1512177343.820376,0.391282,0.892728,-2.902731,0.142048,0.092894,0.098605,0.239232,-0.778786,-0.579879,-0.011326,0.001488,0.028029,-27.082932,-17.787102,-35.430626,,,,,,,
1512177343.840365,0.390920,0.893975,-2.901993,-0.026181,-0.064222,0.013533,0.238652,-0.779567,-0.579067,-0.009617,0.002254,0.033810,-27.235443,-18.312340,-35.729576,,,,,,,
1512177343.860385,0.386523,0.890619,-2.902087,-0.211920,-0.305670,-0.112594,0.237088,-0.777461,-0.582531,0.018848,-0.000951,-0.000538,-27.008224,-17.861992,-35.356285,,,,,,,
1512177343.880374,0.378799,0.884767,-2.901794,-0.301186,-0.393484,-0.069419,0.234260,-0.773767,-0.588562,0.025704,-0.039267,-0.001312,-27.231812,-17.562325,-35.204247,,,,,,,
1512177343.900393,0.368841,0.879167,-2.899140,-0.279899,-0.396789,-0.003027,0.229946,-0.770208,-0.594898,0.003239,-0.012202,-0.046017,-27.755798,-17.338112,-35.199684,,,,,,,
1512177343.920382,0.359621,0.875092,-2.897047,-0.178428,-0.364566,-0.013171,0.225555,-0.767603,-0.599926,-0.038573,-0.000922,-0.048771,-28.129776,-17.113670,-35.196388,,,,,,,
1512177343.940402,0.352673,0.872762,-2.896599,-0.078988,-0.314177,-0.028611,0.221998,-0.766107,-0.603156,-0.026594,-0.001410,-0.054178,-28.504318,-17.039238,-34.968163,,,,,,,
1512177343.960391,0.350639,0.873833,-2.897869,0.160251,-0.061814,0.021574,0.220488,-0.766795,-0.602835,0.007768,-0.016942,-0.002848,-28.730103,-17.189583,-35.191322,,,,,,,
1512177343.980380,0.351179,0.878892,-2.898670,0.260664,-0.009434,0.075444,0.219476,-0.770032,-0.599065,0.045141,0.001218,-0.010157,-28.357590,-17.789009,-34.744789,,,,,,,
1512177344.000399,0.348455,0.883059,-2.898963,0.142575,-0.247768,0.049452,0.216746,-0.772684,-0.596640,0.039784,0.015039,0.005575,-28.354919,-17.189018,-34.819511,,,,,,,
1512177344.020388,0.340428,0.883760,-2.898245,-0.035176,-0.417829,0.024967,0.211770,-0.773129,-0.597850,-0.014458,0.009259,0.038234,-28.731201,-17.489586,-34.666466,,,,,,,
1512177344.040408,0.330392,0.882095,-2.897048,-0.112797,-0.449968,0.010937,0.206176,-0.772072,-0.601161,-0.057097,0.015450,0.054912,-29.254776,-17.190361,-34.511864,,,,,,,
1512177344.060397,0.322184,0.880480,-2.895220,-0.070725,-0.263054,0.054840,0.201629,-0.771045,-0.604015,-0.067093,0.028293,0.067302,-29.406570,-17.565590,-34.735756,,,,,,,
1512177344.080386,0.317653,0.880856,-2.892716,0.028899,-0.072851,0.099587,0.198800,-0.771284,-0.604647,-0.043344,0.035505,0.023699,-29.705673,-17.416039,-34.283150,,,,,,,
1512177344.100406,0.313883,0.881761,-2.890478,-0.012198,-0.130539,0.066806,0.196303,-0.771860,-0.604728,-0.024215,0.040048,0.003592,-29.556351,-17.565819,-34.284492,,,,,,,
1512177344.120395,0.308919,0.880346,-2.889289,-0.120710,-0.233085,-0.016142,0.193631,-0.770959,-0.606735,-0.025479,0.034738,0.007965,-29.703918,-17.041039,-34.132973,,,,,,,
1512177344.140414,0.304516,0.877272,-2.889530,-0.138983,-0.207371,-0.070688,0.191667,-0.768998,-0.609840,-0.018815,0.028885,0.007240,-29.928802,-17.041374,-33.906059,,,,,,,
1512177344.160403,0.302270,0.875156,-2.891431,-0.057466,-0.164459,-0.098138,0.190781,-0.767644,-0.611820,-0.001526,0.019505,0.004597,-30.079590,-17.191597,-34.129845,,,,,,,
1512177344.180423,0.301422,0.873789,-2.893997,-0.034063,-0.115301,-0.093367,0.190573,-0.766767,-0.612983,-0.010596,0.006376,0.023140,-30.005188,-17.341484,-33.980553,,,,,,,
1512177344.200412,0.301690,0.872512,-2.896616,-0.036071,-0.075767,-0.098587,0.191029,-0.765946,-0.613867,-0.010822,0.005311,0.024756,-30.307632,-17.866936,-34.128258,,,,,,,
1512177344.220401,0.301876,0.871199,-2.899285,-0.043406,-0.099261,-0.107303,0.191441,-0.765102,-0.614791,-0.016667,0.008846,0.030470,-30.157471,-17.866722,-33.829521,,,,,,,
1512177344.240420,0.302369,0.868883,-2.902578,-0.106637,-0.092865,-0.151907,0.192272,-0.763608,-0.616386,-0.024455,0.014356,0.056312,-29.929321,-17.191368,-33.606117,,,,,,,
1512177344.260409,0.303927,0.864796,-2.906459,-0.178407,-0.051230,-0.193311,0.194164,-0.760963,-0.619058,-0.000606,0.020790,0.048700,-29.929214,-17.191368,-33.381126,,,,,,,
1512177344.280429,0.307306,0.860681,-2.911187,-0.122555,0.032224,-0.213529,0.197200,-0.758286,-0.621378,0.006978,0.017411,0.041682,-29.927521,-16.816368,-33.380959,,,,,,,
1512177344.300418,0.313654,0.858425,-2.916694,-0.017289,0.150903,-0.192407,0.201668,-0.756814,-0.621740,0.021538,0.003747,0.042089,-31.348297,-15.993507,-32.318459,,,,,,,
1512177344.320407,0.320096,0.857475,-2.921268,-0.016030,0.133711,-0.140211,0.205895,-0.756193,-0.621109,0.021705,-0.022249,0.041977,-31.421906,-15.693611,-32.242699,,,,,,,
1512177344.340426,0.324002,0.854596,-2.923888,-0.174100,0.085371,-0.124546,0.209012,-0.754305,-0.622362,0.012362,-0.031721,0.052126,-30.747757,-15.842598,-32.623497,,,,,,,
1512177344.360415,0.327277,0.849464,-2.925082,-0.248846,0.150398,-0.113674,0.212291,-0.750926,-0.625332,0.033040,-0.035039,0.034527,-30.674225,-16.142494,-32.849266,,,,,,,
1512177344.380435,0.331597,0.844631,-2.925036,-0.217853,0.253931,-0.048902,0.216169,-0.747726,-0.627833,0.054583,-0.022492,0.000925,-30.373962,-16.067039,-33.001793,,,,,,,
1512177344.400424,0.335921,0.840847,-2.923668,-0.188657,0.253899,-0.009034,0.219813,-0.745208,-0.629559,0.067525,0.004653,-0.046970,-30.147980,-15.841698,-33.078590,,,,,,,
1512177344.420413,0.338537,0.837759,-2.922443,-0.151345,0.109760,-0.016459,0.222222,-0.743146,-0.631149,0.080344,0.009549,-0.084595,-30.220993,-15.391808,-33.152748,,,,,,,
1512177344.440432,0.338254,0.835292,-2.921428,-0.119678,-0.007716,-0.002548,0.222652,-0.741493,-0.632939,0.030843,0.005851,-0.062389,-29.921066,-15.391365,-33.305305,,,,,,,
1512177344.460421,0.337702,0.833912,-2.920392,-0.052868,0.038272,0.020967,0.222641,-0.740566,-0.634027,-0.012283,0.009197,-0.029837,-30.144730,-15.091698,-33.303246,,,,,,,
1512177344.480441,0.339089,0.834247,-2.919479,0.036177,0.136609,0.055644,0.223438,-0.740791,-0.633484,-0.017383,0.001091,-0.019974,-29.997238,-15.616478,-33.604759,,,,,,,
1512177344.500430,0.340987,0.835612,-2.917977,0.050600,0.140846,0.086786,0.224301,-0.741707,-0.632105,-0.003507,-0.004554,-0.028936,-29.846405,-15.466240,-33.305977,,,,,,,
1512177344.520449,0.340931,0.836716,-2.915736,0.014157,0.046776,0.094460,0.223991,-0.742447,-0.631345,-0.013786,-0.010910,-0.022311,-29.996445,-15.466469,-33.379707,,,,,,,
1512177344.540438,0.339158,0.837163,-2.913095,-0.014633,-0.001338,0.091740,0.222762,-0.742747,-0.631428,-0.027098,-0.007726,-0.011989,-29.920105,-15.166359,-33.380196,,,,,,,
1512177344.560427,0.337063,0.837577,-2.910502,-0.002855,-0.000245,0.088717,0.221337,-0.743024,-0.631603,-0.037407,-0.013812,-0.008839,-29.845169,-15.166237,-33.530830,,,,,,,
1512177344.580447,0.335587,0.838337,-2.908325,0.019762,0.017979,0.076318,0.220218,-0.743532,-0.631397,-0.036960,-0.015242,-0.012707,-29.694611,-15.016014,-33.757042,,,,,,,
1512177344.600436,0.335511,0.839258,-2.907172,0.041712,0.062942,0.039476,0.219945,-0.744147,-0.630767,-0.008855,-0.005563,-0.016786,-29.694534,-15.016014,-33.607033,,,,,,,
1512177344.620456,0.337454,0.840889,-2.907143,0.105976,0.123960,0.024631,0.220767,-0.745237,-0.629192,0.041654,0.011701,-0.028005,-29.545212,-15.165794,-33.608376,,,,,,,
1512177344.640445,0.340601,0.844474,-2.907853,0.221847,0.132639,0.044461,0.221853,-0.747622,-0.625971,0.064829,0.022616,-0.024984,-29.245361,-15.165352,-33.910927,,,,,,,
1512177344.660434,0.344009,0.850118,-2.909291,0.315589,0.112481,0.047881,0.222558,-0.751358,-0.621230,0.041526,0.021103,0.013274,-29.396332,-15.390572,-33.834755,,,,,,,
1512177344.680453,0.347881,0.856842,-2.911688,0.344545,0.111480,0.037638,0.223234,-0.755779,-0.615599,-0.024229,-0.000325,0.072325,-29.546783,-15.465797,-34.058510,,,,,,,
1512177344.700423,0.352391,0.862647,-2.913602,0.255965,0.181829,0.047261,0.224490,-0.759567,-0.610458,-0.074130,-0.012299,0.108292,-29.549042,-15.990807,-33.833763,,,,,,,
1512177344.720443,0.356431,0.865724,-2.913779,0.085240,0.176209,0.056495,0.226138,-0.761565,-0.607353,-0.088763,-0.026841,0.078407,-29.248322,-15.840355,-33.761238,,,,,,,
1512177344.740432,0.357879,0.864866,-2.912034,-0.146782,0.115017,0.030532,0.227246,-0.761008,-0.607637,-0.096265,-0.023141,0.035250,-29.323471,-15.840462,-34.060600,,,,,,,
1512177344.760421,0.356295,0.860132,-2.908849,-0.316092,-0.006983,0.012730,0.227538,-0.757928,-0.611366,-0.059584,-0.014517,-0.036171,-31.041122,-14.343040,-32.845253,,,,,,,
1512177344.780440,0.351344,0.853721,-2.904207,-0.370916,-0.101111,0.036129,0.226175,-0.753731,-0.617035,-0.045069,0.019738,-0.078217,-30.441986,-14.492134,-33.225426,,,,,,,
1512177344.800429,0.345060,0.847866,-2.899736,-0.299410,-0.169355,0.027330,0.223783,-0.749870,-0.622586,-0.038434,0.058159,-0.097385,-30.442062,-14.492134,-33.375420,,,,,,,
1512177344.820449,0.339168,0.843916,-2.897250,-0.170813,-0.208593,-0.014649,0.221094,-0.747251,-0.626682,-0.051783,0.088697,-0.082287,-29.693298,-14.716026,-33.831886,,,,,,,
1512177344.840438,0.336025,0.841671,-2.898615,-0.049474,-0.196429,-0.132249,0.219676,-0.745757,-0.628957,-0.086039,0.085647,-0.058177,-29.168671,-14.790230,-33.911400,,,,,,,
1512177344.860457,0.337719,0.840294,-2.904626,0.034817,-0.090294,-0.260718,0.221081,-0.744839,-0.629551,-0.065334,0.071561,-0.052135,-29.394455,-15.015572,-33.459587,,,,,,,
1512177344.880446,0.344576,0.840395,-2.914898,0.191989,-0.015105,-0.349861,0.225368,-0.744906,-0.627950,0.024709,0.052951,-0.068339,-29.245178,-15.165337,-33.535927,,,,,,,
1512177344.900435,0.354154,0.843224,-2.927614,0.346594,0.015044,-0.349646,0.230640,-0.746791,-0.623784,0.091733,0.027782,-0.065074,-29.024139,-16.065010,-33.388268,,,,,,,
1512177344.920455,0.364767,0.848966,-2.942170,0.508564,-0.017831,-0.347416,0.235713,-0.750598,-0.617284,0.107213,-0.022687,-0.026759,-28.726089,-16.514565,-33.241020,,,,,,,
1512177344.940444,0.375307,0.857681,-2.957074,0.631842,-0.025289,-0.259303,0.239799,-0.756327,-0.608657,0.088433,-0.080373,0.034926,-28.803940,-17.189690,-32.865700,,,,,,,
1512177344.960463,0.384125,0.867859,-2.969021,0.586893,0.012814,-0.118038,0.242260,-0.762947,-0.599350,0.033223,-0.112832,0.112900,-28.806274,-17.714684,-32.790947,,,,,,,
1512177344.980452,0.390221,0.875018,-2.975437,0.289968,0.080527,-0.015496,0.243825,-0.767555,-0.592795,-0.001439,-0.112755,0.149649,-28.433029,-18.089134,-32.944298,,,,,,,
1512177345.000441,0.391896,0.875784,-2.975802,-0.103912,0.053162,0.013882,0.244593,-0.768046,-0.591842,0.021353,-0.062337,0.104812,-28.584045,-18.314354,-32.943123,,,,,,,
1512177345.020461,0.390092,0.871067,-2.973023,-0.299590,0.004851,-0.017907,0.244899,-0.765017,-0.595627,0.063618,-0.000990,0.048233,-28.656006,-17.639458,-32.942177,,,,,,,
1512177345.040450,0.389705,0.866747,-2.971433,-0.154299,0.076676,-0.032607,0.245922,-0.762227,-0.598773,0.091297,0.024862,0.022403,-28.357101,-17.864006,-33.094826,,,,,,,
1512177345.060470,0.393165,0.867323,-2.971796,0.117779,0.213705,0.024047,0.247824,-0.762600,-0.597513,0.084253,0.002773,0.023706,-28.582092,-17.864357,-33.092918,,,,,,,
1512177345.080459,0.399617,0.872175,-2.972859,0.258623,0.311007,0.086126,0.250232,-0.765730,-0.592485,0.043286,-0.032976,0.038957,-28.357101,-17.864006,-33.094826,,,,,,,
1512177345.100448,0.405178,0.877356,-2.972455,0.191672,0.267012,0.136175,0.251955,-0.769051,-0.587431,0.007338,-0.044349,0.041136,-28.132355,-17.863670,-33.621742,,,,,,,
1512177345.120467,0.406632,0.880069,-2.969366,0.015374,0.139594,0.154500,0.251983,-0.770783,-0.585146,-0.040588,-0.023147,0.046160,-28.281235,-17.638893,-33.395363,,,,,,,
1512177345.140456,0.404119,0.879424,-2.964109,-0.160543,0.049598,0.150570,0.250707,-0.770372,-0.586234,-0.095845,-0.011397,0.045645,-28.282318,-17.863899,-33.545464,,,,,,,
1512177345.160476,0.398982,0.876245,-2.956282,-0.293314,0.054666,0.185976,0.248642,-0.768341,-0.589768,-0.130036,0.013732,0.012101,-28.354401,-17.189003,-33.769508,,,,,,,
1512177345.180465,0.393580,0.871506,-2.947498,-0.347121,0.066398,0.152188,0.246846,-0.765299,-0.594458,-0.115911,0.054530,-0.042123,-28.353348,-16.964012,-33.694405,,,,,,,
1512177345.200484,0.388789,0.866109,-2.940336,-0.327782,0.008902,0.076582,0.245558,-0.761814,-0.599448,-0.083754,0.089298,-0.096262,-28.202362,-16.738777,-33.770576,,,,,,,
1512177345.220473,0.384958,0.861661,-2.936979,-0.197274,-0.087920,-0.021012,0.244529,-0.758925,-0.603519,-0.063148,0.089903,-0.112592,-28.801697,-16.589684,-33.765404,,,,,,,
1512177345.240462,0.383326,0.859664,-2.937560,-0.030139,-0.095036,-0.070848,0.244110,-0.757623,-0.605321,-0.056809,0.053918,-0.097834,-28.274673,-16.138893,-33.769661,,,,,,,
1512177345.260482,0.383041,0.859541,-2.940326,0.050428,-0.125819,-0.110302,0.243973,-0.757543,-0.605477,-0.045547,0.000143,-0.090019,-28.501358,-16.514229,-33.767921,,,,,,,
1512177345.280471,0.381992,0.858752,-2.944980,0.001439,-0.269955,-0.185071,0.243560,-0.757028,-0.606287,-0.020888,-0.045783,-0.078665,-28.426239,-16.514122,-33.543571,,,,,,,
1512177345.300490,0.379292,0.856502,-2.950445,-0.031117,-0.381026,-0.220042,0.242552,-0.755556,-0.608523,0.028795,-0.071104,-0.086408,-28.427185,-16.739113,-33.393669,,,,,,,
1512177345.320479,0.374048,0.853675,-2.956983,-0.062544,-0.585015,-0.263851,0.240138,-0.753701,-0.611772,0.058858,-0.055579,-0.090987,-28.502365,-16.814232,-33.093071,,,,,,,
1512177345.340468,0.364914,0.849965,-2.963836,-0.103903,-0.782650,-0.286458,0.235536,-0.751257,-0.616549,0.032759,-0.048334,-0.071577,-28.803574,-17.114677,-32.790657,,,,,,,
1512177345.360488,0.352222,0.845059,-2.971116,-0.180126,-0.981370,-0.328765,0.228961,-0.748010,-0.622940,0.002332,-0.016043,-0.038437,-29.328842,-17.190468,-32.636238,,,,,,,
1512177345.380477,0.336632,0.837228,-2.979127,-0.344021,-1.119244,-0.416904,0.221150,-0.742790,-0.631943,-0.042805,0.024757,-0.011947,-30.004547,-17.416481,-32.030602,,,,,,,
1512177345.400496,0.321051,0.826190,-2.988570,-0.449055,-1.126691,-0.512264,0.213851,-0.735355,-0.643053,-0.070098,0.060794,-0.020323,-30.531006,-17.792274,-31.576317,,,,,,,
1512177345.420485,0.307538,0.813829,-3.001645,-0.443136,-1.165873,-0.678617,0.207878,-0.726922,-0.654498,-0.051903,0.082238,-0.043942,-30.829178,-17.417717,-31.273598,,,,,,,
1512177345.440474,0.295786,0.801322,-3.019946,-0.397710,-1.320347,-0.855464,0.202807,-0.718277,-0.665541,-0.059802,0.104538,-0.110033,-30.456543,-17.942162,-31.277031,,,,,,,
1512177345.460494,0.280467,0.781219,-3.044485,-0.937285,-1.539258,-1.309657,0.196546,-0.704145,-0.682309,-0.018812,0.103605,0.089002,-31.134018,-18.543175,-30.821556,,,,,,,
1512177345.480483,0.274372,0.757643,-3.077879,-0.590706,-1.597075,-1.512716,0.196828,-0.687211,-0.699283,-0.153234,-0.095245,-0.165798,-31.735550,-18.994087,-29.841682,,,,,,,
1512177345.500502,0.263391,0.743066,-3.115287,-0.263565,-1.799535,-1.515081,0.191725,-0.676549,-0.711000,-0.000029,0.069539,-0.012892,-31.662125,-19.443977,-28.942528,,,,,,,
1512177345.520491,0.255806,0.730278,3.130137,-0.270826,-1.610466,-1.517725,0.188500,-0.667077,-0.720745,-0.045907,0.028130,-0.026615,-32.342651,-20.719994,-28.487373,,,,,,,
1512177345.540511,0.249036,0.717111,3.091631,-0.259132,-1.584691,-1.579298,0.185766,-0.657210,-0.730454,-0.041418,0.003981,0.028397,-32.268463,-21.019875,-27.438164,,,,,,,
1512177345.560500,0.244494,0.705393,3.052346,-0.189718,-1.529027,-1.583427,0.184298,-0.648333,-0.738712,-0.042223,0.032855,-0.118465,-31.974213,-22.369438,-26.766335,,,,,,,
1512177345.580489,0.243731,0.693204,3.013387,-0.220725,-1.047117,-1.683474,0.185627,-0.639005,-0.746467,0.017177,0.008100,0.108939,-31.752914,-23.269112,-26.093666,,,,,,,
1512177345.600509,0.244008,0.678726,2.967069,-0.390934,-1.747499,-1.998603,0.188050,-0.627802,-0.755315,-0.122117,-0.029089,0.032765,-31.157532,-24.318214,-25.874260,,,,,,,
1512177345.620498,0.240752,0.654107,2.922200,-0.970610,-1.250617,-1.989279,0.189218,-0.608451,-0.770702,-0.063745,-0.001550,0.231350,-30.788193,-25.667656,-25.053062,,,,,,,
1512177345.640517,0.243373,0.622204,2.879723,-1.219812,-1.151511,-2.065038,0.195817,-0.582828,-0.788648,-0.160981,-0.073849,0.248289,-29.591492,-26.415871,-24.913612,,,,,,,
1512177345.660506,0.247099,0.586652,2.840951,-1.407547,-0.706669,-1.907368,0.203696,-0.553576,-0.807502,0.012552,-0.059415,0.230857,-28.843018,-26.714745,-25.295128,,,,,,,
1512177345.680495,0.239827,0.549894,2.810237,-1.490188,-1.741799,-1.406854,0.202517,-0.522597,-0.828177,0.572996,-0.275316,-0.426705,-27.645248,-27.162956,-25.680534,,,,,,,
1512177345.700497,0.204950,0.520445,2.806129,-1.256117,-1.503851,-0.009294,0.176572,-0.497267,-0.849439,0.432269,-0.423128,0.086164,-27.269165,-26.937386,-25.533607,,,,,,,
1512177345.720486,0.177100,0.505854,2.813610,-0.533122,-1.134484,0.125062,0.154111,-0.484555,-0.861078,-0.061673,-0.030002,0.120645,-27.642700,-26.637947,-25.305290,,,,,,,
1512177345.740505,0.164065,0.502135,2.808229,0.109079,-0.581164,-0.456438,0.143168,-0.481298,-0.864785,-0.336085,0.044912,0.100228,-28.392838,-26.714073,-24.923958,,,,,,,
1512177345.760494,0.167959,0.511247,2.793266,0.806459,0.017242,-0.567916,0.145795,-0.489265,-0.859862,-0.182874,-0.188164,0.116896,-28.392654,-26.639076,-25.223915,,,,,,,
1512177345.780483,0.177649,0.532535,2.782594,1.308890,0.301141,-0.056470,0.152245,-0.507719,-0.847963,0.212181,-0.366106,0.300081,-27.645996,-27.387947,-25.155632,,,,,,,
1512177345.800503,0.173776,0.561647,2.783697,1.391134,-0.576898,0.537594,0.146341,-0.532581,-0.833631,0.134069,-0.345959,0.106855,-27.725494,-28.513069,-24.030525,,,,,,,
1512177345.820493,0.148537,0.585468,2.803409,0.808720,-0.741583,1.262032,0.123344,-0.552589,-0.824275,0.046059,0.001182,0.200221,-28.247864,-27.988853,-23.500816,,,,,,,
1512177345.840511,0.118314,0.596928,2.832681,0.134060,-0.678381,1.191714,0.097625,-0.562104,-0.821284,-0.054016,0.223771,-0.032674,-29.299622,-28.440422,-22.967094,,,,,,,
1512177345.860500,0.093353,0.594671,2.855582,-0.334954,-0.438947,0.747600,0.077215,-0.560236,-0.824725,-0.027944,0.094431,0.004535,-29.368546,-27.090538,-22.965843,,,,,,,
1512177345.880520,0.080825,0.590298,2.865798,-0.153096,-0.339307,0.197297,0.067075,-0.556609,-0.828062,0.003894,-0.043779,-0.034121,-29.442200,-26.790642,-22.965065,,,,,,,
1512177345.900509,0.074006,0.591800,2.862915,0.224665,-0.495870,-0.286030,0.061364,-0.557856,-0.827665,0.012839,-0.055334,-0.085878,-29.218170,-27.015312,-22.892082,,,,,,,
1512177345.920498,0.070460,0.599051,2.848595,0.472939,-0.564037,-0.734679,0.058143,-0.563859,-0.823821,0.010598,-0.050078,-0.082749,-28.396133,-27.689079,-22.749413,,,,,,,
1512177345.940517,0.076508,0.606718,2.819916,0.462695,-0.516674,-1.469179,0.062792,-0.570174,-0.819120,-0.188769,0.068099,-0.000003,-27.950790,-28.738411,-22.603722,,,,,,,
1512177345.960506,0.099264,0.612253,2.774325,0.400822,0.086656,-1.954098,0.081100,-0.574713,-0.814326,-0.122238,-0.023249,0.014430,-26.530930,-29.861275,-22.766350,,,,,,,
1512177345.980526,0.128029,0.612539,2.730306,0.086554,0.162339,-1.575672,0.104466,-0.574947,-0.811493,-0.012563,-0.224675,-0.009002,-24.585388,-30.758354,-23.608330,,,,,,,
1512177346.000515,0.143560,0.607159,2.705568,-0.245604,0.014966,-0.769726,0.117497,-0.570536,-0.812823,0.030681,-0.142659,0.086383,-23.463837,-31.431679,-24.443214,,,,,,,
1512177346.020504,0.151013,0.597919,2.690349,-0.406695,-0.131753,-0.705410,0.124340,-0.562924,-0.817101,0.022038,-0.010028,0.121774,-22.415527,-31.730110,-25.127266,,,,,,,
1512177346.040524,0.157246,0.588440,2.670908,-0.270004,-0.244220,-0.983126,0.130260,-0.555064,-0.821544,0.003575,0.030848,0.147030,-21.815186,-31.579201,-25.807289,,,,,,,
1512177346.060513,0.162270,0.583160,2.646672,0.012772,-0.535347,-1.014157,0.134857,-0.550665,-0.823760,0.119751,0.019720,0.237136,-20.767883,-32.102638,-26.491463,,,,,,,
1512177346.080533,0.163987,0.583977,2.625202,0.254692,-0.533365,-0.751595,0.136198,-0.551346,-0.823083,0.224657,0.131424,0.091180,-19.642426,-32.025948,-26.275978,,,,,,,
1512177346.100521,0.157424,0.588099,2.611684,0.324515,-0.715537,-0.404748,0.130436,-0.554780,-0.821708,0.301494,0.318589,0.120674,-19.420197,-32.625618,-26.428169,,,,,,,
1512177346.120510,0.147364,0.594946,2.607160,0.364436,-0.523118,0.092214,0.121603,-0.560464,-0.819202,0.177897,0.251016,0.093799,-18.968552,-32.324928,-25.831856,,,,,,,
1512177346.140530,0.132692,0.602577,2.616468,0.319325,-0.486729,0.568221,0.109001,-0.566768,-0.816635,0.361260,0.201670,0.148407,-19.493774,-32.400719,-25.602440,,,,,,,
1512177346.160519,0.116544,0.609037,2.633217,0.124994,-0.166079,0.860751,0.095373,-0.572078,-0.814635,0.228067,0.209819,0.135817,-19.941116,-31.876396,-24.998375,,,,,,,
1512177346.180538,0.099649,0.612464,2.658458,0.066902,-0.095180,1.154388,0.081401,-0.574885,-0.814174,0.256368,0.215998,0.154094,-20.086578,-30.901604,-24.696648,,,,,,,
1512177346.200527,0.079142,0.616511,2.689645,0.104381,-0.167048,1.334845,0.064505,-0.578192,-0.813346,0.215402,0.160559,0.114753,-20.909973,-30.602852,-24.164497,,,,,,,
1512177346.220547,0.055279,0.620459,2.721312,0.102064,-0.336771,1.273457,0.044952,-0.581408,-0.812368,0.219666,0.131488,0.047003,-21.130951,-29.853172,-22.887245,,,,,,,
1512177346.240536,0.028861,0.622956,2.752935,0.057521,-0.432000,1.319387,0.023437,-0.583439,-0.811818,0.166200,0.084385,-0.035914,-21.952545,-29.179405,-22.129921,,,,,,,
1512177346.260525,0.001193,0.625539,2.785938,0.174343,-0.367791,1.349019,0.000967,-0.585534,-0.810646,0.095103,0.062814,-0.070763,-22.623642,-28.430412,-21.073845,,,,,,,
1512177346.280545,-0.024293,0.633457,2.821051,0.583624,-0.177306,1.493135,-0.019578,-0.591935,-0.805747,0.059800,0.079041,-0.026116,-23.220306,-27.756310,-20.468437,,,,,,,
1512177346.300534,-0.053267,0.649894,2.864190,1.052672,-0.164413,1.817660,-0.042388,-0.605102,-0.795018,0.078719,0.016388,0.028508,-24.041382,-27.082542,-18.661125,,,,,,,
1512177346.320554,-0.089253,0.670281,2.914741,1.166213,-0.291664,1.972373,-0.069850,-0.621206,-0.780527,0.109706,-0.009303,0.040568,-25.087296,-26.334114,-17.226860,,,,,,,
1512177346.340543,-0.130318,0.686488,2.969807,0.934273,-0.337074,2.072265,-0.100513,-0.633825,-0.766917,0.141208,-0.075190,0.086040,-26.283127,-25.585899,-15.641319,,,,,,,
1512177346.360531,-0.171424,0.694236,3.022938,0.533653,-0.366116,1.863809,-0.131102,-0.639799,-0.757277,0.131072,-0.042651,0.077498,-27.703522,-24.688042,-14.503792,,,,,,,
1512177346.380550,-0.204998,0.694037,3.064147,0.155794,-0.303779,1.378826,-0.156474,-0.639645,-0.752574,0.068446,0.022015,0.086101,-28.145752,-23.113701,-13.149254,,,,,,,
1512177346.400539,-0.228104,0.688980,3.096447,-0.040596,-0.031490,1.276717,-0.174549,-0.635750,-0.751899,0.035359,-0.021659,0.069465,-28.815796,-22.139702,-12.018059,,,,,,,
1512177346.420559,-0.248346,0.681319,3.131336,-0.044154,0.143247,1.501146,-0.190924,-0.629818,-0.752912,0.042258,-0.021244,0.068143,-29.036072,-21.165031,-11.340706,,,,,,,
1512177346.440548,-0.270678,0.672473,-3.112193,-0.019984,0.106670,1.649550,-0.209171,-0.622923,-0.753799,0.069690,-0.025377,0.042633,-29.630554,-20.040932,-10.435081,,,,,,,
1512177346.460537,-0.295337,0.663410,-3.072375,0.013745,-0.035252,1.601573,-0.229327,-0.615807,-0.753784,0.051897,-0.061668,-0.009171,-30.073700,-18.616600,-9.530617,,,,,,,
1512177346.480556,-0.319303,0.654590,-3.036224,0.011032,-0.124666,1.438114,-0.249020,-0.608834,-0.753199,0.016323,-0.043541,-0.014745,-30.218826,-17.641808,-8.553886,,,,,,,
1512177346.500546,-0.342201,0.646031,-3.002673,0.048001,-0.122382,1.394952,-0.267939,-0.602022,-0.752182,-0.026968,-0.058867,-0.043061,-30.363358,-16.517021,-7.727104,,,,,,,
1512177346.520566,-0.363605,0.638523,-2.968420,0.171107,0.012322,1.435584,-0.285575,-0.596010,-0.750478,-0.053689,-0.080000,-0.060832,-30.432053,-15.242134,-6.600883,,,,,,,
1512177346.540555,-0.383985,0.632226,-2.932049,0.283026,0.071105,1.503503,-0.302210,-0.590942,-0.747968,-0.039389,-0.110688,-0.069018,-30.426315,-14.042122,-5.925331,,,,,,,
1512177346.560575,-0.405236,0.627070,-2.893879,0.407577,0.046705,1.512683,-0.319232,-0.586775,-0.744167,-0.040616,-0.112902,-0.074574,-30.571625,-13.067345,-5.323601,,,,,,,
1512177346.580564,-0.425737,0.624734,-2.856194,0.557599,0.106969,1.404197,-0.334985,-0.584881,-0.738713,-0.032568,-0.110324,-0.023387,-30.791153,-11.942665,-4.496178,,,,,,,
1512177346.600552,-0.444902,0.622975,-2.819512,0.524654,0.117612,1.398426,-0.349523,-0.583454,-0.733085,-0.005168,-0.106503,0.021614,-30.861130,-10.892769,-3.895058,,,,,,,
1512177346.620571,-0.464665,0.618930,-2.781576,0.494813,0.104497,1.526943,-0.364996,-0.580164,-0.728139,-0.017908,-0.125067,0.060521,-30.781967,-9.992653,-3.670280,,,,,,,
1512177346.640560,-0.486642,0.613779,-2.740897,0.548816,0.056347,1.611778,-0.382301,-0.575961,-0.722574,-0.014931,-0.150098,0.084665,-30.849091,-8.342751,-2.768883,,,,,,,
1512177346.660580,-0.508894,0.608181,-2.701252,0.501460,-0.000145,1.505349,-0.399849,-0.571376,-0.716693,-0.002007,-0.164006,0.094531,-31.144287,-7.293190,-2.615852,,,,,,,
1512177346.680569,-0.530239,0.601974,-2.665985,0.428995,-0.105729,1.370680,-0.416840,-0.566271,-0.711042,-0.036041,-0.167494,0.109006,-31.140198,-6.468193,-1.865471,,,,,,,
1512177346.700523,-0.551671,0.595906,-2.632898,0.443126,-0.131186,1.287641,-0.433775,-0.561258,-0.704859,-0.068514,-0.199224,0.130991,-30.760849,-5.567619,-1.268242,,,,,,,
1512177346.720542,-0.568866,0.589569,-2.604626,0.272934,-0.027409,1.076591,-0.447737,-0.556003,-0.700279,-0.077287,-0.182583,0.145332,-30.979889,-4.292946,-0.815742,,,,,,,
1512177346.740531,-0.582354,0.581271,-2.583927,0.057441,-0.169434,0.884280,-0.459664,-0.549086,-0.698005,-0.166908,-0.245423,0.123588,-30.825531,-3.392723,-0.216606,,,,,,,
1512177346.760551,-0.596245,0.573860,-2.568072,0.079068,-0.311041,0.664491,-0.471587,-0.542878,-0.694902,-0.265596,-0.260940,0.101426,-30.673248,-2.942482,0.307320,,,,,,,
1512177346.780540,-0.608215,0.570333,-2.558068,0.082974,-0.313512,0.298884,-0.480962,-0.539913,-0.690773,-0.330699,-0.265355,0.074196,-30.670517,-2.417488,1.057564,,,,,,,
1512177346.800560,-0.613735,0.569165,-2.556450,-0.080262,-0.165740,-0.008925,-0.485130,-0.538929,-0.688623,-0.308525,-0.229519,0.088449,-30.520584,-2.417259,0.906288,,,,,,,
1512177346.820549,-0.612070,0.567409,-2.561127,-0.238406,0.020206,-0.171544,-0.484526,-0.537449,-0.690203,-0.230058,-0.159206,0.096499,-30.443329,-1.967140,1.355858,,,,,,,
1512177346.840538,-0.605890,0.566072,-2.570243,-0.280496,0.071730,-0.331884,-0.480660,-0.536321,-0.693775,-0.100287,-0.060939,0.108661,-30.593933,-2.117363,1.507057,,,,,,,
1512177346.860558,-0.600087,0.565821,-2.580576,-0.234439,-0.027505,-0.349684,-0.476703,-0.536109,-0.696664,0.004092,0.008719,0.117272,-30.521042,-2.567253,1.356224,,,,,,,
1512177346.880546,-0.596268,0.566504,-2.589060,-0.142955,-0.033927,-0.273758,-0.473832,-0.536686,-0.698176,0.080705,0.020008,0.147822,-30.522491,-2.867256,1.131065,,,,,,,
1512177346.900565,-0.595154,0.565885,-2.593763,-0.140081,-0.098427,-0.062860,-0.473241,-0.536163,-0.698978,0.117620,-0.001511,0.167454,-30.371338,-2.642036,1.429909,,,,,,,
1512177346.920554,-0.596934,0.562605,-2.594791,-0.173863,-0.109503,0.110380,-0.475470,-0.533391,-0.699586,0.106467,-0.060466,0.184815,-30.223022,-3.016808,1.428459,,,,,,,
1512177346.940543,-0.601095,0.557886,-2.593979,-0.156034,-0.227130,0.186985,-0.479795,-0.529394,-0.699669,0.068952,-0.128184,0.181954,-30.074554,-3.391594,1.727013,,,,,,,
1512177346.960563,-0.605141,0.552460,-2.594014,-0.295491,-0.166315,0.112681,-0.484249,-0.524783,-0.700074,-0.027287,-0.171476,0.107164,-29.622757,-3.015907,1.948357,,,,,,,
1512177346.980552,-0.600593,0.544618,-2.599791,-0.579588,0.236249,-0.028618,-0.483371,-0.518091,-0.705643,-0.082700,-0.220693,0.030701,-29.322464,-2.940468,1.870842,,,,,,,
1512177347.000572,-0.586560,0.533795,-2.610731,-0.766825,0.492475,-0.105067,-0.476497,-0.508804,-0.716985,-0.062275,-0.217591,-0.021571,-29.323135,-3.090462,1.870766,,,,,,,
1512177347.020561,-0.571486,0.524328,-2.621818,-0.576381,0.430901,-0.149427,-0.468220,-0.500631,-0.728105,0.000401,-0.186777,-0.060668,-28.873199,-3.089790,1.716957,,,,,,,
1512177347.040550,-0.562037,0.520042,-2.629488,-0.225551,0.182582,-0.167596,-0.462459,-0.496917,-0.734305,0.042278,-0.103059,-0.064783,-29.173950,-3.240242,1.569435,,,,,,,
1512177347.060570,-0.559723,0.520946,-2.632518,0.070671,-0.033936,-0.105426,-0.460520,-0.497701,-0.734992,0.060465,-0.046504,-0.012551,-29.175308,-3.540245,1.569298,,,,,,,
1512177347.080559,-0.561992,0.524453,-2.631065,0.216917,-0.087348,0.009510,-0.461253,-0.500739,-0.732464,0.065944,-0.045128,0.056119,-29.323624,-3.165459,1.570732,,,,,,,
1512177347.100579,-0.566512,0.527388,-2.626829,0.197168,-0.134567,0.106072,-0.463769,-0.503278,-0.729129,0.052254,-0.075168,0.093631,-28.948959,-3.239906,1.567513,,,,,,,
1512177347.120567,-0.571692,0.528056,-2.623535,0.042698,-0.196742,0.096154,-0.467357,-0.503855,-0.726433,0.022044,-0.111287,0.118600,-29.099258,-3.315132,1.643761,,,,,,,
1512177347.140586,-0.576448,0.526272,-2.622235,-0.093974,-0.204453,0.109072,-0.471296,-0.502313,-0.724955,0.004880,-0.141669,0.127467,-29.173737,-3.240242,2.019432,,,,,,,
1512177347.160575,-0.580586,0.522016,-2.622208,-0.238049,-0.226055,0.117570,-0.475460,-0.498629,-0.724779,-0.004886,-0.163145,0.114626,-29.172348,-2.940239,2.094566,,,,,,,
1512177347.180564,-0.583775,0.516694,-2.625902,-0.357582,-0.252568,-0.068679,-0.479225,-0.494009,-0.725463,-0.009285,-0.179911,0.092269,-29.245850,-2.640343,2.395348,,,,,,,
1512177347.200584,-0.583333,0.513646,-2.636178,-0.406131,-0.179445,-0.353767,-0.479731,-0.491356,-0.726929,-0.029745,-0.088829,0.074295,-28.946365,-2.789894,2.692711,,,,,,,
1512177347.220573,-0.579960,0.511036,-2.647386,-0.370869,-0.025703,-0.286626,-0.477977,-0.489081,-0.729613,-0.049794,-0.097467,0.077895,-29.172943,-3.165245,2.919456,,,,,,,
1512177347.240592,-0.575391,0.508832,-2.654336,-0.226350,0.083150,-0.124246,-0.475225,-0.487158,-0.732692,-0.028575,-0.075342,0.042659,-28.949142,-3.389900,2.542442,,,,,,,
1512177347.260581,-0.572895,0.507378,-2.657047,-0.099172,0.046813,-0.015923,-0.473778,-0.485887,-0.734470,-0.011986,-0.116392,0.046619,-29.098129,-3.165123,2.543831,,,,,,,
1512177347.280571,-0.572974,0.506429,-2.656712,-0.024027,-0.010943,0.078777,-0.474086,-0.485058,-0.734820,-0.014440,-0.122563,0.036440,-28.950302,-3.614906,2.242332,,,,,,,
1512177347.300591,-0.575057,0.505195,-2.654121,0.018349,-0.046283,0.158158,-0.475940,-0.483978,-0.734333,-0.009213,-0.107544,0.038227,-29.098206,-3.165123,2.393822,,,,,,,
1512177347.320580,-0.578376,0.504385,-2.649880,0.094581,-0.075071,0.187943,-0.478589,-0.483269,-0.733077,-0.000385,-0.100013,0.062652,-29.173508,-3.240242,2.469429,,,,,,,
1512177347.340598,-0.581685,0.505097,-2.645120,0.142548,-0.037485,0.125873,-0.480823,-0.483893,-0.731201,0.019596,-0.092340,0.079102,-28.797836,-3.089668,2.466316,,,,,,,
1512177347.360587,-0.583080,0.506509,-2.642415,0.088659,0.014954,0.034659,-0.481466,-0.485128,-0.729959,0.028738,-0.109950,0.096231,-29.173126,-3.165245,2.544456,,,,,,,
1512177347.380576,-0.582860,0.507325,-2.641743,0.010431,0.024527,-0.004818,-0.481088,-0.485841,-0.729734,0.030953,-0.138778,0.103300,-29.321823,-2.865456,2.470879,,,,,,,
1512177347.400596,-0.582881,0.507465,-2.642749,-0.046228,-0.051285,-0.063470,-0.481066,-0.485963,-0.729667,0.018892,-0.126433,0.092842,-28.796066,-2.714668,2.616478,,,,,,,
1512177347.420585,-0.583018,0.508119,-2.645314,-0.042187,-0.065066,-0.115698,-0.480990,-0.486535,-0.729336,0.007937,-0.126594,0.087459,-29.397125,-2.940575,2.546486,,,,,,,
1512177347.440605,-0.583603,0.508732,-2.647352,-0.035613,-0.077979,-0.062344,-0.481252,-0.487070,-0.728805,-0.007960,-0.125341,0.091064,-29.248764,-3.315346,2.620018,,,,,,,
1512177347.460594,-0.583937,0.509284,-2.648928,-0.033318,-0.028822,-0.069602,-0.481347,-0.487552,-0.728420,-0.010962,-0.117093,0.101604,-29.171738,-2.865242,2.619591,,,,,,,
1512177347.480613,-0.583238,0.509283,-2.650530,-0.075528,0.003080,-0.029592,-0.480839,-0.487551,-0.728757,0.000385,-0.130766,0.108197,-29.023499,-3.240013,2.468163,,,,,,,
1512177347.500602,-0.582392,0.507535,-2.651802,-0.146784,0.025295,0.025955,-0.480690,-0.486024,-0.729874,0.003456,-0.124419,0.089402,-29.174179,-3.390236,2.469368,,,,,,,
1512177347.520591,-0.580688,0.504961,-2.653537,-0.164494,0.064834,0.002381,-0.480130,-0.483773,-0.731736,0.000378,-0.131736,0.065888,-29.098587,-3.315132,2.993752,,,,,,,
1512177347.540612,-0.578138,0.502684,-2.655388,-0.151669,0.095837,0.002677,-0.478863,-0.481779,-0.733878,-0.004566,-0.121492,0.052390,-29.173660,-3.315239,2.844383,,,,,,,
1512177347.560601,-0.575439,0.500402,-2.657016,-0.155042,0.104353,0.013317,-0.477478,-0.479779,-0.736088,0.020111,-0.108585,0.056019,-29.098724,-3.315132,2.693748,,,,,,,
1512177347.580619,-0.573185,0.497928,-2.658551,-0.156284,0.064808,0.021688,-0.476460,-0.477606,-0.738158,0.035984,-0.100229,0.052275,-29.323730,-3.315468,2.695656,,,,,,,
1512177347.600608,-0.571959,0.495626,-2.659598,-0.124627,0.029574,0.040150,-0.476148,-0.475583,-0.739664,0.039914,-0.094669,0.047769,-29.173813,-3.315239,2.544395,,,,,,,
1512177347.620597,-0.571858,0.493801,-2.660031,-0.085082,-0.010941,0.032053,-0.476542,-0.473976,-0.740441,0.029414,-0.099693,0.043740,-29.251846,-3.990349,2.544716,,,,,,,
1512177347.640617,-0.571829,0.492700,-2.660637,-0.072919,-0.009803,0.005582,-0.476803,-0.473007,-0.740892,0.034893,-0.100434,0.052813,-28.798126,-3.164680,2.541283,,,,,,,
1512177347.660606,-0.571771,0.491384,-2.661520,-0.098711,-0.022688,0.016887,-0.477096,-0.471847,-0.741443,0.033371,-0.105042,0.061115,-29.323837,-3.315468,2.470665,,,,,,,
1512177347.680625,-0.571911,0.489397,-2.662433,-0.130925,-0.032373,0.031315,-0.477707,-0.470093,-0.742163,0.033035,-0.102142,0.059638,-29.173172,-3.165245,2.469460,,,,,,,
1512177347.700612,-0.572010,0.487083,-2.663555,-0.134057,-0.028100,0.027018,-0.478368,-0.468050,-0.743029,0.025441,-0.102476,0.058184,-29.023697,-3.315010,2.768105,,,,,,,
1512177347.720601,-0.572102,0.485002,-2.664528,-0.118110,-0.020602,0.030475,-0.478963,-0.466210,-0.743801,0.016957,-0.107276,0.063183,-29.248611,-3.315346,2.920021,,,,,,,
1512177347.740621,-0.572086,0.482895,-2.665208,-0.123625,-0.009952,0.042159,-0.479481,-0.464345,-0.744634,0.017873,-0.113780,0.069875,-29.173660,-3.315239,2.844383,,,,,,,
1512177347.760610,-0.571445,0.480452,-2.666185,-0.151263,0.016718,0.038653,-0.479616,-0.462180,-0.745893,0.023042,-0.117669,0.076566,-29.397949,-3.165581,2.921364,,,,,,,
1512177347.780629,-0.570946,0.477276,-2.667420,-0.189819,-0.009001,0.047597,-0.480034,-0.459361,-0.747364,0.029198,-0.099279,0.084736,-29.173019,-3.165245,2.769447,,,,,,,
1512177347.800618,-0.570140,0.473469,-2.669062,-0.229307,0.006957,0.051346,-0.480372,-0.455977,-0.749217,0.019023,-0.109209,0.072764,-29.100189,-3.615135,2.468620,,,,,,,
1512177347.820638,-0.569062,0.468894,-2.671004,-0.265700,0.034654,0.061575,-0.480683,-0.451900,-0.751484,0.002793,-0.115209,0.057484,-29.400375,-3.690575,2.771126,,,,,,,
1512177347.840627,-0.566551,0.464031,-2.673049,-0.263488,0.100887,0.059705,-0.479969,-0.447556,-0.754534,-0.028271,-0.124602,0.021318,-28.800644,-3.764687,2.915993,,,,,,,
1512177347.860616,-0.563282,0.459897,-2.674872,-0.213038,0.142666,0.041394,-0.478483,-0.443856,-0.757656,-0.021135,-0.115104,0.018261,-28.950424,-3.689903,2.692299,,,,,,,
1512177347.880635,-0.559464,0.456862,-2.676399,-0.161534,0.156670,0.021935,-0.476300,-0.441134,-0.760616,0.005475,-0.102659,0.018047,-28.949371,-3.464897,2.767403,,,,,,,
1512177347.900624,-0.556650,0.454854,-2.677934,-0.119325,0.083109,-0.020354,-0.474625,-0.439331,-0.762704,0.040009,-0.073700,0.026101,-29.175156,-3.615242,2.544258,,,,,,,
1512177347.920644,-0.554914,0.454101,-2.679953,-0.073941,0.026641,-0.060404,-0.473474,-0.438655,-0.763808,0.056146,-0.077047,0.028944,-28.949478,-3.464897,2.542412,,,,,,,
1512177347.940633,-0.554774,0.453699,-2.681005,-0.042937,-0.032172,-0.003657,-0.473460,-0.438293,-0.764024,0.047679,-0.082077,0.039491,-29.476166,-3.840691,2.546700,,,,,,,
1512177347.960622,-0.555238,0.453439,-2.681311,-0.018456,-0.021460,-0.001134,-0.473875,-0.438059,-0.763901,0.033186,-0.097188,0.027176,-29.475464,-3.690697,2.621758,,,,,,,
1512177347.980642,-0.555828,0.453474,-2.681120,0.014224,-0.026797,0.020641,-0.474317,-0.438091,-0.763608,0.026045,-0.095494,0.044309,-28.725861,-3.764565,2.465370,,,,,,,
1512177348.000631,-0.556193,0.453725,-2.680290,0.020359,0.011630,0.037918,-0.474538,-0.438317,-0.763342,0.019139,-0.091133,0.047582,-29.176208,-3.840248,2.469154,,,,,,,
1512177348.020650,-0.556074,0.453769,-2.679345,0.016075,0.038329,0.041151,-0.474437,-0.438357,-0.763381,0.030482,-0.089918,0.063873,-28.800873,-3.764687,2.465996,,,,,,,
1512177348.040639,-0.555538,0.453595,-2.678527,-0.011629,0.039358,0.040754,-0.474068,-0.438200,-0.763700,0.052865,-0.086382,0.059202,-29.176880,-3.990242,2.469078,,,,,,,
1512177348.060628,-0.554873,0.452742,-2.678588,-0.066733,0.030765,0.019668,-0.473757,-0.437433,-0.764333,0.065340,-0.083456,0.052007,-28.949783,-3.539909,2.617363,,,,,,,
1512177348.080648,-0.554120,0.451521,-2.678999,-0.069002,0.028610,0.028158,-0.473462,-0.436334,-0.765143,0.067913,-0.087439,0.040931,-28.951096,-3.839897,2.692238,,,,,,,
1512177348.100637,-0.553679,0.450610,-2.678831,-0.029792,0.024373,0.042572,-0.473333,-0.435515,-0.765690,0.067602,-0.088945,0.021503,-28.948761,-3.314903,2.617470,,,,,,,
1512177348.120656,-0.553853,0.450421,-2.677829,0.025440,0.009479,0.053980,-0.473510,-0.435345,-0.765677,0.060729,-0.092289,0.020636,-29.176056,-3.840248,2.769142,,,,,,,
1512177348.140645,-0.554682,0.450842,-2.675925,0.065527,-0.007606,0.077951,-0.474047,-0.435724,-0.765129,0.048342,-0.096564,0.021095,-29.176437,-3.915245,2.694115,,,,,,,
1512177348.160665,-0.555883,0.451337,-2.673412,0.070529,-0.011905,0.098266,-0.474852,-0.436169,-0.764376,0.025435,-0.102970,0.024340,-29.023621,-3.315010,2.918114,,,,,,,
1512177348.180654,-0.557297,0.451604,-2.670698,0.061878,-0.014070,0.105596,-0.475871,-0.436410,-0.763604,0.014918,-0.098121,0.028756,-29.398239,-3.240578,2.996330,,,,,,,
1512177348.200643,-0.558508,0.451627,-2.668288,0.040782,-0.014078,0.091429,-0.476790,-0.436430,-0.763019,0.010176,-0.075167,0.030308,-29.322906,-3.165459,2.995720,,,,,,,
1512177348.220662,-0.559181,0.451919,-2.666648,0.045826,0.011659,0.045753,-0.477235,-0.436693,-0.762590,0.009981,-0.068587,0.040102,-29.548431,-3.315804,3.297569,,,,,,,
1512177348.240651,-0.558818,0.452692,-2.665786,0.034691,0.042689,0.011586,-0.476780,-0.437388,-0.762477,0.029423,-0.077169,0.046138,-29.399597,-3.540581,2.996193,,,,,,,
1512177348.260671,-0.558467,0.452951,-2.665311,0.001470,0.022321,0.020627,-0.476452,-0.437621,-0.762548,0.053417,-0.090104,0.049734,-29.400681,-3.765587,2.846092,,,,,,,
1512177348.280660,-0.558015,0.452523,-2.665024,-0.036015,0.030789,0.031841,-0.476206,-0.437236,-0.762922,0.054575,-0.086552,0.037962,-29.623169,-3.240913,3.148247,,,,,,,
1512177348.300649,-0.557546,0.451584,-2.664741,-0.037217,0.033976,0.040364,-0.476066,-0.436391,-0.763493,0.055793,-0.086894,0.030034,-29.022537,-3.090019,3.068214,,,,,,,
1512177348.320668,-0.557295,0.450927,-2.663935,-0.006739,0.022221,0.066350,-0.476026,-0.435800,-0.763856,0.057263,-0.084296,0.027009,-29.397537,-3.090569,3.071404,,,,,,,
1512177348.340657,-0.557522,0.450509,-2.662522,0.012361,0.013692,0.070859,-0.476296,-0.435424,-0.763902,0.057961,-0.071748,0.030016,-29.397156,-3.015572,3.146431,,,,,,,
1512177348.360677,-0.557851,0.450381,-2.661064,0.023057,0.014782,0.068886,-0.476576,-0.435308,-0.763793,0.058303,-0.074823,0.042556,-29.847488,-3.091255,3.150230,,,,,,,
1512177348.380666,-0.558266,0.450026,-2.659300,0.012022,0.015792,0.092185,-0.476975,-0.434989,-0.763726,0.051652,-0.085152,0.041878,-29.398544,-3.315575,3.071297,,,,,,,
1512177348.400655,-0.558439,0.449153,-2.657433,-0.010569,0.040300,0.105802,-0.477308,-0.434203,-0.763965,0.039869,-0.085451,0.036564,-29.621475,-2.865913,3.148415,,,,,,,
1512177348.420675,-0.557814,0.447699,-2.655543,-0.030022,0.085097,0.123799,-0.477164,-0.432893,-0.764798,0.027579,-0.102340,0.019406,-29.845764,-2.716240,3.225410,,,,,,,
1512177348.440664,-0.556094,0.445599,-2.653698,-0.075006,0.149087,0.139359,-0.476327,-0.430998,-0.766388,0.028848,-0.103425,-0.004303,-29.396927,-2.940575,2.921471,,,,,,,
1512177348.460683,-0.553566,0.442533,-2.652403,-0.126101,0.153286,0.134367,-0.475080,-0.428230,-0.768711,0.042432,-0.096139,-0.016339,-29.395813,-2.715569,3.146568,,,,,,,
1512177348.480672,-0.550820,0.439250,-2.651827,-0.135205,0.142659,0.105420,-0.473701,-0.425260,-0.771206,0.058067,-0.072954,-0.026936,-29.395584,-2.640572,2.921608,,,,,,,
1512177348.500692,-0.548596,0.437032,-2.651242,-0.055878,0.108650,0.076599,-0.472475,-0.423252,-0.773061,0.059084,-0.059811,-0.029399,-29.394531,-2.415565,2.996712,,,,,,,
1512177348.520681,-0.547897,0.436789,-2.649639,0.060302,0.039394,0.073774,-0.471988,-0.423032,-0.773479,0.051807,-0.058612,-0.015447,-29.468445,-2.190681,3.147453,,,,,,,
1512177348.540670,-0.548978,0.437918,-2.647115,0.117857,-0.025666,0.072254,-0.472575,-0.424054,-0.772560,0.041758,-0.057421,0.009285,-29.618103,-2.115898,3.148766,,,,,,,
1512177348.560689,-0.551048,0.439346,-2.644331,0.119895,-0.055582,0.076443,-0.473855,-0.425348,-0.771063,0.022409,-0.068167,0.034720,-29.318100,-2.115456,3.146217,,,,,,,
1512177348.580678,-0.552965,0.440303,-2.641763,0.081497,-0.036420,0.078083,-0.475119,-0.426214,-0.769807,0.000799,-0.067362,0.046494,-29.617767,-2.040901,3.148796,,,,,,,
1512177348.600698,-0.553844,0.440496,-2.639764,0.039971,0.008385,0.077639,-0.475752,-0.426388,-0.769319,-0.010561,-0.091572,0.033845,-29.317352,-1.965446,3.296288,,,,,,,
1512177348.620687,-0.553906,0.440269,-2.638059,0.021959,0.051096,0.073264,-0.475850,-0.426183,-0.769371,-0.005778,-0.091517,0.030800,-29.393661,-2.265572,3.371788,,,,,,,
1512177348.640676,-0.552802,0.439993,-2.636852,0.000007,0.088490,0.047485,-0.475063,-0.425933,-0.769996,0.024928,-0.082947,0.028282,-29.166687,-1.815224,3.295082,,,,,,,
1512177348.660695,-0.551227,0.439682,-2.636415,-0.015561,0.088516,0.021674,-0.473919,-0.425652,-0.770856,0.068096,-0.072212,0.031324,-29.165741,-1.590218,3.145180,,,,,,,
1512177348.680684,-0.549773,0.439269,-2.636130,-0.021096,0.070325,0.033257,-0.472889,-0.425278,-0.771695,0.090565,-0.079880,0.026441,-29.391190,-1.665565,2.922066,,,,,,,
1512177348.700682,-0.549123,0.438716,-2.635455,-0.012821,0.037204,0.048191,-0.472510,-0.424777,-0.772202,0.097831,-0.081098,0.021714,-29.465515,-1.515678,2.922768,,,,,,,
1512177348.720671,-0.548780,0.438313,-2.634406,0.006132,0.048949,0.062363,-0.472335,-0.424412,-0.772511,0.092742,-0.074840,0.007816,-29.165558,-1.515221,2.845222,,,,,,,
1512177348.740690,-0.548276,0.438091,-2.632272,0.052195,0.082032,0.115383,-0.471994,-0.424212,-0.772828,0.073816,-0.088193,-0.003127,-29.165558,-1.515221,2.845222,,,,,,,
1512177348.760679,-0.547546,0.438277,-2.628739,0.092221,0.116211,0.145930,-0.471389,-0.424380,-0.773106,0.073745,-0.091688,-0.005535,-29.167023,-1.815224,2.620079,,,,,,,
1512177348.780668,-0.546699,0.438568,-2.624944,0.093309,0.117285,0.144884,-0.470670,-0.424643,-0.773399,0.084943,-0.083886,0.012260,-29.014175,-1.215004,2.919075,,,,,,,
1512177348.800688,-0.545851,0.438647,-2.621324,0.072964,0.108698,0.149890,-0.469996,-0.424715,-0.773770,0.091868,-0.085265,0.009579,-29.162628,-0.840218,2.620522,,,,,,,
1512177348.820677,-0.545238,0.438305,-2.617773,0.055738,0.096900,0.159192,-0.469597,-0.424405,-0.774182,0.078697,-0.088488,0.000531,-29.387863,-0.915565,2.847404,,,,,,,
1512177348.840696,-0.544706,0.437556,-2.613907,0.052136,0.113945,0.185856,-0.469350,-0.423727,-0.774703,0.049916,-0.086466,-0.013521,-29.011765,-0.689995,2.994316,,,,,,,
1512177348.860685,-0.543511,0.436793,-2.609700,0.062763,0.158812,0.189361,-0.468591,-0.423036,-0.775540,0.021386,-0.087141,-0.029697,-29.085236,-0.315102,2.695137,,,,,,,
1512177348.880674,-0.541635,0.436060,-2.605555,0.057567,0.184451,0.181910,-0.467294,-0.422371,-0.776683,0.023935,-0.086585,-0.025807,-29.082977,0.209892,2.470390,,,,,,,
1512177348.900694,-0.539666,0.435040,-2.601826,0.021377,0.154502,0.178088,-0.465985,-0.421446,-0.777971,0.039945,-0.051423,-0.010558,-29.082977,0.209892,2.470390,,,,,,,
1512177348.920683,-0.538266,0.433579,-2.598699,-0.003846,0.122461,0.154156,-0.465211,-0.420121,-0.779150,0.045671,-0.031280,-0.005350,-29.383774,0.059441,2.247856,,,,,,,
1512177348.940703,-0.537079,0.432307,-2.596334,-0.001141,0.101176,0.118944,-0.464559,-0.418967,-0.780160,0.050100,-0.026086,-0.001563,-29.457870,0.284340,2.023598,,,,,,,
1512177348.960692,-0.535692,0.431368,-2.594087,0.006304,0.118271,0.120175,-0.463677,-0.418114,-0.781142,0.062020,-0.036675,-0.008180,-29.231857,0.509682,2.021797,,,,,,,
1512177348.980681,-0.534163,0.429905,-2.591902,-0.025796,0.113935,0.127157,-0.462793,-0.416784,-0.782375,0.066477,-0.043817,-0.021244,-29.457306,0.434334,1.798668,,,,,,,
1512177349.000700,-0.533110,0.428604,-2.589697,0.007295,0.083017,0.123265,-0.462244,-0.415601,-0.783329,0.076868,-0.043047,-0.018414,-29.382126,0.509453,1.498070,,,,,,,
1512177349.020689,-0.532947,0.428026,-2.586768,0.059257,0.055288,0.137777,-0.462238,-0.415076,-0.783611,0.086537,-0.017496,0.000820,-29.682083,0.508995,1.575630,,,,,,,
1512177349.040709,-0.533673,0.428449,-2.583140,0.121073,0.019070,0.137483,-0.462718,-0.415460,-0.783124,0.083110,-0.024725,0.017301,-30.056778,0.583443,1.503838,,,,,,,
1512177349.060698,-0.535014,0.429491,-2.578778,0.146373,0.023346,0.154921,-0.463547,-0.416408,-0.782130,0.078674,-0.040654,0.026194,-29.606064,0.734108,1.575096,,,,,,,
1512177349.080717,-0.535777,0.429993,-2.574395,0.099356,0.061716,0.163970,-0.464036,-0.416865,-0.781596,0.061098,-0.058477,0.012187,-29.907532,0.433662,1.352501,,,,,,,
1512177349.100706,-0.535222,0.429916,-2.570797,0.071111,0.118345,0.133907,-0.463619,-0.416794,-0.781881,0.065517,-0.040939,-0.001063,-30.130768,0.883324,0.829628,,,,,,,
1512177349.120695,-0.533747,0.430028,-2.567688,0.079803,0.130126,0.124480,-0.462441,-0.416896,-0.782524,0.089074,-0.028874,0.007301,-30.281143,0.808098,0.755867,,,,,,,
1512177349.140715,-0.533121,0.430350,-2.563996,0.107106,0.090602,0.148193,-0.461883,-0.417189,-0.782697,0.119293,-0.023942,0.018430,-30.056076,0.808434,0.903954,,,,,,,
1512177349.160704,-0.533574,0.430817,-2.559620,0.120462,0.059579,0.175991,-0.462138,-0.417613,-0.782320,0.113826,-0.043034,0.011370,-30.131439,0.733330,0.829552,,,,,,,
1512177349.180723,-0.534368,0.430813,-2.554454,0.111144,0.077630,0.224959,-0.462760,-0.417610,-0.781954,0.083808,-0.067650,-0.009000,-29.907196,0.583656,0.677574,,,,,,,
1512177349.200712,-0.534512,0.430175,-2.548659,0.101131,0.132043,0.253790,-0.463008,-0.417030,-0.782117,0.059810,-0.075265,-0.032138,-29.605698,0.884117,0.975166,,,,,,,
1512177349.220701,-0.533441,0.429450,-2.542810,0.100115,0.176907,0.252865,-0.462324,-0.416371,-0.782872,0.066008,-0.070049,-0.035884,-30.207535,0.508217,0.680092,,,,,,,
1512177349.240721,-0.532296,0.428689,-2.537353,0.081371,0.147020,0.223703,-0.461588,-0.415679,-0.783674,0.090922,-0.046114,-0.023684,-29.981781,0.658546,0.828239,,,,,,,
1512177349.260710,-0.531499,0.428362,-2.533358,0.069935,0.092694,0.139131,-0.461033,-0.415381,-0.784159,0.100300,-0.029321,-0.020590,-30.134705,0.058311,0.379250,,,,,,,
1512177349.280729,-0.531366,0.428801,-2.530608,0.084558,0.037267,0.090111,-0.460835,-0.415781,-0.784063,0.099339,-0.024298,-0.018732,-30.431900,0.657875,0.607079,,,,,,,
1512177349.300718,-0.532370,0.429584,-2.527653,0.106467,-0.012956,0.116906,-0.461457,-0.416493,-0.783319,0.059357,-0.036769,-0.025260,-30.057007,0.583443,1.053841,,,,,,,
1512177349.320707,-0.534396,0.430482,-2.523554,0.146310,-0.019384,0.156905,-0.462852,-0.417309,-0.782061,0.014458,-0.049946,-0.010954,-30.056488,0.733437,0.753914,,,,,,,
1512177349.340727,-0.536626,0.431504,-2.518524,0.163932,-0.017283,0.187015,-0.464377,-0.418238,-0.780659,-0.010873,-0.050070,0.005726,-30.205399,0.958214,0.905296,,,,,,,
1512177349.360716,-0.538412,0.431996,-2.513463,0.111721,0.031770,0.187494,-0.465665,-0.418684,-0.779652,-0.006991,-0.037965,0.025730,-30.129639,1.108330,1.054726,,,,,,,
1512177349.380736,-0.537935,0.431016,-2.509821,-0.002802,0.132076,0.156339,-0.465503,-0.417794,-0.780226,0.020877,-0.024177,0.026289,-30.281372,0.733101,0.980827,,,,,,,
1512177349.400725,-0.534983,0.428712,-2.508102,-0.091653,0.201446,0.116912,-0.463687,-0.415700,-0.782423,0.064929,-0.038112,-0.005648,-30.354233,1.182991,1.206673,,,,,,,
1512177349.420744,-0.530936,0.425807,-2.507304,-0.119152,0.225996,0.104873,-0.461127,-0.413055,-0.785331,0.109122,-0.046692,-0.046578,-29.980087,1.033546,0.828423,,,,,,,
1512177349.440733,-0.527061,0.422848,-2.506302,-0.094966,0.211041,0.124360,-0.458693,-0.410359,-0.788165,0.134901,-0.053889,-0.087629,-29.603699,1.334114,0.900368,,,,,,,
1512177349.460722,-0.524149,0.420546,-2.504008,-0.024240,0.186500,0.165811,-0.456867,-0.408259,-0.790313,0.143376,-0.057592,-0.120881,-30.053452,1.408440,0.754234,,,,,,,
1512177349.480742,-0.522297,0.419080,-2.500030,0.054840,0.160878,0.216970,-0.455701,-0.406920,-0.791675,0.137052,-0.050859,-0.132733,-30.053329,1.408440,0.979225,,,,,,,
1512177349.500731,-0.521801,0.418794,-2.494413,0.151426,0.115048,0.240597,-0.455366,-0.406659,-0.792002,0.137815,-0.023837,-0.110433,-29.903412,1.408669,0.827950,,,,,,,
1512177349.520750,-0.522705,0.420156,-2.487767,0.242231,0.057536,0.226790,-0.455805,-0.407903,-0.791109,0.125361,-0.014186,-0.065733,-30.276413,1.858116,0.756355,,,,,,,
1512177349.540739,-0.525269,0.422796,-2.480851,0.280977,-0.026740,0.200407,-0.457291,-0.410312,-0.789004,0.115082,-0.008267,-0.016386,-29.751419,1.858894,0.751884,,,,,,,
1512177349.560728,-0.528625,0.425517,-2.474614,0.242891,-0.064149,0.180535,-0.459371,-0.412791,-0.786498,0.086599,-0.009328,0.018859,-30.050446,2.083443,0.679543,,,,,,,
1512177349.580748,-0.532295,0.427258,-2.468847,0.194705,-0.079203,0.192576,-0.461888,-0.414377,-0.784186,0.051763,-0.013189,0.036658,-30.274887,2.158119,1.131477,,,,,,,
1512177349.600737,-0.535455,0.428387,-2.463508,0.162919,-0.042912,0.182648,-0.464126,-0.415404,-0.782320,0.013106,-0.020967,0.031206,-30.499054,2.382774,0.758507,,,,,,,
1512177349.620756,-0.537276,0.429097,-2.458889,0.126047,0.016898,0.158868,-0.465399,-0.416050,-0.781220,0.000890,-0.029141,0.035721,-30.496399,2.907784,1.358742,,,,,,,
1512177349.640745,-0.537465,0.429082,-2.455127,0.056936,0.088379,0.151721,-0.465549,-0.416036,-0.781137,0.014454,-0.022303,0.035135,-30.496063,2.982780,1.358788,,,,,,,
1512177349.660734,-0.536144,0.427648,-2.452064,-0.017888,0.140573,0.165741,-0.464821,-0.414732,-0.782264,0.035805,-0.031832,0.012000,-30.120422,3.133339,1.280663,,,,,,,
1512177349.680754,-0.534408,0.425200,-2.449096,-0.048110,0.150095,0.188789,-0.463978,-0.412503,-0.783941,0.057148,-0.047382,-0.017894,-30.119370,3.358345,1.355766,,,,,,,
1512177349.700714,-0.532956,0.422436,-2.445902,-0.045049,0.134061,0.196240,-0.463417,-0.409984,-0.785592,0.064506,-0.046849,-0.056067,-30.046463,2.908455,1.204918,,,,,,,
1512177349.720733,-0.531232,0.420452,-2.442788,0.001450,0.166259,0.158651,-0.462473,-0.408174,-0.787090,0.072703,-0.031997,-0.078267,-30.195084,3.208229,1.281334,,,,,,,
1512177349.740722,-0.528883,0.419816,-2.439676,0.059419,0.187756,0.135045,-0.460754,-0.407592,-0.788398,0.104598,-0.027711,-0.060585,-29.893768,3.508690,1.203926,,,,,,,
1512177349.760742,-0.526385,0.419798,-2.436592,0.064945,0.174969,0.122287,-0.458787,-0.407576,-0.789553,0.126084,-0.017015,-0.047590,-29.594254,3.434135,0.901329,,,,,,,
1512177349.780731,-0.524270,0.419759,-2.433644,0.068025,0.139711,0.127538,-0.457123,-0.407540,-0.790535,0.133790,-0.032890,-0.052574,-29.669296,3.434013,0.826973,,,,,,,
1512177349.800720,-0.523659,0.419933,-2.430008,0.108049,0.073497,0.154542,-0.456605,-0.407699,-0.790753,0.120485,-0.028855,-0.044758,-29.443207,3.659355,0.975166,,,,,,,
1512177349.820739,-0.524518,0.420747,-2.425364,0.164040,0.021178,0.181818,-0.457118,-0.408442,-0.790073,0.090770,-0.020360,-0.029828,-29.668625,3.584023,0.827049,,,,,,,
1512177349.840729,-0.527039,0.422405,-2.419272,0.243443,-0.034300,0.213696,-0.458767,-0.409955,-0.788331,0.070049,-0.007998,0.010957,-29.968475,3.583565,1.129585,,,,,,,
1512177349.860748,-0.530938,0.425180,-2.412213,0.292476,-0.084429,0.211032,-0.461259,-0.412485,-0.785553,0.074769,0.001688,0.069595,-29.442154,3.884361,1.050270,,,,,,,
1512177349.880737,-0.535121,0.427757,-2.405860,0.226962,-0.082323,0.175977,-0.463997,-0.414831,-0.782699,0.085869,-0.003397,0.109237,-29.815125,4.333794,1.053658,,,,,,,
1512177349.900726,-0.537803,0.428592,-2.401262,0.090946,-0.011984,0.152930,-0.465917,-0.415591,-0.781154,0.083151,-0.026517,0.093471,-29.891327,4.108681,0.679207,,,,,,,
1512177349.920746,-0.537278,0.427414,-2.398451,-0.021725,0.148101,0.141196,-0.465757,-0.414519,-0.781819,0.079695,-0.056001,0.040944,-29.815201,4.333794,0.903664,,,,,,,
1512177349.940735,-0.533527,0.424712,-2.396062,-0.078804,0.276109,0.181320,-0.463389,-0.412059,-0.784522,0.083567,-0.070745,-0.013268,-29.814529,4.483803,0.903725,,,,,,,
1512177349.960754,-0.528223,0.421213,-2.393163,-0.080369,0.346546,0.215659,-0.459946,-0.408868,-0.788209,0.092270,-0.063514,-0.070266,-29.590240,4.334145,0.826759,,,,,,,
1512177349.980743,-0.522913,0.418279,-2.389035,-0.005357,0.334830,0.256149,-0.456351,-0.406189,-0.791676,0.110220,-0.055619,-0.089580,-29.811646,5.158806,0.604057,,,,,,,
1512177350.000763,-0.519468,0.416348,-2.383284,0.063335,0.254756,0.288848,-0.454009,-0.404423,-0.793923,0.117126,-0.027370,-0.087623,-29.737839,4.933922,0.228310,,,,,,,
1512177350.020752,-0.517946,0.415402,-2.376853,0.123162,0.182227,0.276666,-0.452990,-0.403557,-0.794946,0.102389,-0.024070,-0.098029,-29.662842,4.934029,0.227669,,,,,,,
1512177350.040741,-0.516943,0.415506,-2.370154,0.164943,0.179113,0.264469,-0.452172,-0.403653,-0.795363,0.081795,-0.030292,-0.111574,-30.035477,5.458473,0.231102,,,,,,,
1512177350.060760,-0.515861,0.415796,-2.363657,0.145977,0.174836,0.250319,-0.451253,-0.403918,-0.795750,0.070546,-0.036878,-0.104534,-29.959473,5.683586,0.230568,,,,,,,
1512177350.080749,-0.515037,0.415911,-2.358001,0.131769,0.126840,0.205174,-0.450574,-0.404024,-0.796081,0.069165,-0.007781,-0.091508,-29.882553,6.133705,0.005135,,,,,,,
1512177350.100769,-0.515594,0.417118,-2.352957,0.196456,0.037304,0.156761,-0.450777,-0.405128,-0.795405,0.091570,0.005912,-0.046270,-30.106888,6.283363,0.007118,,,,,,,
1512177350.120758,-0.517766,0.419414,-2.347316,0.233136,-0.022528,0.192265,-0.452042,-0.407225,-0.793614,0.093079,-0.021364,-0.015941,-30.107513,6.133354,0.082054,,,,,,,
1512177350.140747,-0.521191,0.420501,-2.340772,0.168104,-0.043048,0.256281,-0.454536,-0.408218,-0.791677,0.070686,-0.069886,-0.030040,-30.182632,6.133247,-0.142311,,,,,,,
1512177350.160766,-0.523541,0.419696,-2.334448,0.079335,0.045432,0.277689,-0.456560,-0.407483,-0.790890,0.053178,-0.075930,-0.059390,-30.032288,6.208473,-0.143547,,,,,,,
1512177350.180755,-0.523277,0.417647,-2.328650,0.034462,0.171383,0.289201,-0.456768,-0.405610,-0.791733,0.063060,-0.071868,-0.085678,-29.805649,6.583809,-0.220299,,,,,,,
1512177350.200775,-0.521623,0.415534,-2.323134,0.040459,0.185360,0.249895,-0.455883,-0.403679,-0.793228,0.106350,-0.041542,-0.089523,-29.804260,6.883812,-0.145149,,,,,,,
1512177350.220764,-0.520590,0.414953,-2.319112,0.081768,0.092719,0.131836,-0.455181,-0.403147,-0.793902,0.166225,-0.011862,-0.050580,-30.030640,6.583473,-0.218376,,,,,,,
1512177350.240753,-0.520542,0.416097,-2.316469,0.113741,0.029879,0.064920,-0.454913,-0.404194,-0.793523,0.205157,0.011814,-0.016932,-29.803619,7.033821,-0.220085,,,,,,,
1512177350.260772,-0.521215,0.417087,-2.313692,0.097871,0.003040,0.121099,-0.455247,-0.405099,-0.792869,0.186784,0.013162,-0.006188,-30.106537,6.358360,0.007149,,,,,,,
1512177350.280761,-0.523521,0.417421,-2.308897,0.149430,-0.047293,0.224011,-0.457006,-0.405404,-0.791701,0.122656,-0.012229,-0.001375,-30.252197,7.333138,-0.066124,,,,,,,
1512177350.300781,-0.527401,0.418361,-2.302171,0.221386,-0.091036,0.254752,-0.459883,-0.406263,-0.789592,0.052244,-0.015597,0.006541,-29.952148,7.333595,0.006325,,,,,,,
1512177350.320770,-0.531806,0.420171,-2.295069,0.248291,-0.087763,0.239161,-0.462983,-0.407917,-0.786923,0.009080,-0.009182,0.032132,-29.727112,7.333931,0.079414,,,,,,,
1512177350.340790,-0.535879,0.421476,-2.287877,0.207343,-0.061173,0.267446,-0.465912,-0.409108,-0.784573,-0.015656,-0.006114,0.053463,-30.177414,7.258263,0.158211,,,,,,,
1512177350.360779,-0.538928,0.421673,-2.281144,0.135171,0.007109,0.250644,-0.468261,-0.409288,-0.783079,-0.015321,-0.012542,0.056807,-30.100021,7.783379,0.232811,,,,,,,
1512177350.380768,-0.539336,0.420525,-2.276425,0.007223,0.132008,0.193791,-0.468821,-0.408240,-0.783291,0.006983,-0.024255,0.038097,-30.252426,7.258141,0.158852,,,,,,,
1512177350.400787,-0.535913,0.417303,-2.274140,-0.137078,0.261111,0.159103,-0.466806,-0.405297,-0.786018,0.036524,-0.047248,-0.028359,-29.800400,7.708824,0.155235,,,,,,,
1512177350.420776,-0.529961,0.413030,-2.273805,-0.185149,0.318830,0.103172,-0.462991,-0.401387,-0.790269,0.078973,-0.046077,-0.084258,-29.799500,7.933815,-0.069664,,,,,,,
1512177350.440796,-0.524196,0.409677,-2.273632,-0.112442,0.279447,0.088097,-0.459098,-0.398313,-0.794086,0.122291,-0.026095,-0.107922,-29.800354,7.783821,-0.444740,,,,,,,
1512177350.460785,-0.520144,0.408194,-2.272318,0.007900,0.197374,0.091688,-0.456170,-0.396953,-0.796451,0.161142,-0.005971,-0.097302,-30.025650,7.708488,-0.367867,,,,,,,
1512177350.480774,-0.518669,0.408703,-2.269442,0.122562,0.092821,0.115374,-0.454895,-0.397419,-0.796948,0.180984,0.007099,-0.059925,-29.950729,7.708595,-0.518486,,,,,,,
1512177350.500793,-0.519339,0.410015,-2.265019,0.171735,0.028695,0.168097,-0.455170,-0.398623,-0.796190,0.161362,0.001635,-0.034941,-29.725388,7.783928,-0.520363,,,,,,,
1512177350.520782,-0.521335,0.411528,-2.259361,0.208476,-0.011907,0.200469,-0.456456,-0.400010,-0.794756,0.119176,-0.016356,-0.013716,-30.099686,7.933372,-0.442116,,,,,,,
1512177350.540802,-0.523594,0.413022,-2.253278,0.204943,-0.002337,0.221775,-0.457952,-0.401379,-0.793204,0.079778,-0.022861,-0.003503,-30.173737,8.158257,-0.591377,,,,,,,
1512177350.560791,-0.525619,0.413653,-2.246249,0.183402,0.031657,0.301536,-0.459429,-0.401957,-0.792056,0.031710,-0.048406,-0.015455,-30.174011,8.083260,-0.441414,,,,,,,
1512177350.580780,-0.527173,0.413444,-2.238353,0.171253,0.086057,0.329264,-0.460702,-0.401765,-0.791413,0.004541,-0.040022,-0.037246,-30.023819,8.158485,-0.742653,,,,,,,
1512177350.600799,-0.527775,0.413179,-2.230520,0.168369,0.126679,0.312307,-0.461232,-0.401523,-0.791228,0.025105,-0.040280,-0.024690,-29.800583,7.783821,-0.894737,,,,,,,
1512177350.620788,-0.527379,0.412843,-2.224048,0.097110,0.149148,0.238862,-0.460987,-0.401215,-0.791527,0.093555,-0.022522,-0.005745,-29.496536,8.684273,-0.896873,,,,,,,
1512177350.640808,-0.525850,0.411668,-2.220692,-0.012938,0.118233,0.123093,-0.460012,-0.400138,-0.792638,0.170385,-0.009377,-0.008982,-29.720627,8.908943,-1.119850,,,,,,,
1512177350.660797,-0.524800,0.410396,-2.219621,-0.034281,0.045696,0.056436,-0.459434,-0.398973,-0.793560,0.216530,-0.005599,-0.018756,-29.495697,8.909279,-1.271751,,,,,,,
1512177350.680816,-0.524579,0.409516,-2.218877,-0.012015,0.014746,0.063051,-0.459435,-0.398165,-0.793966,0.225975,-0.027067,-0.045024,-29.573029,8.384163,-1.196358,,,,,,,
1512177350.700799,-0.525565,0.408715,-2.216505,0.043931,-0.028098,0.157518,-0.460377,-0.397430,-0.793788,0.198322,-0.048004,-0.070531,-29.796722,8.683830,-1.269310,,,,,,,
1512177350.720788,-0.528601,0.408529,-2.211244,0.159546,-0.067636,0.256068,-0.462823,-0.397259,-0.792450,0.144112,-0.064792,-0.080581,-29.571609,8.684166,-1.046227,,,,,,,
1512177350.740808,-0.533057,0.409186,-2.202556,0.268345,-0.057035,0.382412,-0.466216,-0.397863,-0.790155,0.072554,-0.069407,-0.074820,-29.644913,9.059059,-1.045418,,,,,,,
1512177350.760797,-0.537071,0.409849,-2.191591,0.283489,0.039015,0.438400,-0.469249,-0.398471,-0.788050,0.005550,-0.061536,-0.071920,-29.419586,9.134392,-1.047295,,,,,,,
1512177350.780816,-0.538571,0.409962,-2.180950,0.230860,0.169324,0.403977,-0.470407,-0.398575,-0.787307,-0.018591,-0.052506,-0.045289,-29.344208,9.209511,-0.972908,,,,,,,
1512177350.800806,-0.537586,0.409382,-2.172821,0.119843,0.218526,0.286341,-0.469749,-0.398042,-0.787969,0.003700,-0.018675,-0.017176,-29.493637,9.359291,-1.196556,,,,,,,
1512177350.820795,-0.534575,0.408277,-2.168972,-0.002244,0.215449,0.125717,-0.467599,-0.397028,-0.789758,0.064157,0.003977,0.002435,-29.491806,9.734291,-0.896385,,,,,,,
1512177350.840814,-0.531475,0.406716,-2.168186,-0.069375,0.133234,0.055165,-0.465462,-0.395595,-0.791736,0.116036,0.018184,0.010410,-30.017334,9.658501,-1.266945,,,,,,,
1512177350.860803,-0.530181,0.405238,-2.167712,-0.035632,0.034973,0.072367,-0.464732,-0.394237,-0.792842,0.129542,0.014995,-0.026738,-30.016922,9.733498,-1.116920,,,,,,,
1512177350.880823,-0.531249,0.404545,-2.165177,0.071785,-0.019489,0.150493,-0.465717,-0.393601,-0.792581,0.110492,-0.000992,-0.039527,-29.864899,10.183723,-1.117989,,,,,,,
1512177350.900812,-0.533509,0.404822,-2.160201,0.149676,-0.005606,0.211368,-0.467452,-0.393855,-0.791432,0.094328,-0.010289,-0.033412,-29.941956,9.733604,-1.192558,,,,,,,
1512177350.920831,-0.535211,0.405294,-2.154216,0.168430,0.034957,0.239497,-0.468703,-0.394289,-0.790475,0.072813,-0.023802,-0.026969,-30.015900,9.958504,-1.116814,,,,,,,
1512177350.940820,-0.536354,0.405734,-2.147637,0.173540,0.084074,0.255735,-0.469518,-0.394694,-0.789789,0.078588,-0.043203,-0.017126,-30.017899,9.583504,-1.716988,,,,,,,
1512177350.960809,-0.535807,0.405534,-2.141916,0.090993,0.147036,0.221709,-0.469126,-0.394509,-0.790114,0.107965,-0.037009,-0.018266,-29.790268,10.108833,-1.193657,,,,,,,
1512177350.980829,-0.534615,0.404085,-2.137329,0.027933,0.138377,0.231427,-0.468475,-0.393177,-0.791164,0.102660,-0.053875,-0.047032,-29.564407,10.334175,-1.495461,,,,,,,
1512177351.000818,-0.533655,0.402069,-2.132417,0.033893,0.139403,0.258169,-0.468117,-0.391323,-0.792294,0.074944,-0.050999,-0.089923,-29.339661,10.259514,-1.347404,,,,,,,
1512177351.020837,-0.533074,0.400662,-2.126710,0.099710,0.126651,0.274001,-0.467936,-0.390028,-0.793040,0.040721,-0.052752,-0.109930,-29.564331,10.334175,-1.345467,,,,,,,
1512177351.040826,-0.532781,0.399923,-2.119757,0.135437,0.171504,0.307723,-0.467850,-0.389348,-0.793425,0.015976,-0.044429,-0.107973,-29.637268,10.784065,-1.269615,,,,,,,
1512177351.060815,-0.531172,0.399053,-2.113167,0.101089,0.203590,0.258296,-0.466744,-0.388546,-0.794468,0.058312,-0.012852,-0.063823,-29.561661,10.934181,-1.420189,,,,,,,
1512177351.080835,-0.529189,0.398528,-2.108958,0.055022,0.152485,0.141254,-0.465271,-0.388062,-0.795568,0.130661,0.020020,-0.014735,-29.336517,11.009514,-1.797066,,,,,,,
1512177351.100824,-0.527902,0.397692,-2.106917,-0.009327,0.058475,0.095220,-0.464410,-0.387292,-0.796446,0.170999,0.010247,-0.013460,-29.636551,11.009071,-1.869514,,,,,,,
1512177351.120843,-0.528118,0.396495,-2.105121,-0.002291,0.008234,0.118600,-0.464815,-0.386188,-0.796746,0.179278,-0.015927,-0.032799,-29.561783,10.934181,-1.645180,,,,,,,
1512177351.140832,-0.529205,0.394944,-2.101439,0.032945,0.014449,0.244928,-0.465982,-0.384756,-0.796756,0.127817,-0.068765,-0.079495,-29.410614,11.234413,-2.021324,,,,,,,
1512177351.160821,-0.531097,0.392523,-2.094387,0.077417,0.047334,0.393867,-0.467960,-0.382521,-0.796674,0.057651,-0.085619,-0.111178,-29.110840,11.159859,-1.798912,,,,,,,
1512177351.180841,-0.532564,0.390442,-2.086133,0.122757,0.072036,0.360495,-0.469531,-0.380598,-0.796670,0.053149,-0.021777,-0.067587,-29.258774,11.609642,-1.722420,,,,,,,
1512177351.200830,-0.533744,0.390576,-2.079709,0.179839,0.023317,0.193782,-0.470445,-0.380721,-0.796072,0.123918,0.039641,0.030676,-29.258820,11.609642,-1.797417,,,,,,,
1512177351.220849,-0.535404,0.392956,-2.075559,0.198778,-0.046928,0.075477,-0.471302,-0.382921,-0.794508,0.187488,0.039491,0.103163,-29.333145,11.759529,-1.796715,,,,,,,
1512177351.240838,-0.538240,0.395112,-2.072831,0.121254,-0.113228,0.054937,-0.473128,-0.384912,-0.792458,0.194930,0.011667,0.117974,-29.333435,11.684532,-1.721748,,,,,,,
1512177351.260858,-0.540823,0.395618,-2.070795,0.044094,-0.070670,0.081685,-0.475074,-0.385379,-0.791066,0.150840,-0.022947,0.084386,-29.556793,12.059196,-1.794670,,,,,,,
1512177351.280847,-0.541661,0.394814,-2.068442,0.017660,0.046674,0.138209,-0.475896,-0.384636,-0.790933,0.085546,-0.048485,0.026178,-29.332687,11.834526,-1.571678,,,,,,,
1512177351.300836,-0.540605,0.393291,-2.064228,0.054173,0.177889,0.258597,-0.475361,-0.383230,-0.791936,0.025761,-0.064936,-0.019328,-29.406342,12.134422,-1.570900,,,,,,,
1512177351.320856,-0.538427,0.391428,-2.056893,0.116206,0.282423,0.380322,-0.474001,-0.381509,-0.793581,0.011202,-0.056342,-0.047102,-29.331039,12.209526,-1.646507,,,,,,,
1512177351.340845,-0.535802,0.389393,-2.047486,0.139601,0.315436,0.450070,-0.472312,-0.379627,-0.795489,0.031027,-0.049618,-0.065061,-29.031906,12.059975,-2.024132,,,,,,,
1512177351.360864,-0.533545,0.386796,-2.037842,0.091895,0.274808,0.432181,-0.471015,-0.377223,-0.797399,0.051826,-0.027532,-0.090297,-28.880096,12.435204,-1.800224,,,,,,,
1512177351.380853,-0.531421,0.384659,-2.030972,0.062703,0.206741,0.259887,-0.469727,-0.375243,-0.799091,0.089966,-0.007279,-0.086484,-28.804794,12.585320,-2.550804,,,,,,,
1512177351.400842,-0.529090,0.384998,-2.027849,0.096107,0.154880,0.041648,-0.467799,-0.375558,-0.800073,0.144710,-0.000831,-0.076803,-28.654724,12.585548,-2.402077,,,,,,,
1512177351.420862,-0.526410,0.386912,-2.027549,0.077497,0.123003,-0.060010,-0.465291,-0.377331,-0.800701,0.192525,0.003841,-0.051746,-28.654358,12.660545,-2.327034,,,,,,,
1512177351.440851,-0.525343,0.388578,-2.027484,0.079751,-0.004212,-0.009250,-0.464121,-0.378873,-0.800653,0.206263,0.000714,-0.038657,-28.955170,12.510094,-2.624565,,,,,,,
1512177351.460870,-0.528090,0.389931,-2.024635,0.160211,-0.133648,0.148178,-0.466060,-0.380125,-0.798931,0.161388,-0.021776,-0.023121,-28.655777,12.360542,-2.477180,,,,,,,
1512177351.480859,-0.533520,0.390812,-2.017513,0.231694,-0.141394,0.337877,-0.470221,-0.380939,-0.796100,0.079596,-0.049572,-0.030774,-28.805847,12.360313,-2.625908,,,,,,,
1512177351.500879,-0.538298,0.390707,-2.007098,0.242537,0.003651,0.463268,-0.474039,-0.380842,-0.793879,0.024958,-0.078707,-0.050528,-28.579086,12.735649,-2.477638,,,,,,,
1512177351.520868,-0.539216,0.389054,-1.996087,0.146300,0.220292,0.491411,-0.475090,-0.379313,-0.793982,0.013253,-0.095556,-0.075479,-28.876282,13.335213,-2.249825,,,,,,,
1512177351.540857,-0.535870,0.385524,-1.987516,0.000898,0.352717,0.393819,-0.473112,-0.376045,-0.796713,0.069639,-0.076988,-0.097131,-28.201645,13.261223,-2.330589,,,,,,,
1512177351.560876,-0.530801,0.381824,-1.982546,-0.054194,0.304865,0.241474,-0.469769,-0.372613,-0.800296,0.152478,-0.036154,-0.104291,-27.900452,13.561668,-2.633003,,,,,,,
1512177351.580865,-0.527272,0.379926,-1.979774,0.008373,0.179139,0.125741,-0.467296,-0.370851,-0.802559,0.202267,-0.005888,-0.109688,-27.975555,13.561562,-2.857353,,,,,,,
1512177351.600885,-0.526155,0.379864,-1.977143,0.084169,0.051100,0.113604,-0.466411,-0.370794,-0.803100,0.190883,-0.006647,-0.123673,-28.577103,13.185661,-2.552437,,,,,,,
1512177351.620874,-0.528655,0.381300,-1.972968,0.215648,-0.110065,0.149063,-0.468149,-0.372128,-0.801471,0.128961,-0.003269,-0.091001,-28.424057,13.860893,-2.553398,,,,,,,
1512177351.640863,-0.534413,0.385041,-1.966076,0.380978,-0.179357,0.204519,-0.472043,-0.375597,-0.797558,0.048276,0.005343,-0.032428,-28.424362,13.785881,-2.478432,,,,,,,
1512177351.660882,-0.540792,0.389853,-1.957268,0.415475,-0.150544,0.247763,-0.476185,-0.380052,-0.792972,-0.008815,-0.006300,0.030186,-28.871582,14.385216,-2.324333,,,,,,,
1512177351.680871,-0.546121,0.392861,-1.948434,0.288995,-0.081399,0.292009,-0.479808,-0.382833,-0.789443,-0.059041,-0.025355,0.058165,-28.796661,14.385323,-2.474968,,,,,,,
1512177351.700869,-0.548969,0.392588,-1.940779,0.103200,0.048587,0.316419,-0.482109,-0.382581,-0.788162,-0.100975,-0.046084,0.033508,-28.343887,14.986015,-2.328514,,,,,,,
1512177351.720858,-0.548014,0.389501,-1.935622,-0.067067,0.209778,0.242024,-0.481969,-0.379727,-0.789627,-0.095546,-0.027087,-0.011429,-28.419220,14.910896,-2.327919,,,,,,,
1512177351.740847,-0.542054,0.386076,-1.934932,-0.150820,0.360689,0.027057,-0.477923,-0.376556,-0.793595,0.007784,0.004546,-0.032745,-28.344940,14.761009,-2.403618,,,,,,,
1512177351.760867,-0.532712,0.384524,-1.938438,-0.153132,0.413386,-0.152955,-0.470785,-0.375118,-0.798527,0.131445,0.002223,-0.021114,-28.196106,14.536232,-2.704994,,,,,,,
1512177351.780856,-0.523916,0.383289,-1.943327,-0.178810,0.303322,-0.152644,-0.463974,-0.373973,-0.803038,0.210709,0.008998,-0.033983,-28.198318,14.086220,-3.080193,,,,,,,
1512177351.800875,-0.518303,0.381273,-1.946539,-0.136332,0.164259,-0.020321,-0.459832,-0.372102,-0.806283,0.222527,0.005540,-0.069938,-28.048355,14.086449,-3.156471,,,,,,,
1512177351.820863,-0.517700,0.380239,-1.945212,0.078573,0.000859,0.127206,-0.459536,-0.371143,-0.806894,0.173876,0.021655,-0.080054,-28.049133,13.936455,-3.381538,,,,,,,
1512177351.840883,-0.520571,0.382543,-1.939110,0.330616,-0.034208,0.226679,-0.461424,-0.373281,-0.804827,0.092405,0.012944,-0.066419,-27.822693,14.236794,-3.158318,,,,,,,
1512177351.860873,-0.524171,0.386887,-1.928880,0.457737,0.053351,0.345028,-0.463502,-0.377308,-0.801749,0.050554,-0.028851,-0.016427,-27.897110,14.386681,-3.382607,,,,,,,
1512177351.880862,-0.525423,0.390255,-1.917058,0.373590,0.219727,0.413683,-0.463866,-0.380424,-0.800065,0.039290,-0.078484,-0.005462,-27.972977,14.236565,-3.757042,,,,,,,
1512177351.900881,-0.522647,0.389986,-1.906384,0.153598,0.379562,0.445167,-0.461694,-0.380175,-0.801438,0.055413,-0.114271,-0.034301,-27.748245,14.161903,-3.608986,,,,,,,
1512177351.920870,-0.517102,0.386642,-1.898866,-0.019315,0.400889,0.329733,-0.457868,-0.377080,-0.805087,0.118116,-0.081065,-0.078992,-27.522461,14.387245,-4.060799,,,,,,,
1512177351.940890,-0.511045,0.383955,-1.895484,-0.033185,0.331815,0.132067,-0.453478,-0.374590,-0.808726,0.173967,-0.003889,-0.096197,-27.375305,13.787468,-4.362343,,,,,,,
1512177351.960879,-0.506041,0.384088,-1.894121,0.077221,0.244601,0.026757,-0.449402,-0.374714,-0.810941,0.231842,0.025287,-0.082247,-27.298355,14.237572,-4.512779,,,,,,,
1512177351.980868,-0.502414,0.386370,-1.892039,0.167276,0.204085,0.058838,-0.446045,-0.376828,-0.811814,0.274246,0.037885,-0.061385,-27.297119,14.537575,-4.737633,,,,,,,
1512177352.000887,-0.500156,0.388385,-1.887346,0.200950,0.198491,0.214952,-0.443845,-0.378694,-0.812151,0.267591,0.018495,-0.056287,-27.522156,14.537239,-4.810722,,,,,,,
1512177352.020876,-0.499855,0.388831,-1.878256,0.239723,0.158569,0.447777,-0.443520,-0.379106,-0.812137,0.179054,-0.003813,-0.072583,-27.295288,14.987587,-5.112419,,,,,,,
1512177352.040896,-0.502003,0.388316,-1.865248,0.285451,0.103899,0.581508,-0.445357,-0.378630,-0.811353,0.068999,-0.008730,-0.089022,-27.293182,15.437584,-4.962212,,,,,,,
1512177352.060885,-0.505279,0.387619,-1.851166,0.280042,0.084650,0.584557,-0.448140,-0.377985,-0.810121,-0.011943,0.011485,-0.067199,-27.066055,15.887932,-4.738930,,,,,,,
1512177352.080873,-0.507745,0.386299,-1.838455,0.194934,0.145550,0.512110,-0.450379,-0.376763,-0.809448,-0.046569,0.023125,-0.048950,-26.915192,16.113152,-5.040092,,,,,,,
1512177352.100893,-0.507313,0.384924,-1.828913,0.132554,0.225882,0.355843,-0.450280,-0.375488,-0.810095,-0.010947,0.030396,-0.041635,-27.065033,16.187935,-5.413780,,,,,,,
1512177352.120882,-0.504619,0.384475,-1.823693,0.082802,0.225165,0.140843,-0.448177,-0.375073,-0.811453,0.072063,0.027127,-0.042841,-26.840302,16.113258,-5.265739,,,,,,,
1512177352.140902,-0.501735,0.385331,-1.821944,0.079414,0.141005,0.017900,-0.445681,-0.375866,-0.812460,0.137820,0.007473,-0.040781,-26.841797,15.813255,-5.565865,,,,,,,
1512177352.160891,-0.500866,0.387046,-1.820499,0.135638,0.024636,0.028970,-0.444665,-0.377454,-0.812280,0.159005,-0.013125,-0.041617,-27.140518,16.112816,-5.713173,,,,,,,
1512177352.180910,-0.503471,0.389683,-1.816746,0.247987,-0.109975,0.127143,-0.446297,-0.379895,-0.810245,0.145134,-0.044894,-0.032743,-27.065445,16.112923,-5.563820,,,,,,,
1512177352.200899,-0.509351,0.393116,-1.809959,0.331522,-0.206188,0.228227,-0.450415,-0.383068,-0.806463,0.104056,-0.059391,-0.013392,-27.364395,16.337471,-5.486168,,,,,,,
1512177352.220888,-0.517015,0.396413,-1.801852,0.320529,-0.244691,0.247125,-0.455955,-0.386112,-0.801885,0.056847,-0.043301,0.019216,-27.215485,16.112709,-5.637550,,,,,,,
1512177352.240908,-0.522727,0.398699,-1.794882,0.207022,-0.101678,0.219323,-0.460087,-0.388220,-0.798500,0.011982,-0.025415,0.031639,-27.289017,16.412590,-5.411766,,,,,,,
1512177352.260897,-0.523571,0.398024,-1.790128,0.003679,0.122346,0.213960,-0.460891,-0.387598,-0.798338,-0.026337,0.000071,0.022368,-26.913315,16.563148,-5.339882,,,,,,,
1512177352.280917,-0.519597,0.394190,-1.787025,-0.145770,0.301532,0.234805,-0.458450,-0.384060,-0.801448,-0.030579,0.017864,-0.016896,-26.613617,16.488609,-5.267479,,,,,,,
1512177352.300906,-0.513596,0.389478,-1.784736,-0.145943,0.361454,0.183841,-0.454516,-0.379706,-0.805752,0.003970,0.035101,-0.042897,-26.837067,16.863274,-5.565376,,,,,,,
1512177352.320895,-0.506799,0.386420,-1.783405,-0.089242,0.356352,0.106822,-0.449590,-0.376875,-0.809834,0.066289,0.027479,-0.052364,-25.708847,17.239967,-2.499794,,,,,,,
1512177352.340914,-0.501475,0.384347,-1.782383,-0.065537,0.236790,0.085428,-0.445648,-0.374954,-0.812899,0.131591,0.024886,-0.050641,-26.233704,17.314171,-2.870277,,,,,,,
1512177352.360903,-0.499389,0.382327,-1.780962,-0.044981,0.079723,0.124625,-0.444312,-0.373080,-0.814491,0.144004,0.030642,-0.071465,-26.234070,17.314171,-3.620277,,,,,,,
1512177352.380923,-0.500203,0.380523,-1.777569,0.031361,0.005964,0.210759,-0.445297,-0.371406,-0.814718,0.097626,0.029014,-0.098536,-26.009750,17.164513,-3.622261,,,,,,,
1512177352.400912,-0.501712,0.379531,-1.772317,0.101225,0.030575,0.241705,-0.446703,-0.370485,-0.814368,0.056002,0.018068,-0.105676,-26.159256,17.314293,-3.995918,,,,,,,
1512177352.420931,-0.502293,0.379697,-1.767142,0.136357,0.064930,0.181568,-0.447146,-0.370639,-0.814054,0.058322,0.005237,-0.085024,-26.234375,17.314171,-4.220284,,,,,,,
1512177352.440920,-0.501580,0.380709,-1.763535,0.118523,0.104585,0.101494,-0.446386,-0.371579,-0.814043,0.093633,0.012463,-0.052793,-26.609863,17.238609,-4.517128,,,,,,,
1512177352.460909,-0.499883,0.381242,-1.760898,0.067305,0.123726,0.105082,-0.444908,-0.372073,-0.814626,0.129723,0.027301,-0.023097,-25.934296,17.389626,-4.747795,,,,,,,
1512177352.480929,-0.498292,0.380593,-1.757999,0.030211,0.119298,0.156768,-0.443727,-0.371471,-0.815544,0.126375,0.036953,-0.024879,-26.159027,17.464287,-4.895851,,,,,,,
1512177352.500918,-0.497228,0.379451,-1.754115,0.058267,0.102162,0.199756,-0.443061,-0.370411,-0.816388,0.104789,0.032764,-0.042636,-26.159927,17.239281,-4.670937,,,,,,,
1512177352.520936,-0.497166,0.379296,-1.749179,0.133727,0.078752,0.212494,-0.443038,-0.370267,-0.816466,0.086578,0.035550,-0.048692,-25.784973,17.239845,-4.749138,,,,,,,
1512177352.540926,-0.497486,0.379745,-1.743272,0.161893,0.089400,0.250250,-0.443220,-0.370683,-0.816179,0.062559,0.027879,-0.043532,-26.232269,17.839180,-4.745033,,,,,,,
1512177352.560915,-0.497775,0.379671,-1.736684,0.132599,0.088224,0.280736,-0.443469,-0.370615,-0.816074,0.034549,0.015833,-0.044338,-26.158401,17.614281,-4.970772,,,,,,,
1512177352.580935,-0.497762,0.378949,-1.730861,0.087556,0.107482,0.234314,-0.443586,-0.369945,-0.816315,0.016706,0.028575,-0.050216,-25.782990,17.689857,-4.823921,,,,,,,
1512177352.600924,-0.496698,0.378208,-1.726552,0.060810,0.126784,0.176427,-0.442848,-0.369255,-0.817027,0.034111,0.028176,-0.056523,-25.708282,17.614967,-4.749596,,,,,,,
1512177352.620943,-0.495351,0.377636,-1.723334,0.045572,0.110824,0.129241,-0.441847,-0.368724,-0.817809,0.064070,0.050609,-0.056184,-25.482269,17.840309,-4.751411,,,,,,,
1512177352.640932,-0.494253,0.377430,-1.720764,0.060893,0.087402,0.104865,-0.440985,-0.368533,-0.818360,0.084417,0.058489,-0.056014,-25.256287,18.065636,-4.828209,,,,,,,
1512177352.660921,-0.493809,0.377807,-1.717883,0.099051,0.061794,0.115985,-0.440555,-0.368883,-0.818434,0.082050,0.052492,-0.057207,-25.480988,18.140297,-4.901268,,,,,,,
1512177352.680941,-0.494022,0.378585,-1.714217,0.128486,0.052178,0.140899,-0.440593,-0.369606,-0.818087,0.062266,0.041466,-0.051313,-25.632004,17.915077,-4.900093,,,,,,,
1512177352.700892,-0.494526,0.379361,-1.710045,0.134629,0.032935,0.155848,-0.440869,-0.370327,-0.817612,0.042691,0.036785,-0.044799,-25.332123,17.915520,-5.127647,,,,,,,
1512177352.720912,-0.495006,0.379977,-1.706069,0.111401,0.040397,0.141675,-0.441154,-0.370899,-0.817199,0.029884,0.040973,-0.034455,-25.482712,17.765297,-4.976448,,,,,,,
1512177352.740901,-0.494936,0.380052,-1.702874,0.063781,0.059596,0.121865,-0.441083,-0.370968,-0.817206,0.038190,0.047864,-0.024560,-25.705017,18.364967,-4.974251,,,,,,,
1512177352.760921,-0.494337,0.379667,-1.700594,0.031246,0.059606,0.090477,-0.440661,-0.370611,-0.817595,0.051516,0.049734,-0.031007,-25.556442,18.065193,-5.125664,,,,,,,
1512177352.780910,-0.493954,0.379678,-1.698886,0.054108,0.040473,0.060893,-0.440346,-0.370622,-0.817761,0.066978,0.049989,-0.026462,-25.330170,18.365532,-5.277443,,,,,,,
1512177352.800899,-0.493844,0.380096,-1.696760,0.075955,0.035100,0.093171,-0.440182,-0.371010,-0.817673,0.068295,0.032066,-0.026550,-25.556824,17.990196,-5.200691,,,,,,,
1512177352.820919,-0.494221,0.380113,-1.693728,0.067700,0.031788,0.141013,-0.440488,-0.371025,-0.817501,0.052411,0.023064,-0.035999,-25.331436,18.065529,-5.127586,,,,,,,
1512177352.840908,-0.494354,0.379358,-1.689886,0.051944,0.079731,0.194256,-0.440729,-0.370325,-0.817689,0.027781,0.016778,-0.050582,-25.254044,18.590645,-5.052971,,,,,,,
1512177352.860926,-0.493435,0.377866,-1.685490,0.023890,0.138394,0.217507,-0.440239,-0.368938,-0.818579,0.013710,0.034709,-0.070825,-25.254379,18.515648,-5.053001,,,,,,,
1512177352.880915,-0.491138,0.376220,-1.682220,-0.006741,0.192982,0.138365,-0.438643,-0.367407,-0.820123,0.024947,0.065634,-0.064658,-25.254608,18.440651,-4.828041,,,,,,,
1512177352.900904,-0.487644,0.375310,-1.680688,0.005246,0.191021,0.057510,-0.435931,-0.366561,-0.821945,0.076159,0.078918,-0.036133,-25.256149,18.140648,-5.203178,,,,,,,
1512177352.920924,-0.484385,0.375453,-1.680150,0.025203,0.150553,0.008618,-0.433226,-0.366694,-0.823315,0.141814,0.091243,-0.010044,-24.956070,18.141090,-5.055733,,,,,,,
1512177352.940913,-0.482943,0.375523,-1.679161,0.034828,0.052182,0.067051,-0.432027,-0.366759,-0.823916,0.154668,0.064009,-0.018750,-24.958160,17.691093,-5.205940,,,,,,,
1512177352.960932,-0.483714,0.375289,-1.676195,0.076990,-0.005615,0.158076,-0.432702,-0.366542,-0.823659,0.114174,0.031382,-0.050883,-25.406174,18.140419,-5.276909,,,,,,,
1512177352.980922,-0.485018,0.374986,-1.671678,0.098530,0.028493,0.210742,-0.433827,-0.366260,-0.823192,0.050969,0.014301,-0.084065,-24.653702,18.666542,-5.058037,,,,,,,
1512177353.000942,-0.485684,0.374338,-1.666218,0.098951,0.064730,0.251383,-0.434486,-0.365656,-0.823113,0.004752,0.015406,-0.095115,-24.506210,18.141762,-5.359550,,,,,,,
1512177353.020931,-0.485752,0.373734,-1.660981,0.094316,0.069081,0.209756,-0.434644,-0.365095,-0.823278,-0.002352,0.052335,-0.067972,-24.878143,18.816216,-5.281059,,,,,,,
1512177353.040920,-0.485650,0.374155,-1.657327,0.108830,0.050083,0.104360,-0.434489,-0.365486,-0.823186,0.031901,0.110192,-0.010203,-24.579086,18.591652,-5.133705,,,,,,,
1512177353.060939,-0.485817,0.375767,-1.655183,0.132433,-0.005278,0.027753,-0.434351,-0.366986,-0.822592,0.081644,0.111355,0.042608,-24.503250,18.816765,-5.509239,,,,,,,
1512177353.080927,-0.487375,0.378013,-1.653773,0.132920,-0.090664,-0.005584,-0.435244,-0.369075,-0.821184,0.105639,0.093104,0.077577,-24.803223,18.816322,-5.431694,,,,,,,
1512177353.100947,-0.490311,0.380084,-1.652363,0.118521,-0.127062,0.026066,-0.437293,-0.370998,-0.819226,0.103492,0.041805,0.081571,-25.027649,18.965981,-5.654716,,,,,,,
1512177353.120936,-0.492922,0.379957,-1.649696,0.009543,-0.049547,0.172935,-0.439453,-0.370880,-0.818123,0.041260,-0.022385,0.022362,-24.953140,18.816093,-5.280418,,,,,,,
1512177353.140925,-0.493771,0.375575,-1.645517,-0.153788,0.086637,0.322423,-0.440913,-0.366808,-0.819173,-0.051412,-0.036787,-0.068217,-24.727386,18.966438,-5.132271,,,,,,,
1512177353.160944,-0.491334,0.368636,-1.641275,-0.224086,0.257434,0.327330,-0.440106,-0.360344,-0.822469,-0.110187,0.001106,-0.149073,-24.350632,19.342003,-4.985283,,,,,,,
1512177353.180934,-0.485549,0.362558,-1.638518,-0.186799,0.372027,0.204604,-0.436355,-0.354667,-0.826924,-0.071854,0.074119,-0.173549,-24.275406,19.417107,-5.210884,,,,,,,
1512177353.200953,-0.478394,0.359372,-1.637584,-0.077913,0.346834,0.065375,-0.430945,-0.351687,-0.831023,0.028922,0.129213,-0.134309,-23.748077,19.942909,-5.290108,,,,,,,
1512177353.220942,-0.473641,0.359384,-1.637242,0.058520,0.165591,-0.006837,-0.426988,-0.351698,-0.833059,0.107271,0.150587,-0.065425,-24.125519,19.417336,-5.437157,,,,,,,
1512177353.240932,-0.473941,0.361656,-1.636454,0.144912,-0.097026,-0.022491,-0.426872,-0.353823,-0.832218,0.110115,0.125292,-0.035077,-24.049622,19.642448,-5.662697,,,,,,,
1512177353.260952,-0.478623,0.364582,-1.635115,0.171153,-0.252980,-0.005598,-0.430286,-0.356559,-0.829287,0.034793,0.068656,-0.035444,-24.350143,19.491997,-5.360207,,,,,,,
1512177353.280941,-0.484877,0.367203,-1.632850,0.169042,-0.278738,0.057182,-0.435026,-0.359007,-0.825750,-0.047029,0.038328,-0.035776,-24.649017,19.716545,-5.132561,,,,,,,
1512177353.300960,-0.490676,0.369066,-1.629892,0.144212,-0.213657,0.079437,-0.439491,-0.360744,-0.822622,-0.090156,0.043148,-0.019678,-24.198685,19.792229,-5.136345,,,,,,,
1512177353.320948,-0.494394,0.370461,-1.627591,0.104345,-0.113242,0.045094,-0.442308,-0.362045,-0.820539,-0.077940,0.063385,0.015912,-24.348450,19.866997,-5.360039,,,,,,,
1512177353.340968,-0.495532,0.371349,-1.626914,0.033093,-0.019206,-0.024903,-0.443088,-0.362873,-0.819752,-0.025204,0.082721,0.044483,-24.124130,19.717339,-5.362022,,,,,,,
1512177353.360957,-0.494484,0.371721,-1.628564,-0.044483,0.038503,-0.102586,-0.442165,-0.363220,-0.820097,0.036617,0.074554,0.054579,-24.125183,19.492332,-5.437111,,,,,,,
1512177353.380946,-0.492970,0.371296,-1.631463,-0.093376,0.016020,-0.111899,-0.440995,-0.362823,-0.820901,0.084275,0.063278,0.034952,-24.274872,19.567116,-5.510811,,,,,,,
1512177353.400965,-0.492063,0.370255,-1.633868,-0.092324,0.007347,-0.046884,-0.440429,-0.361853,-0.821633,0.092056,0.036581,-0.014396,-24.126190,19.267342,-5.437218,,,,,,,
1512177353.420954,-0.491529,0.368579,-1.633739,-0.046777,0.045578,0.102091,-0.440276,-0.360291,-0.822402,0.061767,-0.002655,-0.081148,-24.126572,19.192329,-5.512260,,,,,,,
1512177353.440974,-0.491928,0.366668,-1.629759,0.040168,0.052874,0.260086,-0.440928,-0.358507,-0.822832,0.002269,-0.030913,-0.146742,-23.826721,19.117790,-5.139839,,,,,,,
1512177353.460963,-0.492927,0.365190,-1.623397,0.100333,0.064645,0.297245,-0.442001,-0.357127,-0.822856,-0.041657,0.017771,-0.170735,-23.675858,19.343010,-5.441017,,,,,,,
1512177353.480953,-0.493572,0.365696,-1.617321,0.198027,0.068205,0.190999,-0.442446,-0.357599,-0.822412,-0.017729,0.086923,-0.116385,-23.450775,19.343346,-5.292931,,,,,,,
1512177353.500972,-0.493871,0.369182,-1.613430,0.258592,0.030205,0.007316,-0.442098,-0.360852,-0.821177,0.058187,0.144651,-0.023550,-23.675064,19.493019,-5.215935,,,,,,,
1512177353.520961,-0.494968,0.374593,-1.612271,0.266842,-0.092393,-0.111324,-0.442065,-0.365893,-0.818961,0.115496,0.117328,0.051337,-23.749985,19.567894,-5.740273,,,,,,,
1512177353.540981,-0.498739,0.379672,-1.611281,0.231512,-0.216487,-0.042971,-0.444254,-0.370616,-0.815646,0.105784,0.065089,0.078921,-23.824280,19.717796,-5.664574,,,,,,,
1512177353.560970,-0.504808,0.382249,-1.608555,0.150210,-0.269246,0.099580,-0.448733,-0.373008,-0.812096,0.039386,0.021354,0.058114,-23.751190,19.267891,-5.440407,,,,,,,
1512177353.580988,-0.510879,0.382446,-1.604197,0.098518,-0.180854,0.201486,-0.453619,-0.373191,-0.809293,-0.050257,-0.001885,0.021619,-23.750961,19.342903,-5.665382,,,,,,,
1512177353.600977,-0.514158,0.381639,-1.599186,0.078121,-0.011072,0.218840,-0.456419,-0.372442,-0.808063,-0.113146,0.015890,0.011340,-23.749832,19.567894,-5.440269,,,,,,,
1512177353.620966,-0.512996,0.380780,-1.595537,0.024273,0.199448,0.132440,-0.455636,-0.371644,-0.808871,-0.094840,0.043107,0.037585,-23.375519,19.418465,-5.443520,,,,,,,
1512177353.640986,-0.507312,0.379451,-1.594916,-0.088713,0.329841,0.008660,-0.451271,-0.370410,-0.811879,0.001640,0.067279,0.059513,-23.148193,19.943810,-5.520195,,,,,,,
1512177353.660975,-0.499797,0.377458,-1.597612,-0.177644,0.316022,-0.093951,-0.445509,-0.368559,-0.815894,0.102400,0.081373,0.063300,-23.450394,19.493355,-5.892860,,,,,,,
1512177353.680995,-0.492699,0.374884,-1.601295,-0.193136,0.260382,-0.063459,-0.440155,-0.366165,-0.819868,0.159820,0.066208,0.027815,-23.375443,19.493462,-5.968498,,,,,,,
1512177353.700965,-0.487931,0.371642,-1.602181,-0.140720,0.202426,0.117265,-0.436795,-0.363146,-0.823002,0.142315,0.019945,-0.046062,-23.152496,19.043800,-6.045616,,,,,,,
1512177353.720954,-0.486042,0.367687,-1.598269,-0.056781,0.142324,0.325087,-0.435906,-0.359458,-0.825089,0.053216,-0.016259,-0.139190,-23.075287,19.493919,-5.671043,,,,,,,
1512177353.740973,-0.486211,0.364029,-1.591026,0.027255,0.113468,0.399764,-0.436658,-0.356042,-0.826172,-0.044315,0.001153,-0.199310,-22.698792,19.794472,-5.374092,,,,,,,
1512177353.760962,-0.486688,0.362019,-1.583254,0.115779,0.103052,0.331715,-0.437385,-0.354163,-0.826595,-0.076485,0.058997,-0.185673,-22.247177,20.170158,-5.527748,,,,,,,
1512177353.780982,-0.487773,0.363389,-1.577620,0.222777,0.002176,0.109041,-0.438054,-0.355444,-0.825690,-0.026484,0.113577,-0.116311,-22.247131,20.170158,-5.452736,,,,,,,
1512177353.800972,-0.490600,0.368637,-1.575441,0.300833,-0.167117,-0.106824,-0.439501,-0.360344,-0.822792,0.041705,0.110939,-0.020485,-22.471985,20.244820,-5.825798,,,,,,,
1512177353.820961,-0.495176,0.374952,-1.576042,0.232935,-0.282413,-0.197761,-0.442172,-0.366228,-0.818753,0.039310,0.101046,0.036008,-22.547394,20.169701,-5.975197,,,,,,,
1512177353.840980,-0.500389,0.379299,-1.577907,0.113966,-0.289077,-0.158996,-0.445666,-0.370270,-0.815033,-0.004819,0.062317,0.039520,-22.547241,20.169701,-5.675194,,,,,,,
1512177353.860969,-0.505090,0.381568,-1.578731,0.082312,-0.234871,-0.047331,-0.449085,-0.372376,-0.812191,-0.059582,0.038270,0.033276,-22.848267,19.944252,-5.672752,,,,,,,
1512177353.880989,-0.509539,0.382905,-1.577696,0.082077,-0.181624,0.033870,-0.452451,-0.373616,-0.809750,-0.088427,0.053105,0.048123,-22.773636,19.869362,-5.748421,,,,,,,
1512177353.900977,-0.513128,0.383758,-1.575963,0.075512,-0.126114,0.046760,-0.455197,-0.374408,-0.807843,-0.056171,0.067707,0.092251,-22.699615,19.644478,-5.674171,,,,,,,
1512177353.920996,-0.515193,0.384487,-1.575141,0.031805,-0.064100,-0.014420,-0.456730,-0.375084,-0.806663,0.013417,0.070030,0.135505,-22.698181,19.944481,-5.524025,,,,,,,
1512177353.940985,-0.514860,0.384011,-1.576449,-0.113678,0.026529,-0.044999,-0.456549,-0.374642,-0.806971,0.081427,0.043557,0.124918,-22.922256,20.169136,-5.672005,,,,,,,
1512177353.960974,-0.512388,0.380073,-1.579067,-0.295945,0.101970,0.022988,-0.455273,-0.370988,-0.809377,0.095288,0.007676,0.047627,-22.473679,19.869820,-5.825966,,,,,,,
1512177353.980994,-0.508576,0.373146,-1.581262,-0.364485,0.181802,0.109687,-0.453425,-0.364547,-0.813331,0.060877,-0.005266,-0.080467,-22.099350,19.720375,-5.829216,,,,,,,
1512177354.000983,-0.503370,0.366151,-1.581994,-0.279780,0.284399,0.149648,-0.450404,-0.358024,-0.817895,0.039790,-0.004067,-0.138526,-21.724609,19.645943,-5.682457,,,,,,,
1512177354.021003,-0.497748,0.361761,-1.580743,-0.086882,0.296434,0.153550,-0.446545,-0.353922,-0.821787,0.043209,0.036203,-0.212637,-21.724609,19.645943,-5.682457,,,,,,,
1512177354.040992,-0.494813,0.361371,-1.577945,0.121725,0.116338,0.101580,-0.444196,-0.353557,-0.823216,0.059537,0.066997,-0.175060,-21.723328,19.945946,-5.832314,,,,,,,
1512177354.060981,-0.497044,0.364557,-1.574136,0.273261,-0.133349,0.079452,-0.445492,-0.356535,-0.821228,0.023754,0.087095,-0.112823,-21.797363,20.170830,-5.906563,,,,,,,
1512177354.081001,-0.502850,0.369055,-1.569382,0.311412,-0.227307,0.089275,-0.449475,-0.360734,-0.817214,-0.052524,0.101838,-0.065735,-21.872055,20.245720,-5.980888,,,,,,,
1512177354.100990,-0.509789,0.373841,-1.564757,0.322576,-0.294522,0.055087,-0.454287,-0.365194,-0.812559,-0.102933,0.096090,-0.013552,-22.245712,20.545158,-5.977562,,,,,,,
1512177354.121008,-0.517970,0.379678,-1.561208,0.338937,-0.368023,-0.035546,-0.459856,-0.370621,-0.806950,-0.116957,0.107621,0.065052,-22.319702,20.770042,-5.976830,,,,,,,
1512177354.140998,-0.526185,0.385955,-1.559348,0.290910,-0.378661,-0.098114,-0.465292,-0.376444,-0.801117,-0.078729,0.093714,0.147156,-22.320374,20.620049,-5.976891,,,,,,,
1512177354.161017,-0.533467,0.390347,-1.559057,0.124626,-0.335121,-0.097173,-0.470268,-0.380509,-0.796277,-0.042320,0.085969,0.190289,-22.395676,20.544930,-5.901299,,,,,,,
1512177354.181006,-0.537527,0.391029,-1.560967,-0.102461,-0.162435,-0.087067,-0.473364,-0.381140,-0.794138,-0.035898,0.037405,0.148432,-22.321350,20.395042,-5.902000,,,,,,,
1512177354.200995,-0.536106,0.387557,-1.564528,-0.304659,0.111672,-0.030409,-0.472908,-0.377928,-0.795942,-0.058860,-0.005800,0.046553,-22.396347,20.394936,-5.901360,,,,,,,
1512177354.221015,-0.528900,0.380916,-1.568774,-0.420168,0.381676,0.005101,-0.468417,-0.371771,-0.801479,-0.053525,-0.024591,-0.062245,-22.170975,20.470268,-5.828239,,,,,,,
1512177354.241004,-0.517184,0.373691,-1.573740,-0.415026,0.542005,-0.040106,-0.460311,-0.365054,-0.809226,0.007949,-0.003919,-0.141778,-21.722885,20.095940,-6.282234,,,,,,,
1512177354.261024,-0.504703,0.368391,-1.578639,-0.288480,0.501695,-0.088522,-0.451105,-0.360114,-0.816590,0.114923,0.042548,-0.162948,-21.871719,20.320717,-5.980858,,,,,,,
1512177354.281013,-0.496365,0.366398,-1.582376,-0.088991,0.229652,-0.110031,-0.444621,-0.358255,-0.820952,0.202739,0.110529,-0.143343,-21.722580,20.170937,-6.357201,,,,,,,
1512177354.301002,-0.496214,0.368633,-1.582948,0.196325,-0.136437,-0.038939,-0.444114,-0.360340,-0.820313,0.218834,0.124943,-0.098647,-21.647964,20.096046,-6.432884,,,,,,,
1512177354.321022,-0.503971,0.374149,-1.578256,0.417413,-0.382093,0.117988,-0.449497,-0.365481,-0.815090,0.122959,0.087191,-0.064365,-21.948929,19.870598,-6.355431,,,,,,,
1512177354.341011,-0.516146,0.380504,-1.569926,0.474416,-0.482607,0.211208,-0.458233,-0.371389,-0.807521,-0.005803,0.053853,-0.036916,-21.647919,20.096046,-6.357872,,,,,,,
1512177354.361029,-0.528900,0.386159,-1.560820,0.439095,-0.444227,0.221490,-0.467427,-0.376633,-0.799785,-0.101238,0.022797,-0.008366,-21.722137,20.245949,-6.132164,,,,,,,
1512177354.381018,-0.539189,0.390966,-1.553367,0.334007,-0.316032,0.136197,-0.474695,-0.381082,-0.793370,-0.133184,0.030267,0.031133,-21.871231,20.470726,-6.355797,,,,,,,
1512177354.401038,-0.543980,0.393855,-1.550106,0.112360,-0.091805,0.012235,-0.477919,-0.383751,-0.790142,-0.106981,0.028237,0.055050,-21.646835,20.321053,-6.207771,,,,,,,
1512177354.421027,-0.542924,0.393740,-1.551276,-0.117465,0.101353,-0.069309,-0.477107,-0.383645,-0.790684,-0.042866,0.023125,0.034687,-21.721939,20.320946,-6.432137,,,,,,,
1512177354.441016,-0.538096,0.390700,-1.555363,-0.274912,0.189803,-0.085142,-0.473880,-0.380836,-0.793976,-0.002301,0.049781,-0.021194,-22.097580,20.170372,-6.354012,,,,,,,
1512177354.461035,-0.532932,0.386817,-1.559320,-0.226619,0.167359,-0.040811,-0.470522,-0.377243,-0.797680,0.016817,0.059768,-0.068760,-21.796463,20.395836,-6.131462,,,,,,,
1512177354.481025,-0.530767,0.384750,-1.560828,-0.058938,0.035073,-0.002601,-0.469187,-0.375327,-0.799368,0.017084,0.099860,-0.078425,-21.644806,20.771065,-6.207558,,,,,,,
1512177354.501045,-0.533081,0.386012,-1.560069,0.149058,-0.158984,-0.018383,-0.470794,-0.376497,-0.797872,0.014022,0.132829,-0.014918,-21.872467,20.170723,-6.130928,,,,,,,
1512177354.521034,-0.538026,0.390583,-1.558401,0.273579,-0.235588,-0.073343,-0.473848,-0.380727,-0.794047,0.043413,0.139745,0.074962,-21.871490,20.395714,-6.205818,,,,,,,
1512177354.541023,-0.543437,0.395832,-1.557008,0.242708,-0.245246,-0.077024,-0.477097,-0.385576,-0.789750,0.084900,0.092470,0.138169,-22.322281,20.245049,-6.427071,,,,,,,
1512177354.561042,-0.548263,0.398381,-1.555586,0.076591,-0.194464,0.043343,-0.480389,-0.387926,-0.786597,0.069500,0.015536,0.117561,-22.022995,20.095497,-6.504677,,,,,,,
1512177354.581030,-0.551305,0.395564,-1.553948,-0.161159,-0.069050,0.179988,-0.483350,-0.385329,-0.786060,-0.014056,-0.039537,0.007434,-22.174530,19.720268,-6.203590,,,,,,,
1512177354.601050,-0.549959,0.388908,-1.553164,-0.297609,0.182810,0.191679,-0.483622,-0.379179,-0.788879,-0.084295,-0.039523,-0.127732,-21.722992,20.020943,-5.832268,,,,,,,
1512177354.621039,-0.543234,0.382651,-1.554349,-0.269648,0.366855,0.057338,-0.479522,-0.373381,-0.794129,-0.043748,0.021773,-0.191344,-21.272018,20.246620,-5.911003,,,,,,,
1512177354.641028,-0.535498,0.380523,-1.556983,-0.066576,0.286302,-0.108441,-0.473769,-0.371407,-0.798496,0.087066,0.096657,-0.146938,-21.422394,20.171394,-5.984749,,,,,,,
1512177354.661048,-0.533021,0.383744,-1.558736,0.189817,-0.041146,-0.157036,-0.471179,-0.374395,-0.798633,0.180957,0.127828,-0.066327,-21.647507,20.171059,-6.207848,,,,,,,
1512177354.681037,-0.538276,0.389763,-1.557529,0.329766,-0.337014,-0.060092,-0.474206,-0.379969,-0.794197,0.149773,0.093928,-0.016075,-22.024307,19.795494,-6.429832,,,,,,,
1512177354.701043,-0.548352,0.395239,-1.552722,0.348051,-0.439887,0.118913,-0.481092,-0.385029,-0.787591,0.012220,0.039539,-0.010932,-22.547958,20.094704,-6.425224,,,,,,,
1512177354.721032,-0.559563,0.398500,-1.545390,0.299356,-0.391047,0.229245,-0.489222,-0.388036,-0.781080,-0.143118,0.020925,-0.006655,-22.246841,20.320152,-6.202675,,,,,,,
1512177354.741052,-0.567534,0.400482,-1.538774,0.213093,-0.178487,0.170103,-0.495018,-0.389862,-0.776505,-0.216332,0.043091,0.021638,-22.247589,20.170158,-6.352745,,,,,,,
1512177354.761041,-0.569523,0.402022,-1.535447,0.100379,0.043799,0.034923,-0.496237,-0.391280,-0.775013,-0.155191,0.051939,0.086140,-22.097168,20.245384,-6.203987,,,,,,,
1512177354.781030,-0.566613,0.402279,-1.536502,-0.093540,0.163393,-0.095400,-0.493926,-0.391516,-0.776368,-0.038102,0.068045,0.120591,-22.398666,19.944923,-6.501564,,,,,,,
1512177354.801049,-0.559938,0.399884,-1.541807,-0.311057,0.268923,-0.152554,-0.489229,-0.389312,-0.780440,0.050890,0.032867,0.073241,-22.398331,20.019920,-6.501534,,,,,,,
1512177354.821038,-0.550618,0.394025,-1.548970,-0.476836,0.374350,-0.114077,-0.483120,-0.383908,-0.786896,0.080623,0.026089,-0.031539,-22.400177,19.644920,-6.801704,,,,,,,
1512177354.841058,-0.538474,0.386436,-1.556379,-0.490165,0.502436,-0.075447,-0.475008,-0.376890,-0.795184,0.085665,0.006483,-0.148969,-21.874802,19.720711,-6.731133,,,,,,,
1512177354.861047,-0.526851,0.379776,-1.561157,-0.322106,0.460864,0.009996,-0.466986,-0.370712,-0.802803,0.122595,0.030548,-0.212456,-21.875092,19.645714,-6.656166,,,,,,,
1512177354.881036,-0.519998,0.376710,-1.561999,-0.044901,0.224046,0.061161,-0.462036,-0.367863,-0.806967,0.151611,0.080418,-0.199640,-22.100845,19.495369,-6.804329,,,,,,,
1512177354.901055,-0.521180,0.378084,-1.558751,0.239551,-0.130278,0.119483,-0.462737,-0.369141,-0.805981,0.141433,0.113953,-0.129383,-22.176605,19.345253,-6.953758,,,,,,,
1512177354.921044,-0.529355,0.383116,-1.552172,0.429846,-0.358628,0.139565,-0.468367,-0.373812,-0.800558,0.084990,0.119799,-0.045420,-22.325027,19.720039,-7.177315,,,,,,,
1512177354.941064,-0.540131,0.389695,-1.544795,0.449373,-0.410890,0.117282,-0.475691,-0.379906,-0.793338,0.026015,0.083153,0.027835,-22.174576,19.795265,-6.953545,,,,,,,
1512177354.961053,-0.550033,0.395108,-1.538847,0.317925,-0.339436,0.076184,-0.482442,-0.384908,-0.786824,-0.017482,0.042867,0.057484,-22.549683,19.794701,-7.175362,,,,,,,
1512177354.981072,-0.555990,0.397949,-1.535450,0.130850,-0.165554,0.051693,-0.486541,-0.387529,-0.783004,-0.046906,0.009080,0.063308,-22.551041,19.494698,-7.175499,,,,,,,
1512177355.001061,-0.557075,0.397781,-1.534809,-0.064482,0.037180,0.011188,-0.487425,-0.387374,-0.782531,-0.023760,0.025313,0.057357,-22.701935,19.269478,-6.949318,,,,,,,
1512177355.021050,-0.553168,0.395027,-1.537098,-0.221481,0.195114,-0.027847,-0.484923,-0.384833,-0.785334,0.037901,0.046103,0.023707,-22.625931,19.494591,-6.949852,,,,,,,
1512177355.041070,-0.547938,0.391234,-1.540040,-0.218689,0.196137,-0.003285,-0.481566,-0.381329,-0.789100,0.085387,0.050549,-0.013116,-22.852951,19.044243,-6.948158,,,,,,,
1512177355.061059,-0.544750,0.387663,-1.541066,-0.150973,0.110603,0.088013,-0.479749,-0.378026,-0.791791,0.065641,0.043721,-0.065021,-22.624878,19.719582,-6.874763,,,,,,,
1512177355.081079,-0.544159,0.384764,-1.539549,-0.050805,0.041199,0.152122,-0.479847,-0.375341,-0.793008,0.010792,0.043050,-0.104864,-22.473892,19.944817,-6.950920,,,,,,,
1512177355.101068,-0.544938,0.383311,-1.536628,0.046348,0.002914,0.141670,-0.480747,-0.373993,-0.793100,-0.034969,0.069718,-0.099387,-22.024078,19.870491,-6.654793,,,,,,,
1512177355.121057,-0.546133,0.384054,-1.533561,0.144366,-0.013910,0.079065,-0.481550,-0.374682,-0.792287,-0.031908,0.087832,-0.041682,-22.549652,19.719704,-6.425407,,,,,,,
1512177355.141076,-0.547959,0.386154,-1.530796,0.159804,-0.078978,0.044949,-0.482585,-0.376628,-0.790733,0.003001,0.081813,0.020866,-22.548264,20.019707,-6.350258,,,,,,,
1512177355.161065,-0.550161,0.387751,-1.529255,0.075155,-0.085445,0.005318,-0.484010,-0.378108,-0.789155,0.023927,0.058817,0.052186,-22.173447,20.020271,-6.728447,,,,,,,
1512177355.181085,-0.550943,0.387262,-1.529295,-0.066626,-0.007683,0.009936,-0.484724,-0.377654,-0.788934,0.022550,0.030120,0.029977,-22.099762,19.720375,-6.654213,,,,,,,
1512177355.201074,-0.548945,0.384287,-1.530742,-0.194541,0.113884,0.014901,-0.483731,-0.374898,-0.790855,0.018627,0.015081,-0.029793,-22.251373,19.345146,-6.503120,,,,,,,
1512177355.221063,-0.544921,0.380234,-1.532948,-0.216819,0.187560,0.011635,-0.481328,-0.371138,-0.794089,0.041386,0.027830,-0.078745,-22.401077,19.419930,-6.576805,,,,,,,
1512177355.241082,-0.540361,0.376964,-1.534447,-0.138178,0.196200,0.027732,-0.478324,-0.368099,-0.797311,0.077201,0.055630,-0.096777,-22.175735,19.495262,-6.578682,,,,,,,
1512177355.261071,-0.536890,0.375556,-1.534776,-0.021911,0.138708,0.020688,-0.475818,-0.366790,-0.799411,0.122958,0.070175,-0.078793,-22.101715,19.270378,-6.504433,,,,,,,
1512177355.281091,-0.536226,0.376056,-1.533545,0.091544,-0.001116,0.050627,-0.475193,-0.367255,-0.799569,0.142078,0.064963,-0.047400,-22.325287,19.570030,-6.352379,,,,,,,
1512177355.301080,-0.538828,0.377192,-1.530657,0.133189,-0.116527,0.105196,-0.477058,-0.368311,-0.797972,0.088889,0.062510,-0.034761,-22.552048,19.194695,-6.500633,,,,,,,
1512177355.321099,-0.542350,0.378042,-1.526574,0.144018,-0.087774,0.161958,-0.479703,-0.369101,-0.796018,0.017789,0.038092,-0.027697,-22.324615,19.720039,-6.352318,,,,,,,
1512177355.341088,-0.544096,0.378071,-1.521833,0.105114,0.031727,0.199120,-0.481086,-0.369129,-0.795170,-0.032250,0.030506,-0.028636,-22.399948,19.644920,-6.351707,,,,,,,
1512177355.361077,-0.543657,0.376959,-1.517660,0.039172,0.091453,0.191973,-0.480949,-0.368095,-0.795732,-0.047112,0.020210,-0.037337,-21.949280,19.795601,-6.355461,,,,,,,
1512177355.381097,-0.542556,0.375163,-1.514858,-0.025864,0.109642,0.129265,-0.480414,-0.366424,-0.796826,-0.025247,0.068588,-0.036304,-22.098602,19.945381,-6.354118,,,,,,,
1512177355.401086,-0.539809,0.373613,-1.514028,-0.044669,0.150378,0.043852,-0.478515,-0.364981,-0.798629,0.030379,0.057669,-0.033845,-21.874527,19.720711,-6.206139,,,,,,,
1512177355.421105,-0.536982,0.372570,-1.514589,-0.063932,0.108804,-0.019474,-0.476449,-0.364011,-0.800305,0.069757,0.048764,-0.063922,-22.324539,19.720039,-6.202309,,,,,,,
1512177355.441094,-0.535328,0.371521,-1.515638,-0.062086,0.044690,-0.004743,-0.475320,-0.363033,-0.801420,0.062249,0.037365,-0.091417,-21.950317,19.570595,-6.430580,,,,,,,
1512177355.461083,-0.534980,0.370617,-1.515150,0.007121,0.023298,0.064414,-0.475208,-0.362191,-0.801868,0.038715,0.048500,-0.106427,-21.949905,19.645607,-6.280540,,,,,,,
1512177355.481103,-0.535826,0.370759,-1.512775,0.110991,-0.021475,0.098811,-0.475860,-0.362323,-0.801421,0.030456,0.069019,-0.067033,-22.023895,19.870491,-6.279793,,,,,,,
1512177355.501092,-0.538208,0.372666,-1.509060,0.202523,-0.084374,0.104180,-0.477413,-0.364100,-0.799690,0.033702,0.067698,-0.004448,-21.874191,19.795708,-6.206108,,,,,,,
1512177355.521111,-0.541294,0.374619,-1.504898,0.162709,-0.082341,0.127065,-0.479510,-0.365918,-0.797603,0.013461,0.040631,0.020595,-22.173187,20.020271,-6.203453,,,,,,,
1512177355.541100,-0.543068,0.374205,-1.501672,0.003866,0.003932,0.131461,-0.481003,-0.365532,-0.796880,-0.025192,0.025139,-0.000513,-21.647812,20.096046,-6.132881,,,,,,,
1512177355.561120,-0.540893,0.371611,-1.501150,-0.132223,0.163041,0.052220,-0.479755,-0.363117,-0.798735,-0.016018,0.021381,-0.041368,-21.721466,20.395943,-6.132103,,,,,,,
1512177355.581109,-0.536009,0.368630,-1.503093,-0.177624,0.217630,-0.035662,-0.476399,-0.360338,-0.801995,0.050343,0.057756,-0.056189,-21.799500,19.720833,-6.131783,,,,,,,
1512177355.601098,-0.530763,0.366716,-1.506116,-0.122335,0.188981,-0.093597,-0.472534,-0.358552,-0.805076,0.122284,0.085511,-0.038460,-21.647583,20.171059,-6.357841,,,,,,,
1512177355.621118,-0.527810,0.366873,-1.508556,-0.001861,0.053518,-0.100851,-0.470126,-0.358698,-0.806420,0.184619,0.104410,0.000222,-21.648178,20.021049,-6.207909,,,,,,,
1512177355.641107,-0.528509,0.368268,-1.508696,0.087925,-0.089693,0.007626,-0.470437,-0.360000,-0.805658,0.175378,0.082946,0.019251,-21.796494,20.395836,-6.206459,,,,,,,
1512177355.661126,-0.532157,0.369447,-1.505881,0.133991,-0.141124,0.120048,-0.473157,-0.361100,-0.803571,0.096097,0.048127,0.009473,-21.871048,20.470726,-5.980797,,,,,,,
1512177355.681115,-0.536062,0.370017,-1.501132,0.138968,-0.088948,0.208785,-0.476186,-0.361631,-0.801540,0.008870,0.018842,-0.003041,-21.871353,20.395714,-5.905830,,,,,,,
1512177355.701074,-0.538108,0.369506,-1.495590,0.099100,0.041253,0.241711,-0.477919,-0.361155,-0.800722,-0.041459,0.022792,-0.026838,-21.497391,20.171272,-5.984123,,,,,,,
1512177355.721094,-0.536639,0.368132,-1.490842,0.034659,0.207845,0.213638,-0.476996,-0.359873,-0.801849,-0.022668,0.025217,-0.039276,-21.194992,20.696739,-5.911430,,,,,,,
1512177355.741083,-0.532976,0.366317,-1.487603,-0.017668,0.231378,0.155393,-0.474386,-0.358179,-0.804152,0.034415,0.032389,-0.051850,-21.194397,20.846733,-6.061363,,,,,,,
1512177355.761101,-0.529579,0.364305,-1.485974,-0.059352,0.169477,0.093807,-0.472016,-0.356300,-0.806379,0.068054,0.054054,-0.077517,-20.970108,20.697075,-6.138344,,,,,,,
1512177355.781090,-0.527848,0.363018,-1.485148,-0.006403,0.058560,0.045149,-0.470849,-0.355098,-0.807591,0.089379,0.060923,-0.080806,-20.894424,20.847191,-6.138908,,,,,,,
1512177355.801111,-0.528441,0.363628,-1.484332,0.078517,-0.055505,-0.001986,-0.471219,-0.355668,-0.807124,0.101621,0.075364,-0.062062,-20.743530,21.072411,-6.365074,,,,,,,
1512177355.821100,-0.531136,0.365781,-1.483218,0.148928,-0.154731,-0.010910,-0.473004,-0.357679,-0.805189,0.112591,0.058210,-0.010546,-20.891434,21.522194,-6.213585,,,,,,,
1512177355.841089,-0.535158,0.368283,-1.481576,0.144283,-0.186822,0.011301,-0.475780,-0.360014,-0.802508,0.106151,0.039716,0.016803,-20.966583,21.522072,-6.512947,,,,,,,
1512177355.861108,-0.538726,0.369435,-1.480052,0.064863,-0.141081,0.045489,-0.478427,-0.361089,-0.800449,0.085331,0.018300,0.020191,-20.741470,21.522408,-6.289864,,,,,,,
1512177355.881097,-0.540375,0.368684,-1.478327,-0.013107,-0.003561,0.125858,-0.479886,-0.360388,-0.799891,0.047025,-0.002847,-0.009527,-20.967438,21.297081,-6.213051,,,,,,,
1512177355.901117,-0.539710,0.365668,-1.475159,-0.058683,0.117908,0.245019,-0.479911,-0.357573,-0.801139,0.013694,-0.001939,-0.042657,-20.890900,21.672188,-6.513512,,,,,,,
1512177355.921106,-0.538206,0.362325,-1.471064,-0.028742,0.153213,0.241312,-0.479315,-0.354450,-0.802882,0.010351,0.020633,-0.068929,-21.189255,22.121742,-7.260765,,,,,,,
1512177355.941095,-0.535605,0.359898,-1.467345,-0.009906,0.212068,0.200210,-0.477663,-0.352179,-0.804863,0.024935,0.036215,-0.077873,-20.739899,22.047417,-7.864616,,,,,,,
1512177355.961113,-0.532014,0.357980,-1.464113,-0.006128,0.223896,0.166194,-0.475111,-0.350383,-0.807154,0.061217,0.030314,-0.080084,-20.891541,21.672188,-7.788521,,,,,,,
1512177355.981102,-0.529265,0.356588,-1.461978,-0.012551,0.132154,0.098620,-0.473137,-0.349079,-0.808877,0.096489,0.039524,-0.076057,-20.965195,21.972084,-7.787743,,,,,,,
1512177356.001122,-0.528818,0.355682,-1.460602,0.011188,-0.014107,0.073935,-0.472935,-0.348230,-0.809361,0.108051,0.040124,-0.063686,-20.664520,22.122536,-7.790230,,,,,,,
1512177356.021111,-0.531136,0.355443,-1.458779,0.054612,-0.123020,0.085912,-0.474851,-0.348006,-0.808334,0.079176,0.057921,-0.060791,-20.962463,22.572075,-7.712456,,,,,,,
1512177356.041101,-0.534267,0.355580,-1.456004,0.089147,-0.103819,0.125923,-0.477356,-0.348135,-0.806802,0.034363,0.048482,-0.059439,-21.413101,22.421410,-7.633705,,,,,,,
1512177356.061121,-0.536794,0.356022,-1.452440,0.116845,-0.056780,0.129688,-0.479314,-0.348548,-0.805462,0.022908,0.032737,-0.044453,-20.961441,22.797081,-7.712364,,,,,,,
1512177356.081110,-0.538283,0.356856,-1.449677,0.095561,-0.032119,0.063367,-0.480363,-0.349330,-0.804497,0.036180,0.026866,-0.015266,-21.036224,22.871971,-7.936684,,,,,,,
1512177356.101129,-0.538552,0.357407,-1.448772,0.025003,-0.002216,0.012344,-0.480481,-0.349846,-0.804203,0.059171,0.017586,0.003055,-21.186523,22.796745,-7.860451,,,,,,,
1512177356.121118,-0.538424,0.356574,-1.448651,-0.051117,0.010441,0.040073,-0.480527,-0.349066,-0.804514,0.061018,0.019995,-0.002935,-21.411224,22.871407,-7.933510,,,,,,,
1512177356.141138,-0.537744,0.354369,-1.447838,-0.074877,0.062572,0.125192,-0.480374,-0.346998,-0.805499,0.028485,0.031904,-0.037030,-21.485214,23.096291,-7.932762,,,,,,,
1512177356.161127,-0.536541,0.351732,-1.445029,-0.011120,0.125534,0.205223,-0.479870,-0.344524,-0.806861,0.005901,0.030696,-0.057702,-21.335464,23.021523,-7.784065,,,,,,,
1512177356.181116,-0.534909,0.350389,-1.440879,0.070130,0.154524,0.192642,-0.478788,-0.343263,-0.808040,0.014585,0.036730,-0.042225,-20.884415,23.247200,-7.712791,,,,,,,
1512177356.201135,-0.533005,0.350028,-1.437172,0.063513,0.145005,0.141344,-0.477312,-0.342924,-0.809057,0.040682,0.037794,-0.011057,-20.959076,23.322090,-7.712120,,,,,,,
1512177356.221123,-0.531186,0.349322,-1.435057,-0.001622,0.115114,0.081663,-0.475962,-0.342261,-0.810132,0.070994,0.045157,0.006848,-20.733749,23.397423,-7.713997,,,,,,,
1512177356.241143,-0.529099,0.347803,-1.434245,-0.059028,0.109702,0.071216,-0.474532,-0.340833,-0.811571,0.069930,0.035490,-0.014616,-21.034988,23.171974,-8.161552,,,,,,,
1512177356.261132,-0.526765,0.345936,-1.433602,-0.056870,0.142820,0.071363,-0.472955,-0.339077,-0.813226,0.071161,0.032345,-0.037269,-20.959229,23.322090,-8.012123,,,,,,,
1512177356.281121,-0.523749,0.344196,-1.432612,-0.040181,0.172708,0.095162,-0.470795,-0.337440,-0.815158,0.079209,0.030509,-0.049542,-20.808289,23.547310,-8.163292,,,,,,,
1512177356.301141,-0.520482,0.342685,-1.430718,-0.005516,0.197267,0.127732,-0.468382,-0.336017,-0.817133,0.090819,0.025455,-0.055395,-20.508362,23.547768,-8.315834,,,,,,,
1512177356.321130,-0.517384,0.341411,-1.428152,0.015652,0.188736,0.136537,-0.466060,-0.334817,-0.818952,0.115703,0.026208,-0.047289,-20.435318,23.097878,-8.166679,,,,,,,
1512177356.341150,-0.514855,0.340404,-1.425405,0.024007,0.149208,0.145049,-0.464153,-0.333868,-0.820421,0.126400,0.033315,-0.041472,-20.434418,23.322868,-8.391579,,,,,,,
1512177356.361139,-0.513091,0.339272,-1.422362,0.026961,0.125686,0.158870,-0.462890,-0.332801,-0.821567,0.122985,0.042258,-0.044247,-20.209335,23.323219,-8.243492,,,,,,,
1512177356.381158,-0.511543,0.338195,-1.418719,0.051982,0.134201,0.193375,-0.461794,-0.331785,-0.822595,0.099046,0.033964,-0.063071,-20.433029,23.622871,-8.316444,,,,,,,
1512177356.401147,-0.509792,0.337409,-1.414065,0.087729,0.163034,0.224909,-0.460479,-0.331044,-0.823630,0.070541,0.015202,-0.084177,-20.357620,23.697990,-8.167046,,,,,,,
1512177356.421136,-0.507643,0.336464,-1.408760,0.079750,0.192868,0.257946,-0.458860,-0.330151,-0.824891,0.056349,0.016263,-0.089675,-20.283371,23.548103,-8.317741,,,,,,,
1512177356.441156,-0.504914,0.335098,-1.403169,0.075396,0.219551,0.264370,-0.456826,-0.328862,-0.826533,0.063668,0.038868,-0.078847,-19.757507,23.773888,-8.622093,,,,,,,
1512177356.461144,-0.502124,0.334407,-1.398201,0.095728,0.193019,0.194214,-0.454627,-0.328209,-0.828004,0.110816,0.054054,-0.053435,-19.604767,24.374107,-8.548103,,,,,,,
1512177356.481164,-0.500173,0.334493,-1.394707,0.075505,0.104468,0.123253,-0.452997,-0.328291,-0.828865,0.150369,0.048277,-0.036339,-19.607422,23.774117,-8.473381,,,,,,,
1512177356.501153,-0.500079,0.334307,-1.391904,0.057222,0.009358,0.127987,-0.452948,-0.328115,-0.828960,0.156379,0.039067,-0.032749,-19.381607,23.999458,-8.850182,,,,,,,
1512177356.521142,-0.501295,0.334347,-1.388479,0.109144,-0.020507,0.145692,-0.453949,-0.328153,-0.828398,0.147919,0.044431,-0.021517,-19.605820,24.149117,-8.623207,,,,,,,
1512177356.541162,-0.502514,0.335162,-1.384176,0.148044,0.012600,0.180486,-0.454830,-0.328922,-0.827609,0.124783,0.026371,-0.012494,-19.981186,24.073555,-8.695061,,,,,,,
1512177356.561151,-0.503108,0.335096,-1.378613,0.109421,0.082878,0.263323,-0.455332,-0.328860,-0.827358,0.096873,0.010928,-0.019307,-19.679123,24.523994,-8.622398,,,,,,,
1512177356.581171,-0.501829,0.333446,-1.372335,0.060475,0.180950,0.326917,-0.454534,-0.327301,-0.828414,0.006017,-0.027618,-0.088166,-19.230469,24.224678,-8.626350,,,,,,,
1512177356.601160,-0.498675,0.330692,-1.365348,0.037473,0.288720,0.369602,-0.452349,-0.324697,-0.830632,-0.011427,0.002050,-0.109767,-19.228455,24.674675,-8.626152,,,,,,,
1512177356.621179,-0.494298,0.328099,-1.358724,0.043783,0.318750,0.311163,-0.449106,-0.322244,-0.833342,0.014368,0.048196,-0.111390,-19.076157,25.199898,-8.777184,,,,,,,
1512177356.641168,-0.490290,0.326898,-1.353491,0.083803,0.235699,0.208048,-0.445945,-0.321107,-0.835477,0.066062,0.082856,-0.063281,-18.477432,24.900795,-8.632423,,,,,,,
1512177356.661157,-0.488419,0.327873,-1.350055,0.130525,0.096086,0.083512,-0.444234,-0.322030,-0.836033,0.132893,0.068582,-0.017819,-19.151535,25.124779,-8.851570,,,,,,,
1512177356.681177,-0.488641,0.328720,-1.347369,0.072487,-0.007666,0.106828,-0.444291,-0.322832,-0.835693,0.140824,0.076875,0.007797,-18.925934,25.275124,-9.003426,,,,,,,
1512177356.701151,-0.489799,0.328147,-1.344853,0.022098,-0.025935,0.123091,-0.445345,-0.322289,-0.835341,0.093356,0.041482,-0.021150,-18.925598,25.350121,-9.003380,,,,,,,
1512177356.721170,-0.490775,0.326990,-1.341857,0.036323,0.012453,0.167138,-0.446335,-0.321194,-0.835234,0.029542,0.029400,-0.039583,-18.775528,25.350349,-8.854652,,,,,,,
1512177356.741158,-0.490297,0.326160,-1.338019,0.064816,0.107520,0.189202,-0.446061,-0.320408,-0.835682,0.015001,0.033497,-0.046672,-18.926193,25.200127,-8.853447,,,,,,,
1512177356.761147,-0.488018,0.325158,-1.333848,0.046502,0.184377,0.205198,-0.444306,-0.319458,-0.836980,0.053391,0.032822,-0.040111,-18.474884,25.500801,-8.932137,,,,,,,
1512177356.781168,-0.485454,0.323651,-1.329996,0.008401,0.173669,0.187550,-0.442383,-0.318030,-0.838541,0.101929,0.035620,-0.054785,-18.175003,25.501244,-9.159691,,,,,,,
1512177356.801157,-0.483214,0.322047,-1.326829,0.008825,0.144877,0.159736,-0.440741,-0.316509,-0.839981,0.137610,0.045162,-0.071244,-18.102020,25.051353,-9.160530,,,,,,,
1512177356.821176,-0.481760,0.321797,-1.323576,0.101983,0.107694,0.134310,-0.439555,-0.316272,-0.840691,0.169551,0.041523,-0.069054,-17.876053,25.276695,-9.237343,,,,,,,
1512177356.841165,-0.481396,0.323024,-1.319638,0.162495,0.058621,0.146741,-0.439069,-0.317436,-0.840506,0.194837,0.031425,-0.048868,-17.801453,25.201805,-9.388008,,,,,,,
1512177356.861154,-0.482088,0.324136,-1.314652,0.159252,0.015756,0.211573,-0.439487,-0.318490,-0.839889,0.174747,0.009271,-0.045945,-17.952179,25.051582,-9.461815,,,,,,,
1512177356.881174,-0.483312,0.324303,-1.308507,0.142088,0.038019,0.283894,-0.440490,-0.318648,-0.839303,0.115005,0.005278,-0.059440,-18.100708,25.351357,-9.235390,,,,,,,
1512177356.901163,-0.483466,0.323376,-1.301035,0.127940,0.128623,0.370354,-0.440756,-0.317770,-0.839497,0.044698,0.009527,-0.082272,-17.574066,25.727150,-9.314690,,,,,,,
1512177356.921182,-0.481701,0.322234,-1.292741,0.142946,0.223722,0.370906,-0.439442,-0.316686,-0.840594,0.003926,0.007971,-0.099576,-17.499802,25.577263,-9.465401,,,,,,,
1512177356.941171,-0.478832,0.321693,-1.285294,0.134472,0.245203,0.303695,-0.437107,-0.316173,-0.842004,0.021274,0.037685,-0.079551,-17.273987,25.727592,-9.167244,,,,,,,
1512177356.961191,-0.475458,0.321145,-1.279622,0.080277,0.245267,0.228285,-0.434343,-0.315653,-0.843627,0.051851,0.067683,-0.075165,-16.897827,26.028160,-9.545280,,,,,,,
1512177356.981180,-0.472123,0.320494,-1.275183,0.071203,0.215407,0.195000,-0.431620,-0.315035,-0.845254,0.074015,0.064165,-0.075583,-16.672821,26.028496,-9.547203,,,,,,,
1512177357.001168,-0.469991,0.320322,-1.270888,0.099221,0.140723,0.173828,-0.429841,-0.314872,-0.846221,0.081880,0.062080,-0.083222,-16.748230,25.953392,-9.696602,,,,,,,
1512177357.021188,-0.469535,0.320913,-1.266581,0.135342,0.049970,0.176164,-0.429371,-0.315433,-0.846251,0.059987,0.038959,-0.084307,-16.525711,25.428719,-9.923744,,,,,,,
1512177357.041178,-0.470796,0.321839,-1.261385,0.166834,0.018984,0.204230,-0.430305,-0.316312,-0.845448,0.044624,0.050519,-0.071712,-16.523682,25.878731,-9.923546,,,,,,,
