timestamp(unix),attitude_roll(radians),attitude_pitch(radians),attitude_yaw(radians),rotation_rate_x(radians/s),rotation_rate_y(radians/s),rotation_rate_z(radians/s),gravity_x(G),gravity_y(G),gravity_z(G),user_acc_x(G),user_acc_y(G),user_acc_z(G),magnetic_field_x(microteslas),magnetic_field_y(microteslas),magnetic_field_z(microteslas),latitude(degree),longitude(degree),altitude(meter),speed(m/s),course(degree),timestamp(unix),User Mark
1512176723.345829,0.259540,0.863166,0.970700,-0.042751,-0.036208,0.010481,0.166822,-0.759904,-0.628264,-0.014204,0.014787,-0.021181,4.347321,-18.264961,-20.623009,,,,,,,
1512176723.365848,0.258979,0.863259,0.971402,0.000671,0.009755,0.030460,0.166451,-0.759965,-0.628289,-0.008065,0.006776,-0.016212,4.046692,-18.415413,-20.545540,,,,,,,
1512176723.385837,0.258501,0.863137,0.972327,-0.029064,0.006521,0.023623,0.166175,-0.759886,-0.628458,0.001778,-0.000399,-0.003958,4.198044,-18.115181,-20.546669,,,,,,,
1512176723.405857,0.257301,0.862325,0.973181,-0.053436,-0.047976,0.011351,0.165577,-0.759358,-0.629253,0.013912,-0.006756,-0.007374,4.273041,-18.115074,-20.547310,,,,,,,
1512176723.425846,0.255763,0.861349,0.973684,-0.044714,-0.052210,-0.000263,0.164797,-0.758722,-0.630224,0.010389,-0.001334,0.003515,3.969177,-18.940529,-20.845146,,,,,,,
1512176723.445835,0.254598,0.860854,0.973708,-0.010465,-0.062825,-0.009400,0.164157,-0.758400,-0.630779,0.014904,0.008888,-0.010945,3.895889,-18.565636,-20.769325,,,,,,,
1512176723.465854,0.253847,0.861033,0.973476,0.019349,-0.020056,-0.004552,0.163650,-0.758516,-0.630771,-0.008270,0.013567,0.007678,4.118423,-19.090294,-20.996483,,,,,,,
1512176723.485844,0.254259,0.861265,0.973197,-0.001984,0.018357,-0.002598,0.163866,-0.758667,-0.630533,-0.008668,0.010269,0.019358,3.672287,-18.265968,-20.692284,,,,,,,
1512176723.505863,0.253969,0.860448,0.973524,-0.058584,-0.031937,0.001740,0.163838,-0.758134,-0.631181,0.009547,0.012025,-0.005767,4.122360,-18.265297,-20.546104,,,,,,,
1512176723.525852,0.252202,0.859552,0.974220,-0.035420,-0.059706,0.017970,0.162892,-0.757550,-0.632126,-0.001393,0.005826,-0.008911,4.044891,-18.790413,-20.770714,,,,,,,
1512176723.545841,0.251386,0.859515,0.974686,0.010563,-0.003014,0.011369,0.162383,-0.757526,-0.632286,-0.009261,0.005771,-0.002556,3.597916,-18.116081,-20.766579,,,,,,,
1512176723.565861,0.251173,0.859699,0.974844,-0.001056,-0.013697,0.004769,0.162214,-0.757646,-0.632186,0.002688,0.000306,-0.007340,3.897324,-18.265633,-20.619194,,,,,,,
1512176723.585850,0.250792,0.859404,0.975003,-0.022277,-0.006240,-0.000843,0.162028,-0.757454,-0.632464,-0.005366,0.005439,0.004748,3.823715,-17.965736,-20.543419,,,,,,,
1512176723.605869,0.250558,0.858986,0.975242,-0.019219,-0.009455,0.007720,0.161958,-0.757181,-0.632809,0.009962,0.003747,-0.003681,3.973114,-18.115517,-20.394768,,,,,,,
1512176723.625858,0.249413,0.858760,0.975960,-0.013106,-0.041527,0.022619,0.161277,-0.757033,-0.633160,0.008447,0.010176,-0.003361,4.274048,-17.890068,-20.547203,,,,,,,
1512176723.645847,0.247921,0.858778,0.976526,0.001948,-0.063916,0.014232,0.160328,-0.757045,-0.633386,0.001858,0.009212,-0.004218,3.822281,-18.265755,-20.693550,,,,,,,
1512176723.665867,0.246848,0.858852,0.976640,0.004367,-0.030767,-0.001608,0.159635,-0.757093,-0.633504,-0.007367,0.006056,0.006688,3.820938,-18.565758,-20.693687,,,,,,,
1512176723.685856,0.246651,0.858877,0.976450,-0.002001,-0.012618,-0.002705,0.159505,-0.757109,-0.633517,-0.002324,0.003646,0.004351,3.672546,-18.190971,-20.842247,,,,,,,
1512176723.705875,0.246433,0.858646,0.976456,-0.014741,-0.008354,-0.005004,0.159410,-0.756959,-0.633721,-0.000474,0.003007,0.001412,3.596390,-18.491081,-20.466743,,,,,,,
1512176723.725864,0.246286,0.858216,0.976545,-0.025516,-0.006253,0.001241,0.159396,-0.756677,-0.634060,0.009244,0.003702,0.004834,4.198441,-18.040184,-20.396645,,,,,,,
1512176723.745853,0.245520,0.857669,0.976999,-0.032048,-0.026573,0.008538,0.159011,-0.756319,-0.634584,-0.001083,0.011645,0.003724,3.749130,-17.890862,-20.392738,,,,,,,
1512176723.765873,0.244832,0.857084,0.977268,-0.027636,-0.021206,0.000093,0.158682,-0.755937,-0.635122,0.002238,0.009324,0.000417,3.973755,-17.965523,-20.469688,,,,,,,
1512176723.785862,0.244219,0.856780,0.977443,-0.012744,-0.022252,0.002439,0.158347,-0.755738,-0.635442,-0.003989,0.010102,-0.000819,3.671982,-18.340965,-20.617317,,,,,,,
1512176723.805881,0.244121,0.856582,0.977612,-0.008546,0.020466,0.007976,0.158321,-0.755608,-0.635603,-0.009396,0.010430,0.004118,3.595978,-18.566093,-20.616783,,,,,,,
1512176723.825870,0.245102,0.856832,0.978110,0.025393,0.079243,0.021466,0.158899,-0.755772,-0.635263,-0.004389,0.017277,-0.027060,3.898041,-18.115639,-20.544121,,,,,,,
1512176723.845859,0.245843,0.858171,0.978879,0.078183,0.060039,0.052015,0.159124,-0.756648,-0.634163,0.000712,0.019664,-0.041709,3.897736,-18.190636,-20.469154,,,,,,,
1512176723.865879,0.245993,0.861099,0.979557,0.178468,0.006796,0.044754,0.158678,-0.758559,-0.631988,-0.021471,0.037704,-0.063218,3.598114,-18.116081,-20.391579,,,,,,,
1512176723.885868,0.247155,0.865491,0.978855,0.240668,0.049660,0.024483,0.158596,-0.761414,-0.628567,-0.020305,0.025330,-0.024997,3.671341,-18.490974,-20.542381,,,,,,,
1512176723.905887,0.250338,0.870705,0.976461,0.296147,0.086188,-0.041751,0.159610,-0.764783,-0.624204,-0.050342,0.054288,-0.029284,4.121414,-18.490303,-20.396202,,,,,,,
1512176723.925876,0.256731,0.876726,0.969438,0.407818,-0.048937,-0.226097,0.162425,-0.768649,-0.618706,-0.075404,0.124285,-0.128822,3.971542,-18.490517,-20.169930,,,,,,,
1512176723.945865,0.269709,0.884658,0.954966,0.540937,0.162990,-0.336432,0.168811,-0.773698,-0.610650,-0.011463,0.010652,0.002908,4.270569,-18.715080,-20.097588,,,,,,,
1512176723.965885,0.281388,0.893498,0.943185,0.493437,0.130553,-0.171991,0.174025,-0.779269,-0.602043,0.052477,-0.024900,0.064262,4.643646,-19.164513,-19.875984,,,,,,,
1512176723.985874,0.289039,0.900340,0.936231,0.320589,0.084212,-0.101100,0.177102,-0.783538,-0.595569,0.013861,-0.015366,0.085239,4.642532,-19.464516,-19.426125,,,,,,,
1512176724.005894,0.294892,0.903117,0.930027,0.119372,0.018909,-0.185263,0.179952,-0.785261,-0.592438,-0.013677,0.012479,0.069825,4.867264,-19.464180,-19.953026,,,,,,,
1512176724.025883,0.301343,0.902613,0.922457,0.011659,0.034889,-0.246467,0.183887,-0.784948,-0.591643,-0.004047,-0.003656,0.059721,5.242493,-19.463615,-19.506218,,,,,,,
1512176724.045872,0.307921,0.900877,0.915715,-0.034888,0.075317,-0.202229,0.188188,-0.783872,-0.591718,0.013671,-0.015078,0.007764,5.318344,-19.313499,-19.131798,,,,,,,
1512176724.065891,0.312721,0.899471,0.910922,-0.006983,0.035736,-0.150791,0.191365,-0.782998,-0.591856,0.010295,0.005715,-0.059297,5.393723,-19.238396,-19.057396,,,,,,,
1512176724.085880,0.317366,0.899482,0.905538,0.089294,0.024172,-0.171825,0.194109,-0.783005,-0.590953,-0.009646,0.021103,-0.068242,5.467941,-19.388283,-19.283104,,,,,,,
1512176724.105900,0.324719,0.901901,0.898398,0.243742,0.135482,-0.157469,0.197844,-0.784507,-0.587713,-0.003096,-0.000893,-0.042125,5.616623,-19.688057,-19.209511,,,,,,,
1512176724.125889,0.333861,0.907371,0.891322,0.375069,0.187912,-0.103149,0.201799,-0.787888,-0.581816,0.009596,0.011246,-0.037035,6.062393,-20.587379,-19.588753,,,,,,,
1512176724.145878,0.343665,0.914246,0.883541,0.409435,0.180518,-0.118668,0.205664,-0.792103,-0.574696,0.013132,0.001697,-0.002162,6.290802,-19.912041,-18.840355,,,,,,,
1512176724.165851,0.352751,0.920221,0.876162,0.318387,0.136536,-0.094554,0.209239,-0.795735,-0.568352,0.031774,-0.026012,0.038323,6.590469,-19.986595,-18.842934,,,,,,,
1512176724.185840,0.357726,0.923868,0.871434,0.168400,0.019794,-0.055558,0.211046,-0.797939,-0.564582,0.034239,-0.013340,0.041206,6.288071,-20.512047,-18.915642,,,,,,,
1512176724.205860,0.359570,0.925602,0.868654,0.088279,-0.026274,-0.047283,0.211599,-0.798983,-0.562896,0.012644,0.001589,0.044082,6.288452,-20.437050,-18.840599,,,,,,,
1512176724.225849,0.361231,0.926316,0.866519,0.043486,0.022790,-0.043496,0.212332,-0.799412,-0.562010,0.007959,-0.002392,0.047270,6.588928,-20.361595,-18.543114,,,,,,,
1512176724.245838,0.363292,0.926663,0.865414,0.015278,0.069682,-0.011761,0.213392,-0.799621,-0.561312,0.011737,-0.013322,0.017641,6.737839,-20.586372,-18.694496,,,,,,,
1512176724.265857,0.364948,0.926481,0.865007,-0.019831,0.064294,-0.016553,0.214373,-0.799511,-0.561094,0.005338,-0.004856,0.004682,6.439560,-20.211815,-18.616768,,,,,,,
1512176724.285846,0.366715,0.925888,0.864180,-0.016122,0.045135,-0.048548,0.215534,-0.799155,-0.561156,-0.006000,0.019675,-0.000245,7.038895,-20.360924,-18.621941,,,,,,,
1512176724.305866,0.369597,0.925555,0.861780,0.022685,0.066608,-0.073497,0.217246,-0.798955,-0.560781,-0.000388,0.015828,-0.001002,6.964310,-20.286034,-18.471260,,,,,,,
1512176724.325855,0.373287,0.926232,0.859493,0.075425,0.111480,-0.037397,0.219117,-0.799362,-0.559471,-0.005173,0.008956,-0.018440,7.039230,-20.285927,-18.621910,,,,,,,
1512176724.345844,0.378075,0.928015,0.857309,0.121149,0.182030,-0.026895,0.221267,-0.800431,-0.557091,-0.018630,0.019273,-0.015633,6.961685,-20.811043,-18.996513,,,,,,,
1512176724.365863,0.383649,0.930174,0.855638,0.099232,0.212904,0.011275,0.223721,-0.801724,-0.554245,0.013675,-0.017337,0.021973,6.964005,-20.361031,-18.396309,,,,,,,
1512176724.385852,0.385368,0.930647,0.856294,-0.049342,0.035320,0.025558,0.224531,-0.802006,-0.553508,0.041552,-0.030193,0.010707,7.190094,-20.135689,-18.248116,,,,,,,
1512176724.405872,0.381699,0.928034,0.858323,-0.183409,-0.169926,0.000516,0.223279,-0.800443,-0.556271,0.042865,-0.027255,-0.022815,7.190063,-20.135689,-18.323112,,,,,,,
1512176724.425861,0.376485,0.925093,0.860324,-0.106745,-0.158068,0.007000,0.221239,-0.798677,-0.559614,0.017912,-0.018950,-0.055681,6.738892,-20.361366,-18.619392,,,,,,,
1512176724.445850,0.374585,0.925703,0.860762,0.092309,-0.034972,0.030565,0.219997,-0.799044,-0.559580,0.008305,-0.008192,-0.016424,6.589905,-20.136589,-18.618019,,,,,,,
1512176724.465870,0.374588,0.927774,0.860046,0.074546,-0.036022,0.008984,0.219393,-0.800287,-0.558038,-0.012332,0.006769,0.046991,6.511414,-20.886711,-18.842720,,,,,,,
1512176724.485859,0.373215,0.927309,0.860122,-0.084072,-0.102464,-0.008473,0.218763,-0.800009,-0.558685,0.003833,0.002096,0.052017,6.889908,-20.136147,-18.620567,,,,,,,
1512176724.505878,0.368477,0.923888,0.862304,-0.235770,-0.164680,0.008305,0.217098,-0.797951,-0.562265,0.023137,-0.013603,0.050256,6.738892,-20.361366,-18.619392,,,,,,,
1512176724.525867,0.361019,0.918389,0.866422,-0.333057,-0.239628,0.021560,0.214445,-0.794625,-0.567966,0.017244,-0.004890,0.024661,6.664795,-20.136482,-18.843651,,,,,,,
1512176724.545856,0.352448,0.911885,0.870768,-0.347662,-0.258839,0.001025,0.211349,-0.790659,-0.574621,-0.009398,0.021464,-0.001261,6.140045,-20.062263,-18.989159,,,,,,,
1512176724.565876,0.345866,0.906377,0.873558,-0.249205,-0.189217,-0.018627,0.209035,-0.787275,-0.580088,-0.019002,0.032072,-0.029806,6.291779,-19.687050,-18.915260,,,,,,,
1512176724.585865,0.342172,0.903239,0.874710,-0.110586,-0.108892,-0.016338,0.207719,-0.785336,-0.583181,-0.016526,0.034802,-0.038630,6.064941,-20.062386,-19.213509,,,,,,,
1512176724.605884,0.341527,0.902792,0.874651,0.027894,0.010932,-0.004322,0.207460,-0.785059,-0.583645,-0.008714,0.016474,-0.037341,5.990616,-19.912498,-19.212807,,,,,,,
1512176724.625873,0.342741,0.904173,0.874022,0.080929,0.025933,0.012489,0.207804,-0.785914,-0.582371,0.011450,-0.003927,-0.023464,6.067642,-19.462379,-19.213234,,,,,,,
1512176724.645862,0.342283,0.905090,0.874065,0.014724,-0.052151,0.015523,0.207295,-0.786481,-0.581787,0.011836,-0.012210,-0.000443,6.216599,-19.687157,-19.289619,,,,,,,
1512176724.665882,0.339848,0.904642,0.874656,-0.040610,-0.114176,0.005976,0.205995,-0.786204,-0.582623,0.007719,-0.012258,0.003964,6.067078,-19.612373,-18.988304,,,,,,,
1512176724.685871,0.337120,0.904003,0.875268,-0.025684,-0.105601,0.007292,0.204571,-0.785809,-0.583656,0.005024,-0.004352,0.002998,6.216064,-19.837151,-18.989693,,,,,,,
1512176724.705890,0.335077,0.903950,0.875565,0.009511,-0.080985,0.006818,0.203392,-0.785776,-0.584112,-0.006478,0.006632,-0.012568,6.066254,-19.762383,-19.288383,,,,,,,
1512176724.725879,0.334291,0.904483,0.875292,0.034220,-0.030723,-0.002243,0.202796,-0.786106,-0.583876,-0.014411,0.012516,0.002913,6.067230,-19.537376,-19.363258,,,,,,,
1512176724.745868,0.334031,0.905007,0.874968,0.019196,-0.028622,0.003943,0.202509,-0.786429,-0.583540,-0.000147,0.008719,-0.003054,5.841553,-19.687721,-19.361427,,,,,,,
1512176724.765888,0.333325,0.905105,0.875076,-0.005318,-0.032930,0.003573,0.202071,-0.786490,-0.583609,0.000916,0.008521,0.004325,5.841583,-19.687721,-19.286430,,,,,,,
1512176724.785877,0.332703,0.904954,0.875117,-0.007338,-0.028646,-0.002837,0.201747,-0.786397,-0.583848,0.002248,0.005498,0.002869,5.917679,-19.462608,-19.136971,,,,,,,
1512176724.805896,0.332112,0.904849,0.874946,-0.004047,-0.044651,-0.009241,0.201429,-0.786332,-0.584045,0.003558,0.003739,0.002105,6.067032,-19.612373,-19.063316,,,,,,,
1512176724.825885,0.331192,0.904316,0.874613,-0.030457,-0.063887,-0.024615,0.201028,-0.786003,-0.584626,-0.005898,0.008018,0.008622,5.763367,-20.362831,-19.661095,,,,,,,
1512176724.845874,0.330608,0.903710,0.874127,-0.015624,-0.029700,-0.017887,0.200841,-0.785627,-0.585194,-0.000356,0.003981,0.010014,6.440689,-19.911827,-19.066643,,,,,,,
1512176724.865894,0.330977,0.903630,0.873774,0.006685,0.015184,-0.011011,0.201077,-0.785578,-0.585179,-0.001081,0.005442,-0.005595,5.989944,-20.062492,-19.212883,,,,,,,
1512176724.885883,0.331405,0.903555,0.873192,-0.009135,-0.020066,-0.023089,0.201347,-0.785531,-0.585149,0.001793,0.008081,-0.003871,5.841583,-19.687721,-19.286430,,,,,,,
1512176724.905902,0.330739,0.902811,0.872805,-0.037973,-0.054296,-0.021494,0.201147,-0.785071,-0.585835,0.003870,0.003943,0.001225,6.066254,-19.762383,-19.288383,,,,,,,
1512176724.925892,0.330308,0.902212,0.872505,-0.015639,-0.016880,-0.015707,0.201047,-0.784700,-0.586367,-0.001859,0.004060,0.000445,5.617004,-19.613060,-19.134483,,,,,,,
1512176724.945881,0.330717,0.901980,0.872023,-0.001682,0.001311,-0.020772,0.201346,-0.784556,-0.586457,-0.002372,0.007334,-0.001907,5.917648,-19.462608,-19.211967,,,,,,,
1512176724.965900,0.331240,0.901870,0.871308,0.002605,-0.002956,-0.022859,0.201681,-0.784488,-0.586433,0.000376,0.008487,0.003730,5.991592,-19.687492,-19.287712,,,,,,,
1512176724.985889,0.331377,0.901664,0.870707,-0.007068,-0.022204,-0.018801,0.201814,-0.784360,-0.586558,0.001235,0.009336,0.003383,5.842636,-19.462715,-19.211327,,,,,,,
1512176725.005909,0.331929,0.901212,0.869907,-0.016323,0.005593,-0.038027,0.202253,-0.784080,-0.586782,0.002536,0.007591,0.001195,5.915619,-19.912605,-19.212166,,,,,,,
1512176725.025898,0.332318,0.900709,0.869046,-0.015405,-0.028602,-0.030670,0.202610,-0.783768,-0.587075,0.005413,0.008026,-0.003089,5.991623,-19.687492,-19.212700,,,,,,,
1512176725.045887,0.332411,0.900229,0.868360,-0.016528,-0.011521,-0.026363,0.202787,-0.783469,-0.587412,-0.009107,0.005240,0.010417,6.143234,-19.312263,-19.363792,,,,,,,
1512176725.065906,0.332857,0.899847,0.867854,-0.010247,0.003427,-0.018758,0.203147,-0.783232,-0.587605,-0.003455,0.001615,0.001194,6.141586,-19.687263,-19.288979,,,,,,,
1512176725.085895,0.333158,0.899432,0.867298,-0.021835,-0.011532,-0.028575,0.203430,-0.782974,-0.587851,-0.002182,0.005523,-0.005091,5.991959,-19.612495,-19.212669,,,,,,,
1512176725.105915,0.333656,0.898835,0.866494,-0.011067,-0.005094,-0.034793,0.203876,-0.782602,-0.588191,0.004529,0.002985,-0.010244,6.066849,-19.612373,-19.438301,,,,,,,
1512176725.125904,0.334932,0.898796,0.865201,0.021063,0.023816,-0.041687,0.204636,-0.782578,-0.587959,0.006134,0.005387,-0.006539,6.143387,-19.312263,-19.063805,,,,,,,
1512176725.145893,0.336412,0.899162,0.863846,0.031459,0.013116,-0.026650,0.205411,-0.782805,-0.587385,0.010623,0.004378,-0.000703,6.067566,-19.462379,-19.363228,,,,,,,
1512176725.165889,0.337122,0.899256,0.862907,0.000543,-0.009358,-0.027174,0.205804,-0.782864,-0.587170,0.004508,0.007580,0.007030,5.992935,-19.387489,-19.287575,,,,,,,
1512176725.185878,0.337239,0.898649,0.862345,-0.030412,-0.016889,-0.025518,0.206030,-0.782486,-0.587594,-0.001532,0.006974,0.005166,6.291977,-19.612038,-19.215218,,,,,,,
1512176725.205898,0.337424,0.897994,0.861833,-0.017586,-0.002984,-0.027419,0.206308,-0.782079,-0.588039,-0.004099,0.010243,-0.004155,6.217346,-19.537148,-19.139549,,,,,,,
1512176725.225887,0.338496,0.897789,0.860960,0.009116,0.033383,-0.027968,0.206992,-0.781950,-0.587969,-0.003135,0.012068,-0.001280,6.218018,-19.387154,-19.139473,,,,,,,
1512176725.245876,0.339984,0.897951,0.859997,0.019698,0.034456,-0.023549,0.207824,-0.782051,-0.587541,0.005875,0.007790,-0.006911,6.368347,-19.311928,-19.140724,,,,,,,
1512176725.265895,0.340804,0.898067,0.859453,0.005545,0.009834,-0.006782,0.208276,-0.782124,-0.587285,0.008536,-0.001659,-0.002986,6.066513,-19.687386,-19.438332,,,,,,,
1512176725.285884,0.340774,0.898107,0.859436,0.002246,-0.003002,-0.001545,0.208248,-0.782149,-0.587261,0.001057,0.003493,-0.007023,6.066589,-19.687386,-19.288338,,,,,,,
1512176725.305904,0.340991,0.898142,0.859104,0.008797,-0.002975,-0.011045,0.208366,-0.782171,-0.587190,0.003090,0.004735,-0.004134,6.067596,-19.462379,-19.288246,,,,,,,
1512176725.325893,0.341416,0.898338,0.858669,0.018429,0.014138,-0.011910,0.208564,-0.782293,-0.586957,-0.003348,0.006292,0.005033,5.840881,-19.837715,-19.361488,,,,,,,
1512176725.345882,0.342489,0.898594,0.857780,0.020769,0.016301,-0.024662,0.209126,-0.782452,-0.586544,-0.000051,0.002530,0.007839,6.142715,-19.462257,-19.063881,,,,,,,
1512176725.365901,0.343414,0.898617,0.856871,0.003742,0.005597,-0.027078,0.209663,-0.782467,-0.586334,0.000374,0.005230,0.008376,6.217041,-19.612160,-19.064583,,,,,,,
1512176725.385890,0.343999,0.898200,0.856068,-0.021771,-0.004045,-0.031745,0.210116,-0.782207,-0.586518,0.004667,0.007442,0.000367,6.293625,-19.237038,-19.290047,,,,,,,
1512176725.405910,0.344414,0.897516,0.855424,-0.020748,-0.001916,-0.029593,0.210540,-0.781780,-0.586935,0.003815,0.013363,-0.002863,5.841553,-19.687721,-19.361427,,,,,,,
1512176725.425899,0.345054,0.897345,0.854564,0.012244,0.000272,-0.024838,0.210961,-0.781673,-0.586926,0.005210,0.009335,0.005917,6.217987,-19.387154,-19.214470,,,,,,,
1512176725.445888,0.345927,0.897572,0.853666,0.021793,0.014159,-0.022524,0.211413,-0.781815,-0.586574,0.003751,0.009950,0.007976,6.218399,-19.312157,-19.064445,,,,,,,
1512176725.465908,0.346929,0.897598,0.852709,0.005910,0.008808,-0.029168,0.211994,-0.781832,-0.586343,0.006970,0.007067,-0.001456,6.217712,-19.462151,-19.064522,,,,,,,
1512176725.485897,0.347335,0.897370,0.851815,-0.004750,-0.027520,-0.030513,0.212292,-0.781689,-0.586425,0.007465,0.008160,-0.006227,6.366852,-19.611931,-19.440849,,,,,,,
1512176725.505916,0.347496,0.897138,0.850901,0.002662,-0.024310,-0.027196,0.212448,-0.781545,-0.586561,0.004303,0.002385,-0.000292,6.367722,-19.461922,-19.065788,,,,,,,
1512176725.525905,0.347688,0.897246,0.850291,0.016256,-0.011507,-0.010966,0.212532,-0.781612,-0.586441,-0.003014,0.000515,-0.004914,6.292236,-19.537041,-19.365181,,,,,,,
1512176725.545894,0.347955,0.897344,0.849658,0.010025,-0.009359,-0.020642,0.212663,-0.781673,-0.586312,-0.003068,0.002300,-0.010886,6.367935,-19.386925,-19.290749,,,,,,,
1512176725.565914,0.348040,0.897605,0.849027,0.028940,-0.032863,-0.005526,0.212643,-0.781836,-0.586102,0.011326,0.003241,-0.025974,6.143005,-19.387260,-19.138847,,,,,,,
1512176725.585903,0.347249,0.898335,0.848383,0.047163,-0.084091,-0.013968,0.211985,-0.782291,-0.585733,0.004323,0.005420,-0.035468,6.217682,-19.462151,-19.139519,,,,,,,
1512176725.605922,0.345854,0.899160,0.847114,0.054711,-0.149225,-0.022615,0.210949,-0.782804,-0.585421,0.000401,-0.007998,-0.030042,6.142456,-19.537270,-18.913918,,,,,,,
1512176725.625911,0.343900,0.899974,0.845516,0.050744,-0.144918,-0.039712,0.209590,-0.783311,-0.585232,-0.011027,0.005616,-0.007755,6.291748,-19.687050,-18.990257,,,,,,,
1512176725.645900,0.342087,0.900759,0.844489,0.049130,-0.120422,-0.005537,0.208322,-0.783798,-0.585032,-0.009210,0.001923,0.003977,5.841995,-19.612709,-19.136391,,,,,,,
1512176725.665920,0.340503,0.901782,0.844168,0.052042,-0.094819,0.012716,0.207127,-0.784433,-0.584605,0.002696,-0.001059,-0.010900,5.842636,-19.462715,-19.211327,,,,,,,
1512176725.685909,0.337815,0.902626,0.844447,0.025052,-0.145098,0.031341,0.205335,-0.784957,-0.584534,0.014834,-0.002977,-0.002289,6.216370,-19.762154,-19.064659,,,,,,,
1512176725.705928,0.333283,0.902924,0.845889,-0.012711,-0.185801,0.056236,0.202608,-0.785141,-0.585237,0.011153,0.002793,0.002947,6.066208,-19.762383,-19.363365,,,,,,,
1512176725.725917,0.327895,0.903038,0.848189,-0.018305,-0.169818,0.073268,0.199423,-0.785212,-0.586236,0.003657,0.012583,0.016458,6.067490,-19.462379,-19.513237,,,,,,,
1512176725.745906,0.322978,0.903058,0.850399,-0.023450,-0.150580,0.062599,0.196533,-0.785224,-0.587194,0.007111,0.010169,0.012793,5.766479,-19.687828,-19.510780,,,,,,,
1512176725.765926,0.317831,0.903224,0.853111,-0.012292,-0.164514,0.096827,0.193467,-0.785327,-0.588074,0.020461,-0.000653,-0.005172,5.916885,-19.612602,-19.362022,,,,,,,
1512176725.785915,0.311607,0.903906,0.856245,0.017534,-0.206127,0.096048,0.189639,-0.785749,-0.588757,0.001035,0.004911,-0.013614,6.066467,-19.687386,-19.513329,,,,,,,
1512176725.805934,0.305623,0.905148,0.859007,0.045176,-0.179392,0.101872,0.185818,-0.786517,-0.588950,-0.011258,0.011477,0.003135,5.615433,-19.913063,-19.584618,,,,,,,
1512176725.825923,0.301126,0.907152,0.861747,0.088740,-0.096032,0.114519,0.182700,-0.787753,-0.588273,-0.008124,0.009295,0.001481,5.390396,-19.913399,-19.657707,,,,,,,
1512176725.845912,0.297691,0.909619,0.864294,0.090915,-0.066116,0.113589,0.180108,-0.789270,-0.587037,0.005897,0.002267,0.002839,5.240387,-19.913612,-19.656425,,,,,,,
1512176725.865932,0.293659,0.912015,0.867281,0.089610,-0.091777,0.127342,0.177192,-0.790739,-0.585947,0.009088,-0.000887,-0.000189,5.464447,-20.138283,-19.508446,,,,,,,
1512176725.885921,0.288905,0.914481,0.870524,0.083209,-0.118491,0.126089,0.173848,-0.792246,-0.584912,-0.000996,0.005198,0.015606,5.090576,-19.913841,-19.280159,,,,,,,
1512176725.905941,0.284794,0.916268,0.872828,0.052095,-0.087463,0.074574,0.171044,-0.793335,-0.584261,-0.019646,0.012818,0.030703,4.715912,-19.839409,-19.276939,,,,,,,
1512176725.925930,0.282063,0.917245,0.874701,0.014945,-0.057591,0.066679,0.169231,-0.793930,-0.583982,0.001240,0.011245,0.026578,4.939865,-20.064064,-19.353951,,,,,,,
1512176725.945919,0.279581,0.917524,0.876571,-0.006103,-0.044776,0.050426,0.167720,-0.794099,-0.584187,-0.005642,0.013627,0.017400,4.940506,-19.914070,-19.428886,,,,,,,
1512176725.965938,0.277804,0.917574,0.877924,-0.010146,-0.030870,0.037623,0.166671,-0.794129,-0.584446,-0.003311,0.009767,0.013783,4.715134,-19.989403,-19.502007,,,,,,,
1512176725.985927,0.276550,0.917540,0.879046,-0.009990,-0.013761,0.029157,0.165946,-0.794109,-0.584680,-0.002967,0.013180,0.007440,5.014832,-20.063957,-19.429588,,,,,,,
1512176726.005947,0.275748,0.917470,0.879871,-0.013075,-0.007343,0.022739,0.165492,-0.794066,-0.584867,0.004338,0.009230,0.006269,4.864410,-20.139183,-19.578346,,,,,,,
1512176726.025936,0.274741,0.917208,0.880875,-0.027060,-0.011653,0.029983,0.164959,-0.793907,-0.585234,0.001407,0.008583,0.009749,4.490829,-19.839745,-19.425026,,,,,,,
1512176726.045925,0.274178,0.916701,0.881179,-0.027347,-0.005151,-0.016905,0.164739,-0.793598,-0.585714,-0.009862,0.018986,0.011770,4.939453,-20.139076,-19.503975,,,,,,,
1512176726.065944,0.274505,0.916261,0.881310,-0.012823,0.015114,0.007893,0.165025,-0.793331,-0.585996,0.001219,0.006313,0.003202,4.714905,-20.064415,-19.277046,,,,,,,
1512176726.085933,0.274553,0.916161,0.881977,-0.014174,0.023625,0.026028,0.165074,-0.793270,-0.586064,0.008891,0.000439,-0.008067,4.564560,-20.139641,-19.275810,,,,,,,
1512176726.105953,0.273678,0.915978,0.883082,-0.020639,-0.003094,0.029040,0.164601,-0.793159,-0.586348,-0.000965,0.000541,-0.000886,4.711746,-20.739418,-19.502342,,,,,,,
1512176726.125942,0.272686,0.915501,0.884233,-0.040859,-0.003123,0.026614,0.164121,-0.792868,-0.586875,0.000216,0.007086,0.000389,4.790924,-19.839287,-19.277580,,,,,,,
1512176726.145931,0.271551,0.914576,0.885427,-0.056817,-0.018095,0.024200,0.163652,-0.792304,-0.587768,0.004470,0.005072,-0.006455,4.489334,-20.139748,-19.725151,,,,,,,
1512176726.165933,0.269976,0.913809,0.886744,-0.040989,-0.029843,0.032914,0.162887,-0.791836,-0.588611,0.002014,0.009228,-0.002729,4.490463,-19.914742,-19.500053,,,,,,,
1512176726.185922,0.268422,0.913385,0.888097,-0.026075,-0.026614,0.034210,0.162062,-0.791577,-0.589187,0.000688,0.007763,-0.004380,4.491165,-19.764748,-19.424980,,,,,,,
1512176726.205942,0.266954,0.913283,0.889227,-0.009962,-0.023370,0.026992,0.161218,-0.791514,-0.589502,-0.002862,0.001094,-0.003409,4.640457,-19.914513,-19.501335,,,,,,,
1512176726.225931,0.266280,0.913254,0.889480,0.001289,-0.019013,-0.009078,0.160827,-0.791496,-0.589633,-0.009307,0.005226,-0.003141,4.492111,-19.539742,-19.574883,,,,,,,
1512176726.245920,0.266757,0.913333,0.888517,0.010151,0.007742,-0.028045,0.161091,-0.791545,-0.589495,0.002818,-0.002782,-0.000410,4.266205,-19.765083,-19.348076,,,,,,,
1512176726.265939,0.266880,0.913481,0.888539,0.004032,0.007639,0.019838,0.161133,-0.791635,-0.589363,0.009964,-0.005880,0.007835,4.339783,-20.064964,-19.498848,,,,,,,
1512176726.285928,0.265904,0.913358,0.889665,-0.028064,-0.009507,0.026780,0.160584,-0.791560,-0.589614,0.000015,0.003062,0.009154,4.415054,-19.989861,-19.649452,,,,,,,
1512176726.305948,0.264876,0.912609,0.890458,-0.044832,-0.025521,0.008357,0.160132,-0.791102,-0.590351,0.001367,0.002391,-0.000805,4.114380,-20.140312,-19.646965,,,,,,,
1512176726.325937,0.264092,0.912026,0.890925,-0.017050,-0.015860,0.004528,0.159790,-0.790746,-0.590921,0.001312,0.006444,-0.006811,4.265915,-19.840080,-19.273109,,,,,,,
1512176726.345926,0.264003,0.912115,0.891126,0.011695,0.011949,0.008239,0.159719,-0.790800,-0.590867,-0.003835,0.009169,-0.000365,4.266464,-19.690086,-19.498039,,,,,,,
1512176726.365945,0.264177,0.912427,0.891327,0.010597,0.019420,0.010381,0.159758,-0.790991,-0.590602,-0.004927,0.004217,0.004206,3.890457,-19.915642,-19.494957,,,,,,,
1512176726.385935,0.264238,0.912377,0.891655,-0.014945,0.014048,0.007862,0.159804,-0.790960,-0.590630,-0.001829,0.005407,0.005990,4.491211,-19.764748,-19.349983,,,,,,,
1512176726.405954,0.264058,0.911735,0.892237,-0.045907,0.007581,0.009519,0.159830,-0.790568,-0.591149,0.003180,0.003336,-0.003639,4.339218,-20.214973,-19.273933,,,,,,,
1512176726.425943,0.263449,0.910879,0.892946,-0.043732,-0.004153,0.007382,0.159646,-0.790043,-0.591899,0.001639,0.005497,-0.001698,4.340118,-19.989967,-19.498817,,,,,,,
1512176726.445932,0.262839,0.910372,0.893619,-0.020378,-0.003064,0.013053,0.159389,-0.789732,-0.592384,0.001012,0.003981,-0.006829,4.342178,-19.539970,-19.423607,,,,,,,
1512176726.465952,0.262405,0.910351,0.894132,0.002978,0.000162,0.018731,0.159136,-0.789719,-0.592469,-0.001223,0.004929,-0.003372,4.415771,-19.839851,-19.574379,,,,,,,
1512176726.485941,0.262033,0.910659,0.894744,0.011441,0.003374,0.023130,0.158853,-0.789908,-0.592292,0.001242,0.004142,-0.002785,4.417068,-19.539848,-19.649239,,,,,,,
1512176726.505960,0.261574,0.910827,0.895353,-0.002364,0.000155,0.019721,0.158546,-0.790011,-0.592238,-0.003944,0.004702,0.005110,4.266174,-19.765083,-19.423073,,,,,,,
1512176726.525949,0.260916,0.910719,0.896082,-0.016239,-0.007344,0.020561,0.158179,-0.789945,-0.592424,-0.004538,0.010007,0.004076,4.416245,-19.764854,-19.274361,,,,,,,
1512176726.545938,0.260394,0.910297,0.896738,-0.024586,0.005480,0.009822,0.157956,-0.789686,-0.592828,-0.003003,0.007810,-0.000861,4.266846,-19.615074,-19.423012,,,,,,,
1512176726.565958,0.260141,0.910103,0.897246,-0.003348,0.006574,0.015467,0.157845,-0.789567,-0.593016,0.004692,0.005510,-0.002748,4.417145,-19.539848,-19.499245,,,,,,,
1512176726.585947,0.260048,0.910227,0.897611,0.004248,0.011938,0.007064,0.157764,-0.789643,-0.592937,0.002789,0.007783,-0.001149,4.040833,-19.840416,-19.421196,,,,,,,
1512176726.605966,0.259926,0.910027,0.897757,-0.019121,-0.009447,0.001323,0.157733,-0.789520,-0.593109,0.007535,0.003525,-0.005784,4.341812,-19.614967,-19.498634,,,,,,,
1512176726.625955,0.259269,0.909556,0.898103,-0.025545,-0.020142,0.002258,0.157438,-0.789231,-0.593571,0.005373,0.005418,-0.004375,4.339859,-20.064964,-19.348839,,,,,,,
1512176726.645944,0.258782,0.909472,0.898443,0.006270,-0.003029,0.012369,0.157166,-0.789180,-0.593712,0.000457,0.006816,0.000313,4.340454,-19.914970,-19.498772,,,,,,,
1512176726.665964,0.258890,0.909807,0.898564,0.014970,0.020509,0.004053,0.157163,-0.789385,-0.593440,-0.003308,0.005785,0.007044,4.113434,-20.365318,-19.497078,,,,,,,
1512176726.685953,0.259416,0.909880,0.898428,-0.000920,0.010883,-0.002608,0.157460,-0.789430,-0.593301,0.001369,0.000963,0.000635,4.191177,-19.765190,-19.422432,,,,,,,
1512176726.705972,0.259371,0.909721,0.898216,-0.003917,-0.013667,-0.016598,0.157465,-0.789333,-0.593429,-0.005198,0.011608,-0.000778,4.266617,-19.690086,-19.198036,,,,,,,
1512176726.725961,0.259500,0.909738,0.898126,0.007369,0.006593,0.011355,0.157538,-0.789343,-0.593396,0.004968,0.003088,-0.000659,4.267563,-19.465080,-19.347939,,,,,,,
1512176726.745950,0.259183,0.910008,0.898619,0.007270,0.002312,0.017737,0.157296,-0.789509,-0.593240,-0.001305,0.004963,-0.005057,4.116852,-19.615303,-19.421730,,,,,,,
1512176726.765970,0.258795,0.909935,0.899022,-0.015007,-0.012665,0.009898,0.157080,-0.789464,-0.593357,-0.000296,0.003713,-0.008587,4.341171,-19.764977,-19.423714,,,,,,,
1512176726.785959,0.258058,0.909680,0.899446,-0.010728,-0.020132,0.008869,0.156694,-0.789307,-0.593668,-0.000109,0.002335,-0.011450,4.190872,-19.840187,-19.347466,,,,,,,
1512176726.805978,0.257691,0.909931,0.899680,0.023342,0.000210,0.012632,0.156426,-0.789462,-0.593533,-0.001961,0.001483,-0.000416,4.491730,-19.614738,-19.649910,,,,,,,
1512176726.825967,0.257891,0.910590,0.899824,0.028750,0.023722,0.008526,0.156412,-0.789866,-0.592999,-0.003000,0.003336,0.004391,4.343491,-19.239967,-19.498466,,,,,,,
1512176726.845956,0.258227,0.910843,0.899734,0.003299,0.007677,-0.000427,0.156560,-0.790021,-0.592753,-0.000005,0.004468,0.005411,4.716476,-19.689415,-19.501869,,,,,,,
1512176726.865976,0.258296,0.910710,0.899689,-0.007269,-0.001937,-0.005942,0.156628,-0.789939,-0.592843,0.000217,0.008064,0.002115,4.490463,-19.914742,-19.500053,,,,,,,
1512176726.885965,0.258494,0.910768,0.899551,0.013943,0.008761,0.000797,0.156734,-0.789975,-0.592768,0.006978,0.005917,-0.000539,4.191391,-19.690193,-19.647408,,,,,,,
1512176726.905985,0.258544,0.911297,0.899720,0.025444,0.006618,0.014817,0.156656,-0.790299,-0.592356,0.001486,0.006730,-0.003225,4.116470,-19.690315,-19.496758,,,,,,,
1512176726.925974,0.258448,0.911687,0.899922,0.010655,0.002337,0.006058,0.156521,-0.790538,-0.592074,-0.002102,0.005732,0.000811,4.265503,-19.915077,-19.423149,,,,,,,
1512176726.945963,0.258489,0.911813,0.900031,0.003184,0.004463,0.007025,0.156519,-0.790615,-0.591971,0.000875,0.004833,-0.002176,4.340759,-19.839973,-19.573738,,,,,,,
1512176726.965982,0.258298,0.911998,0.900342,0.008350,0.002314,0.016686,0.156369,-0.790729,-0.591859,0.002460,0.008121,-0.000304,4.490387,-19.914742,-19.650047,,,,,,,
1512176726.985971,0.257778,0.912215,0.901000,0.002889,-0.001985,0.024053,0.156018,-0.790861,-0.591774,-0.003323,0.007017,0.001702,4.191437,-19.690193,-19.572395,,,,,,,
1512176727.005991,0.257347,0.912239,0.901583,-0.007584,0.005500,0.013267,0.155757,-0.790876,-0.591823,-0.006023,0.003858,0.004131,4.040466,-19.915413,-19.496223,,,,,,,
1512176727.025980,0.256927,0.912005,0.902253,-0.022592,0.000129,0.018363,0.155556,-0.790733,-0.592067,0.002907,0.002540,-0.008397,4.266022,-19.765083,-19.723076,,,,,,,
1512176727.045969,0.256138,0.911725,0.903005,-0.014065,-0.014814,0.017367,0.155145,-0.790561,-0.592404,0.003882,0.006275,-0.012668,4.191742,-19.615196,-19.647362,,,,,,,
1512176727.065988,0.255514,0.911858,0.903497,0.012587,-0.008364,0.017776,0.154749,-0.790643,-0.592399,0.004660,0.002435,-0.006340,4.417145,-19.539848,-19.499245,,,,,,,
1512176727.085977,0.255153,0.912532,0.903853,0.038191,-0.001913,0.017104,0.154400,-0.791055,-0.591940,0.001056,0.003335,-0.002726,4.040802,-19.840416,-19.496193,,,,,,,
1512176727.105997,0.255345,0.913310,0.903907,0.034035,0.013043,0.010697,0.154358,-0.791531,-0.591314,0.002761,0.005261,-0.001368,4.038437,-20.365425,-19.496437,,,,,,,
1512176727.125986,0.255343,0.913951,0.903949,0.030867,-0.001909,0.008468,0.154229,-0.791922,-0.590823,-0.001107,0.006369,0.005374,4.265381,-19.915077,-19.648140,,,,,,,
1512176727.145975,0.255330,0.914462,0.904006,0.017039,0.004484,0.007225,0.154119,-0.792235,-0.590433,-0.001638,0.006895,0.014231,4.417480,-19.464851,-19.499214,,,,,,,
1512176727.165980,0.255422,0.914396,0.904004,-0.017910,0.002320,-0.007148,0.154187,-0.792194,-0.590470,-0.003796,0.007847,0.008149,4.116577,-19.690315,-19.271767,,,,,,,
1512176727.185969,0.255535,0.913716,0.903880,-0.031731,-0.000900,-0.009491,0.154389,-0.791779,-0.590974,0.003234,0.005753,-0.002441,4.041092,-19.765419,-19.571159,,,,,,,
1512176727.205989,0.255483,0.913373,0.903829,-0.001996,-0.003005,-0.002672,0.154428,-0.791569,-0.591245,0.002448,0.012379,-0.001681,4.266434,-19.690086,-19.573036,,,,,,,
1512176727.225978,0.255794,0.913677,0.903781,0.021288,0.020506,0.008407,0.154550,-0.791755,-0.590963,0.004690,0.006446,0.003180,3.966583,-19.690529,-19.270500,,,,,,,
1512176727.245967,0.255803,0.914082,0.904029,0.009496,0.000187,0.011363,0.154474,-0.792003,-0.590652,0.000936,0.004756,-0.001328,4.190430,-19.915199,-19.572502,,,,,,,
1512176727.265986,0.255425,0.913708,0.904248,-0.035064,-0.018011,-0.002137,0.154326,-0.791774,-0.590997,-0.001891,0.003536,0.002374,4.116165,-19.765312,-19.421806,,,,,,,
1512176727.285975,0.254985,0.912931,0.904425,-0.032869,-0.008393,-0.006339,0.154222,-0.791299,-0.591660,-0.003343,0.004312,-0.006973,4.190384,-19.915199,-19.647499,,,,,,,
1512176727.305995,0.255258,0.912503,0.904278,-0.011488,0.015150,-0.008077,0.154468,-0.791038,-0.591945,0.001965,0.005271,-0.003193,3.964111,-20.215538,-19.495735,,,,,,,
1512176727.325984,0.255588,0.912501,0.904178,0.006525,0.008758,-0.001440,0.154664,-0.791036,-0.591896,0.002028,0.005758,-0.003960,4.267075,-19.540077,-19.647972,,,,,,,
1512176727.345973,0.255868,0.912535,0.903990,-0.002990,0.002342,-0.006932,0.154823,-0.791057,-0.591826,0.000313,0.000881,0.002272,4.191177,-19.765190,-19.422432,,,,,,,
1512176727.365993,0.255851,0.912298,0.903850,-0.014648,-0.007280,-0.011398,0.154860,-0.790912,-0.592011,-0.003676,0.003894,0.005081,4.191360,-19.690193,-19.722404,,,,,,,
1512176727.385982,0.256364,0.911772,0.903373,-0.022976,0.014089,-0.023174,0.155270,-0.790590,-0.592333,-0.003582,0.006746,0.004442,4.343094,-19.314964,-19.648506,,,,,,,
1512176727.406001,0.256896,0.911300,0.902997,-0.017791,0.009814,-0.013515,0.155680,-0.790301,-0.592611,0.003012,0.002093,-0.006388,4.116394,-19.690315,-19.646767,,,,,,,
1512176727.425990,0.257324,0.910919,0.902670,-0.011430,0.004474,-0.012378,0.156010,-0.790067,-0.592836,0.004177,0.006269,-0.009047,4.567032,-19.539635,-19.725517,,,,,,,
1512176727.445979,0.257538,0.910989,0.902316,0.018332,-0.004037,-0.007713,0.156122,-0.790111,-0.592749,0.008734,0.004130,-0.010782,4.341171,-19.764977,-19.423714,,,,,,,
1512176727.465999,0.257900,0.911483,0.901927,0.027916,0.012004,-0.005383,0.156237,-0.790413,-0.592315,0.001859,0.005852,0.000137,4.267181,-19.540077,-19.422966,,,,,,,
1512176727.485988,0.258370,0.911914,0.901608,0.019349,0.007713,-0.003390,0.156429,-0.790677,-0.591912,-0.001522,0.006848,0.000405,4.492813,-19.389748,-19.499809,,,,,,,
1512176727.506007,0.258716,0.911953,0.901246,-0.002872,0.002354,-0.014394,0.156626,-0.790701,-0.591828,-0.004999,0.009039,0.007584,4.266464,-19.690086,-19.498039,,,,,,,
1512176727.525996,0.259199,0.911587,0.900785,-0.016670,0.007681,-0.017774,0.156986,-0.790477,-0.592032,-0.000660,0.003947,0.004202,4.191467,-19.690193,-19.497398,,,,,,,
1512176727.545985,0.259898,0.911170,0.900122,-0.013284,0.011978,-0.029438,0.157484,-0.790221,-0.592241,-0.001707,0.011016,0.007829,4.492111,-19.539742,-19.574883,,,,,,,
1512176727.566005,0.260892,0.910673,0.899323,-0.018673,0.015170,-0.025239,0.158174,-0.789917,-0.592463,0.003295,0.004623,0.002284,4.417419,-19.464851,-19.649208,,,,,,,
1512176727.585994,0.261335,0.910208,0.898886,-0.017731,0.001275,-0.017809,0.158531,-0.789631,-0.592748,0.002815,0.005574,-0.005229,4.490768,-19.839745,-19.575020,,,,,,,
1512176727.606013,0.261603,0.909974,0.898475,-0.000760,-0.005120,-0.013323,0.158738,-0.789488,-0.592884,0.002898,0.003248,-0.007519,4.341812,-19.614967,-19.498634,,,,,,,
1512176727.626002,0.261956,0.910000,0.897985,0.006757,0.000238,-0.016393,0.158942,-0.789504,-0.592808,-0.001426,0.003508,-0.009365,4.266541,-19.690086,-19.348030,,,,,,,
1512176727.645991,0.262338,0.909879,0.897361,-0.004908,-0.010455,-0.020865,0.159193,-0.789429,-0.592839,0.000246,-0.000228,-0.007365,4.266815,-19.615074,-19.498009,,,,,,,
1512176727.666011,0.262673,0.909773,0.896700,0.004715,0.000246,-0.021753,0.159413,-0.789365,-0.592867,-0.006398,0.007977,-0.002074,4.490387,-19.914742,-19.650047,,,,,,,
1512176727.686000,0.263747,0.910002,0.895799,0.027113,0.025915,-0.021340,0.160003,-0.789505,-0.592521,-0.000747,0.006897,0.003531,4.491501,-19.689751,-19.424950,,,,,,,
1512176727.706019,0.265062,0.910446,0.894904,0.027167,0.028058,-0.024530,0.160690,-0.789777,-0.591972,-0.000427,0.012052,0.001060,4.565125,-19.989632,-19.500725,,,,,,,
1512176727.726008,0.266365,0.910504,0.893838,-0.002529,0.021626,-0.033508,0.161449,-0.789813,-0.591717,0.003590,0.008410,0.007199,4.565720,-19.839638,-19.650658,,,,,,,
1512176727.745997,0.267189,0.910036,0.892915,-0.020654,-0.000835,-0.034917,0.162035,-0.789526,-0.591941,0.005049,0.004720,0.001365,4.640396,-19.914513,-19.651329,,,,,,,
1512176727.766017,0.267803,0.909454,0.892018,-0.020690,-0.004043,-0.032796,0.162519,-0.789168,-0.592284,0.000399,0.005584,0.003341,4.641068,-19.764519,-19.651253,,,,,,,
1512176727.786006,0.268686,0.908900,0.890863,-0.017417,0.009855,-0.036966,0.163158,-0.788828,-0.592562,-0.000469,0.003535,0.002886,4.340683,-19.839973,-19.723747,,,,,,,
1512176727.806025,0.269537,0.908471,0.890049,-0.011177,0.010914,-0.027277,0.163753,-0.788565,-0.592749,0.001668,0.006216,-0.000772,4.492523,-19.464745,-19.424843,,,,,,,
1512176727.826015,0.270356,0.908142,0.889425,-0.007025,0.019447,-0.020794,0.164308,-0.788362,-0.592864,-0.003694,0.003328,-0.004884,4.641144,-19.764519,-19.501259,,,,,,,
1512176727.846004,0.271150,0.908008,0.888940,-0.000737,0.021586,-0.013229,0.164806,-0.788279,-0.592836,0.002171,0.001796,-0.006026,4.566467,-19.689629,-19.500587,,,,,,,
1512176727.866023,0.271545,0.908058,0.888835,0.007550,0.010888,0.000712,0.165030,-0.788310,-0.592732,0.004312,0.002590,-0.017543,4.342484,-19.464958,-19.498573,,,,,,,
1512176727.886012,0.271750,0.908252,0.888681,0.013972,0.002355,-0.001357,0.165110,-0.788430,-0.592551,0.000920,-0.001228,-0.008279,4.716171,-19.764412,-19.426903,,,,,,,
1512176727.906032,0.272129,0.908581,0.888386,0.021537,0.005582,-0.007633,0.165265,-0.788632,-0.592239,-0.000501,0.000928,-0.005448,4.715958,-19.839409,-19.201942,,,,,,,
1512176727.926021,0.272692,0.908911,0.887663,0.022832,-0.001863,-0.021498,0.165528,-0.788835,-0.591895,-0.003495,0.004289,-0.003152,4.565430,-19.914635,-19.575691,,,,,,,
1512176727.946010,0.273429,0.909325,0.886756,0.033438,0.005621,-0.018121,0.165876,-0.789089,-0.591458,-0.002195,0.005505,0.000821,4.490463,-19.914742,-19.500053,,,,,,,
1512176727.966029,0.274509,0.910103,0.885865,0.049389,0.030207,-0.014607,0.166348,-0.789567,-0.590688,0.000629,0.009629,0.006932,4.189407,-20.140190,-19.572609,,,,,,,
1512176727.986018,0.275754,0.910783,0.885091,0.029146,0.024841,-0.014916,0.166938,-0.789984,-0.589963,0.002786,0.010794,0.001875,4.713409,-20.364418,-19.577171,,,,,,,
1512176728.006038,0.276507,0.910831,0.884302,-0.002628,-0.002956,-0.029334,0.167372,-0.790013,-0.589801,0.003511,0.009099,0.005618,4.639496,-20.139519,-19.426430,,,,,,,
1512176728.026027,0.276799,0.910487,0.883664,-0.011324,-0.011536,-0.019896,0.167618,-0.789803,-0.590013,0.004516,0.005242,0.003893,4.640396,-19.914513,-19.651329,,,,,,,
1512176728.046016,0.277279,0.910337,0.882921,0.005975,0.003475,-0.033450,0.167934,-0.789711,-0.590047,-0.003062,0.014671,0.000905,4.641068,-19.764519,-19.651253,,,,,,,
1512176728.066035,0.278360,0.910442,0.882116,0.014193,0.020538,-0.014084,0.168548,-0.789775,-0.589786,0.002411,0.005214,0.001224,4.566177,-19.764641,-19.425621,,,,,,,
1512176728.086024,0.279113,0.910517,0.881461,0.003670,0.005587,-0.022816,0.168977,-0.789821,-0.589602,-0.001649,0.002330,-0.000242,4.789490,-20.139290,-19.427711,,,,,,,
1512176728.106044,0.279616,0.910137,0.880786,-0.020777,-0.002985,-0.027463,0.169356,-0.789588,-0.589805,-0.001814,0.000388,0.001426,4.715805,-19.839409,-19.501930,,,,,,,
1512176728.126033,0.280142,0.909405,0.880107,-0.030296,-0.001922,-0.031861,0.169826,-0.789138,-0.590271,-0.001415,0.002166,-0.006866,4.491135,-19.764748,-19.499977,,,,,,,
1512176728.146022,0.280601,0.908888,0.879444,-0.009146,-0.004048,-0.021969,0.170210,-0.788821,-0.590585,0.001131,0.000628,-0.006507,4.941177,-19.764076,-19.428810,,,,,,,
1512176728.166019,0.281155,0.909038,0.878950,0.021595,0.017337,-0.010791,0.170504,-0.788913,-0.590377,0.000288,0.009250,-0.003785,4.715469,-19.914406,-19.501961,,,,,,,
1512176728.186008,0.281955,0.909509,0.878476,0.028953,0.016269,-0.004291,0.170872,-0.789202,-0.589883,0.000606,0.006610,-0.001349,4.790466,-19.914299,-19.502602,,,,,,,
1512176728.206028,0.282268,0.909884,0.878197,0.015088,-0.000842,-0.004550,0.170975,-0.789433,-0.589545,-0.002060,0.012669,0.006797,4.790726,-19.839287,-19.652565,,,,,,,
1512176728.226017,0.282374,0.909890,0.878068,-0.005277,-0.001957,0.001545,0.171036,-0.789436,-0.589523,0.004211,0.008766,0.006637,5.091507,-19.688850,-19.430046,,,,,,,
1512176728.246006,0.281956,0.909624,0.878410,-0.021386,-0.005199,0.008764,0.170848,-0.789273,-0.589796,0.002492,0.010327,0.004926,4.941849,-19.614067,-19.428749,,,,,,,
1512176728.266026,0.281583,0.909309,0.878899,-0.015035,0.000148,0.012074,0.170698,-0.789079,-0.590099,0.006655,0.007707,-0.002751,4.715546,-19.914406,-19.351967,,,,,,,
1512176728.286015,0.280906,0.909212,0.879579,-0.008792,-0.006272,0.020669,0.170319,-0.789020,-0.590288,0.002594,0.009097,0.001024,4.640762,-19.839516,-19.576286,,,,,,,
1512176728.306035,0.280529,0.909161,0.880180,-0.009751,0.008695,0.015378,0.170107,-0.788989,-0.590390,0.000776,0.007342,0.006451,4.941818,-19.614067,-19.503746,,,,,,,
1512176728.326024,0.280269,0.908895,0.880641,-0.021322,0.001220,0.005591,0.170012,-0.788825,-0.590636,-0.002486,0.004752,0.003478,4.940872,-19.839073,-19.353844,,,,,,,
1512176728.346013,0.280059,0.908314,0.880942,-0.034067,0.001203,0.002205,0.170015,-0.788468,-0.591112,0.000487,0.001480,0.000582,4.792603,-19.464287,-19.277397,,,,,,,
1512176728.366032,0.279583,0.907698,0.881411,-0.033106,-0.008418,0.008584,0.169867,-0.788089,-0.591660,-0.000113,0.001132,-0.013733,5.091812,-19.613838,-19.505013,,,,,,,
1512176728.386021,0.279053,0.907273,0.881954,-0.019287,0.000140,0.010944,0.169646,-0.787827,-0.592072,-0.000456,0.002320,-0.007965,4.792831,-19.389290,-19.502357,,,,,,,
1512176728.406040,0.278657,0.907348,0.882522,0.008261,0.001235,0.022011,0.169395,-0.787873,-0.592082,0.002510,0.004823,-0.010350,4.791138,-19.764290,-19.502541,,,,,,,
1512176728.426029,0.278412,0.907730,0.882913,0.014789,0.004461,0.013586,0.169168,-0.788108,-0.591834,-0.001336,0.003547,0.000785,4.788208,-20.364296,-19.952812,,,,,,,
1512176728.446018,0.278079,0.907904,0.883211,0.002066,-0.010500,0.009087,0.168933,-0.788216,-0.591758,-0.000659,0.003655,0.003150,4.642151,-19.539513,-19.501152,,,,,,,
1512176728.466038,0.277787,0.907823,0.883408,-0.009544,-0.001958,0.002553,0.168777,-0.788166,-0.591869,-0.001526,0.007495,0.006664,4.417526,-19.464851,-19.424217,,,,,,,
1512176728.486027,0.277326,0.907464,0.883800,-0.023590,-0.009483,0.012981,0.168582,-0.787945,-0.592219,0.003431,0.006817,-0.001440,4.792862,-19.389290,-19.427361,,,,,,,
1512176728.506047,0.276433,0.907201,0.884631,-0.014192,-0.010560,0.024840,0.168110,-0.787783,-0.592568,0.002972,0.005450,-0.004279,4.492111,-19.539742,-19.574883,,,,,,,
1512176728.526036,0.275580,0.907345,0.885496,0.007086,-0.005188,0.028368,0.167573,-0.787871,-0.592602,-0.000154,0.006255,-0.003818,4.716858,-19.614403,-19.426826,,,,,,,
1512176728.546025,0.275215,0.907597,0.886106,0.004093,0.009785,0.016650,0.167303,-0.788027,-0.592472,0.001230,0.007372,0.003147,4.565903,-19.764641,-19.950615,,,,,,,
1512176728.566045,0.274655,0.907531,0.886756,-0.014142,-0.014826,0.021628,0.166985,-0.787986,-0.592616,0.006187,0.005378,0.002620,4.490875,-19.839745,-19.350014,,,,,,,
1512176728.586034,0.273714,0.907349,0.887469,-0.011920,-0.014811,0.016331,0.166466,-0.787874,-0.592911,-0.002877,0.009645,0.007889,4.567749,-19.389626,-19.650444,,,,,,,
1512176728.606052,0.273196,0.907359,0.888008,0.000861,0.000160,0.017634,0.166157,-0.787880,-0.592990,-0.001789,0.005760,0.004809,4.566391,-19.689629,-19.650581,,,,,,,
1512176728.626041,0.273015,0.907341,0.888488,-0.015002,0.011904,0.011051,0.166054,-0.787869,-0.593034,-0.002189,0.010617,0.005830,4.715775,-19.839409,-19.576927,,,,,,,
1512176728.646030,0.272668,0.906751,0.889054,-0.042701,-0.004163,0.008459,0.165973,-0.787506,-0.593539,0.002164,0.005157,-0.002134,4.416809,-19.614861,-19.499275,,,,,,,
1512176728.666050,0.271993,0.906063,0.889724,-0.032077,-0.007353,0.010734,0.165718,-0.787081,-0.594173,0.003182,0.006197,-0.002950,4.640762,-19.839516,-19.576286,,,,,,,
1512176728.686039,0.271142,0.905822,0.890666,-0.010061,-0.005228,0.033448,0.165263,-0.786932,-0.594496,0.003759,0.001929,-0.010423,4.566132,-19.764641,-19.500618,,,,,,,
1512176728.706059,0.270174,0.905828,0.891790,-0.013186,-0.002019,0.029150,0.164686,-0.786936,-0.594651,-0.005277,0.006785,-0.003829,4.417419,-19.464851,-19.649208,,,,,,,
1512176728.726048,0.269406,0.905492,0.892785,-0.034428,-0.002041,0.024579,0.164300,-0.786729,-0.595032,0.000450,0.002427,-0.001678,4.417526,-19.464851,-19.424217,,,,,,,
1512176728.746037,0.268367,0.904873,0.893887,-0.037696,-0.013807,0.027686,0.163810,-0.786347,-0.595672,0.004708,0.002808,-0.008515,4.266815,-19.615074,-19.498009,,,,,,,
1512176728.766057,0.267243,0.904705,0.894882,-0.000420,-0.020165,0.029269,0.163175,-0.786243,-0.595983,0.003634,0.005389,-0.008722,4.490829,-19.839745,-19.425026,,,,,,,
1512176728.786046,0.266342,0.905252,0.895634,0.029463,-0.005164,0.027621,0.162526,-0.786581,-0.595715,-0.000950,0.004476,-0.001529,4.341812,-19.614967,-19.498634,,,,,,,
1512176728.806066,0.266070,0.905773,0.896115,0.013622,0.006585,0.019974,0.162255,-0.786902,-0.595364,0.000693,0.000632,0.004482,4.266846,-19.615074,-19.423012,,,,,,,
1512176728.826055,0.265631,0.905786,0.896556,-0.010727,-0.008386,0.008908,0.161991,-0.786911,-0.595425,-0.001499,0.009185,0.005001,4.265839,-19.840080,-19.423103,,,,,,,
1512176728.846044,0.265179,0.905458,0.896941,-0.020375,-0.009476,0.011962,0.161790,-0.786708,-0.595747,0.003082,0.005809,0.006117,4.267075,-19.540077,-19.647972,,,,,,,
1512176728.866062,0.264413,0.905272,0.897612,-0.010865,-0.010544,0.016357,0.161372,-0.786593,-0.596012,-0.002329,0.012286,0.004597,4.190796,-19.840187,-19.497475,,,,,,,
1512176728.886051,0.264246,0.905215,0.897992,-0.004319,0.012986,0.009074,0.161284,-0.786558,-0.596082,0.001619,0.010038,0.008131,4.191284,-19.690193,-19.872398,,,,,,,
1512176728.906071,0.264106,0.905040,0.898304,-0.018073,0.000163,0.002436,0.161237,-0.786450,-0.596237,0.001743,0.007748,0.003418,3.892075,-19.540642,-19.644783,,,,,,,
1512176728.926060,0.263745,0.904474,0.898480,-0.031893,-0.019081,-0.001031,0.161137,-0.786100,-0.596726,0.005260,0.004728,0.003464,4.566101,-19.764641,-19.575615,,,,,,,
1512176728.946049,0.262995,0.903968,0.898949,-0.025674,-0.014821,0.009734,0.160793,-0.785788,-0.597230,-0.002635,0.003195,0.000916,4.492447,-19.464745,-19.574837,,,,,,,
1512176728.966069,0.262541,0.903633,0.899396,-0.018204,0.000144,0.009894,0.160590,-0.785580,-0.597557,-0.006232,0.003979,-0.005149,4.342407,-19.464958,-19.648567,,,,,,,
1512176728.986058,0.262156,0.903308,0.899914,-0.018249,-0.000926,0.013090,0.160426,-0.785379,-0.597866,-0.002574,0.004770,-0.010151,4.192856,-19.390190,-19.422264,,,,,,,
1512176729.006078,0.261673,0.903085,0.900442,-0.011898,-0.001994,0.015308,0.160183,-0.785241,-0.598113,0.004643,0.002175,-0.003938,4.416809,-19.614861,-19.499275,,,,,,,
1512176729.026067,0.260940,0.903082,0.901181,-0.001363,-0.010535,0.022895,0.159745,-0.785239,-0.598232,0.002761,0.007071,-0.011403,4.192520,-19.465187,-19.422295,,,,,,,
1512176729.046056,0.260468,0.903221,0.901646,0.005190,0.000172,0.013431,0.159435,-0.785325,-0.598202,0.001683,0.002976,-0.000263,4.192780,-19.390190,-19.572258,,,,,,,
1512176729.066074,0.259975,0.903404,0.902098,0.005116,-0.015855,0.017641,0.159102,-0.785438,-0.598142,0.001313,0.002861,-0.002521,4.266068,-19.765083,-19.648079,,,,,,,
1512176729.086063,0.259380,0.903509,0.902459,0.002047,-0.012646,0.009075,0.158726,-0.785503,-0.598156,-0.002018,0.006328,0.000607,4.264709,-20.065086,-19.648216,,,,,,,
1512176729.106083,0.259137,0.903602,0.902665,0.004228,-0.000885,0.007017,0.158561,-0.785561,-0.598124,0.000618,0.007607,-0.001089,4.265350,-19.915077,-19.723137,,,,,,,
1512176729.126072,0.258977,0.903734,0.902882,0.004194,0.002314,0.009159,0.158439,-0.785643,-0.598049,0.001824,0.008162,0.007381,4.040466,-19.915413,-19.496223,,,,,,,
1512176729.146061,0.258736,0.903608,0.903249,-0.022426,0.000137,0.006632,0.158320,-0.785565,-0.598183,-0.000773,0.008801,0.009178,4.490799,-19.839745,-19.500023,,,,,,,
1512176729.166060,0.258480,0.902729,0.903435,-0.054102,-0.008417,-0.011979,0.158343,-0.785020,-0.598891,-0.001498,0.006319,0.008162,4.341400,-19.689964,-19.648674,,,,,,,
1512176729.186049,0.258195,0.901670,0.903591,-0.047823,-0.010554,-0.004430,0.158385,-0.784364,-0.599740,0.007676,0.000581,-0.003761,4.266022,-19.765083,-19.723076,,,,,,,
1512176729.206069,0.257888,0.900920,0.903709,-0.027546,-0.009456,-0.006267,0.158351,-0.783898,-0.600357,-0.000514,0.005242,-0.006684,4.491364,-19.689751,-19.724953,,,,,,,
1512176729.226058,0.257738,0.900753,0.903854,0.001028,0.000176,0.006973,0.158294,-0.783795,-0.600507,0.001038,0.003674,-0.009433,4.342529,-19.464958,-19.423576,,,,,,,
1512176729.246047,0.257555,0.900910,0.904058,0.004246,-0.000883,0.005951,0.158153,-0.783892,-0.600417,-0.004207,0.006945,-0.007890,4.417679,-19.389854,-19.799171,,,,,,,
1512176729.266066,0.257465,0.900909,0.904156,-0.002133,-0.000892,0.004792,0.158099,-0.783892,-0.600432,-0.003543,0.001055,0.000411,4.492477,-19.464745,-19.499840,,,,,,,
1512176729.286056,0.257400,0.900768,0.904183,-0.011546,0.000185,-0.006000,0.158088,-0.783804,-0.600549,-0.004524,0.003897,0.001245,4.265686,-19.840080,-19.723106,,,,,,,
1512176729.306075,0.257519,0.900284,0.904109,-0.029622,0.003370,-0.008382,0.158257,-0.783503,-0.600897,0.001366,0.007014,0.004370,4.717484,-19.464409,-19.501762,,,,,,,
1512176729.326064,0.257332,0.899468,0.904102,-0.040239,-0.015867,-0.011800,0.158307,-0.782996,-0.601545,0.000644,0.008704,0.000379,4.192673,-19.390190,-19.797264,,,,,,,
1512176729.346053,0.256831,0.898767,0.904329,-0.034089,-0.012683,0.003224,0.158144,-0.782560,-0.602155,0.003477,0.005827,0.002240,4.192032,-19.540184,-19.722328,,,,,,,
1512176729.366073,0.256225,0.898428,0.904753,-0.009670,-0.009457,0.008917,0.157847,-0.782349,-0.602507,0.000951,0.011978,-0.004015,4.418427,-19.239861,-19.649101,,,,,,,
1512176729.386062,0.256234,0.898462,0.904979,0.002116,0.018342,0.007055,0.157845,-0.782370,-0.602480,0.002769,0.004660,0.004991,4.042374,-19.465416,-19.721016,,,,,,,
1512176729.406081,0.256262,0.898416,0.905304,-0.013985,0.007623,0.013180,0.157872,-0.782341,-0.602510,0.008602,-0.001701,0.004381,4.266739,-19.615074,-19.648003,,,,,,,
1512176729.426070,0.255222,0.897736,0.906279,-0.055751,-0.026643,0.023117,0.157379,-0.781918,-0.603189,0.005936,-0.000904,0.003793,3.816925,-19.540749,-19.944145,,,,,,,
1512176729.446059,0.253918,0.896583,0.907198,-0.063954,-0.024485,0.002747,0.156819,-0.781198,-0.604266,-0.005375,0.008631,0.000308,3.892715,-19.390648,-19.719704,,,,,,,
1512176729.466079,0.253347,0.895479,0.907614,-0.050124,-0.010582,0.005128,0.156690,-0.780509,-0.605190,0.003711,0.000403,-0.010090,4.043457,-19.240410,-19.570915,,,,,,,
1512176729.486068,0.252605,0.894798,0.908200,-0.030964,-0.010552,0.007540,0.156374,-0.780083,-0.605820,-0.004991,0.008278,-0.010315,4.267487,-19.465080,-19.497932,,,,,,,
1512176729.506087,0.252370,0.894467,0.908377,-0.009593,-0.001970,0.004681,0.156296,-0.779876,-0.606107,-0.001572,0.007567,-0.005588,4.116058,-19.765312,-19.646797,,,,,,,
1512176729.526076,0.251867,0.894601,0.908861,0.008226,-0.010522,0.023034,0.155965,-0.779959,-0.606085,-0.003682,0.009848,-0.004679,4.193420,-19.240196,-19.647194,,,,,,,
1512176729.546096,0.251329,0.894704,0.909495,-0.007716,0.004412,0.020722,0.155618,-0.780024,-0.606090,-0.003259,0.006464,0.005794,4.041061,-19.765419,-19.646156,,,,,,,
1512176729.566085,0.250597,0.894312,0.910453,-0.037643,-0.006326,0.024514,0.155251,-0.779778,-0.606501,0.001350,0.005502,0.000177,4.268051,-19.315086,-19.722862,,,,,,,
1512176729.586074,0.249509,0.893552,0.911367,-0.041758,-0.019132,0.014815,0.154737,-0.779303,-0.607243,-0.000089,0.007711,0.001148,4.341995,-19.539970,-19.798607,,,,,,,
1512176729.606093,0.248704,0.893127,0.912060,-0.012989,-0.012679,0.016322,0.154330,-0.779036,-0.607688,0.001905,0.003569,-0.006188,4.269470,-19.015083,-19.572716,,,,,,,
1512176729.626082,0.248187,0.893199,0.912583,0.000929,0.001234,0.013373,0.154002,-0.779081,-0.607713,-0.001750,0.006514,-0.001341,4.042343,-19.465416,-19.796028,,,,,,,
1512176729.646102,0.247830,0.893153,0.913027,-0.010781,-0.006257,0.012112,0.153793,-0.779052,-0.607803,0.000000,0.002121,-0.006119,4.268387,-19.240074,-19.722832,,,,,,,
1512176729.666091,0.247597,0.893072,0.913194,-0.005247,0.000180,-0.000581,0.153667,-0.779001,-0.607901,-0.002468,0.004725,0.003698,4.041931,-19.540413,-19.946053,,,,,,,
1512176729.686080,0.247585,0.893183,0.913271,0.011676,0.001262,0.008199,0.153639,-0.779071,-0.607818,0.001513,0.005283,0.000747,4.042404,-19.465416,-19.646019,,,,,,,
1512176729.706099,0.247380,0.893485,0.913428,0.015926,-0.003003,0.009314,0.153457,-0.779261,-0.607622,-0.000075,0.006449,0.003938,4.493454,-19.239738,-19.574745,,,,,,,
1512176729.726088,0.247314,0.893788,0.913654,0.009455,0.005518,0.013511,0.153359,-0.779451,-0.607403,-0.000755,0.005891,0.007351,3.892075,-19.540642,-19.644783,,,,,,,
1512176729.746108,0.246895,0.893661,0.914098,-0.020325,-0.012674,0.008753,0.153128,-0.779371,-0.607563,0.004022,0.005109,-0.003368,4.191666,-19.615196,-19.797371,,,,,,,
1512176729.766097,0.245660,0.893286,0.914826,-0.019571,-0.040485,0.025722,0.152449,-0.779136,-0.608036,0.008241,0.002463,-0.010892,3.892380,-19.465645,-19.719749,,,,,,,
1512176729.786086,0.244194,0.893582,0.915876,0.023896,-0.023357,0.041337,0.151502,-0.779321,-0.608034,0.000628,0.005075,-0.008833,3.816727,-19.615761,-19.644173,,,,,,,
1512176729.806106,0.243361,0.894616,0.916862,0.045217,0.002311,0.042802,0.150801,-0.779969,-0.607378,-0.002485,0.005204,0.000932,3.893082,-19.315636,-19.644676,,,,,,,
1512176729.826095,0.242454,0.895191,0.917697,0.004959,-0.024423,0.026134,0.150142,-0.780329,-0.607079,-0.003475,0.005808,-0.003288,3.893005,-19.315636,-19.794685,,,,,,,
1512176729.846114,0.241402,0.895049,0.918302,-0.013003,-0.028703,0.016265,0.149530,-0.780240,-0.607344,0.002448,-0.000629,0.000700,4.042450,-19.465416,-19.571022,,,,,,,
1512176729.866103,0.240193,0.895233,0.919105,0.018691,-0.027621,0.033785,0.148761,-0.780355,-0.607385,0.000119,0.010488,-0.004157,3.891357,-19.690651,-19.719841,,,,,,,
1512176729.886092,0.239520,0.896156,0.919738,0.048637,-0.002998,0.028973,0.148182,-0.780931,-0.606785,-0.003300,0.012255,0.001027,3.591431,-19.691093,-19.567299,,,,,,,
1512176729.906112,0.239050,0.897044,0.920289,0.027392,-0.000885,0.024409,0.147732,-0.781486,-0.606181,-0.008526,0.003272,0.005427,3.967255,-19.465523,-19.945381,,,,,,,
1512176729.926101,0.238641,0.897190,0.920662,-0.008599,-0.006249,0.008945,0.147457,-0.781577,-0.606130,0.000980,0.003135,0.007711,3.816696,-19.615761,-19.719170,,,,,,,
1512176729.946120,0.237979,0.896855,0.921056,-0.017141,-0.022287,0.008764,0.147118,-0.781368,-0.606482,0.005638,0.005886,-0.003061,4.042831,-19.390419,-19.495979,,,,,,,
1512176729.966109,0.237532,0.897043,0.921241,0.024406,-0.008346,0.010478,0.146812,-0.781485,-0.606405,0.005715,0.006492,-0.004115,3.817413,-19.465752,-19.644112,,,,,,,
1512176729.986098,0.237319,0.897887,0.921406,0.042465,-0.007254,0.015010,0.146528,-0.782011,-0.605795,-0.003080,0.007735,-0.001459,3.892517,-19.465645,-19.419746,,,,,,,
1512176730.006118,0.237138,0.898343,0.921425,0.005419,-0.008342,-0.000452,0.146334,-0.782296,-0.605475,-0.006198,0.003106,0.007666,3.891403,-19.690651,-19.644844,,,,,,,
1512176730.026107,0.237243,0.897936,0.921124,-0.028366,-0.001946,-0.020109,0.146473,-0.782043,-0.605768,-0.008792,0.007003,0.009379,3.667480,-19.465981,-19.492836,,,,,,,
1512176730.046126,0.238121,0.897115,0.920275,-0.029146,0.020512,-0.037102,0.147156,-0.781530,-0.606264,0.000854,0.004553,0.003221,3.666962,-19.540977,-19.867867,,,,,,,
1512176730.066115,0.239231,0.896774,0.919440,0.002648,0.021611,-0.024908,0.147892,-0.781318,-0.606359,0.006054,0.007041,-0.001704,3.742447,-19.465858,-19.568474,,,,,,,
1512176730.086104,0.240416,0.896935,0.918581,0.016518,0.030175,-0.025745,0.148580,-0.781418,-0.606061,0.003352,0.009339,0.002103,3.964005,-20.215538,-19.720726,,,,,,,
1512176730.106124,0.241271,0.896979,0.917808,-0.002779,-0.004046,-0.020814,0.149091,-0.781445,-0.605900,0.011035,0.006467,-0.008159,4.039902,-19.990425,-19.946266,,,,,,,
1512176730.126113,0.241368,0.896684,0.917413,-0.012535,-0.006218,-0.011369,0.149204,-0.781261,-0.606110,0.003216,0.005520,0.001923,3.816467,-19.690758,-19.494209,,,,,,,
1512176730.146132,0.241426,0.896714,0.917299,0.011850,0.000214,-0.002463,0.149234,-0.781280,-0.606078,-0.003818,0.008712,-0.002610,3.743652,-19.165871,-19.868340,,,,,,,
1512176730.166113,0.241768,0.897004,0.917020,0.016177,0.009843,-0.005564,0.149387,-0.781461,-0.605807,-0.007923,0.003263,0.000704,3.968277,-19.240532,-19.945274,,,,,,,
1512176730.186102,0.242060,0.897141,0.916693,0.005585,-0.004055,-0.011099,0.149538,-0.781547,-0.605659,-0.006319,0.005317,-0.002327,3.818115,-19.315758,-19.569038,,,,,,,
1512176730.206122,0.242537,0.896910,0.915983,-0.010097,-0.000836,-0.029437,0.149870,-0.781402,-0.605763,-0.009627,0.009308,0.000417,4.041733,-19.615410,-19.646095,,,,,,,
1512176730.226111,0.243146,0.896606,0.915275,-0.003867,0.003429,-0.018669,0.150296,-0.781212,-0.605903,0.000171,0.003518,0.002158,3.892929,-19.315636,-19.944679,,,,,,,
1512176730.246131,0.243814,0.896604,0.914753,0.003580,0.020524,-0.017438,0.150701,-0.781212,-0.605803,-0.004889,0.006920,0.002974,4.267639,-19.390083,-19.872902,,,,,,,
1512176730.266120,0.244992,0.896374,0.914004,-0.011133,0.032272,-0.030406,0.151459,-0.781067,-0.605800,-0.000976,0.000443,0.001567,3.818802,-19.165749,-19.568962,,,,,,,
1512176730.286109,0.246079,0.895889,0.912984,-0.014238,0.003443,-0.036946,0.152209,-0.780765,-0.606002,0.005444,0.003085,-0.005662,3.966736,-19.615532,-19.645454,,,,,,,
1512176730.306128,0.246911,0.895732,0.912058,0.007953,0.013064,-0.024865,0.152743,-0.780667,-0.605994,-0.001559,0.006375,0.002753,3.815979,-19.765755,-19.794243,,,,,,,
1512176730.326117,0.247999,0.895919,0.911200,0.014346,0.023758,-0.023667,0.153367,-0.780783,-0.605686,-0.007783,0.008933,0.001881,3.891693,-19.615639,-19.719810,,,,,,,
1512176730.346137,0.249007,0.895777,0.910447,-0.011215,0.017315,-0.025125,0.154004,-0.780695,-0.605638,-0.005033,0.007868,0.003832,3.817413,-19.465752,-19.644112,,,,,,,
1512176730.366126,0.249709,0.895022,0.909813,-0.040982,0.005529,-0.030928,0.154575,-0.780223,-0.606101,-0.001606,0.012538,-0.002450,3.892380,-19.465645,-19.719749,,,,,,,
1512176730.386115,0.250040,0.894188,0.909461,-0.029566,0.002310,-0.011582,0.154937,-0.779701,-0.606681,0.006181,0.003013,-0.008096,3.966354,-19.690529,-19.720482,,,,,,,
1512176730.406134,0.250187,0.893970,0.909442,0.000110,0.010873,-0.001532,0.155068,-0.779564,-0.606822,-0.000039,0.006295,-0.008290,3.815353,-19.915764,-19.719322,,,,,,,
1512176730.426123,0.250910,0.894110,0.909119,0.009902,0.024795,-0.013069,0.155479,-0.779652,-0.606604,-0.000023,0.004170,-0.004846,3.967667,-19.390526,-19.795357,,,,,,,
1512176730.446143,0.251690,0.894112,0.908545,0.004653,0.010913,-0.018523,0.155953,-0.779653,-0.606481,0.005638,0.004674,-0.007303,3.967743,-19.390526,-19.645348,,,,,,,
1512176730.466132,0.252387,0.894177,0.907851,0.013207,0.007722,-0.020544,0.156362,-0.779694,-0.606323,0.008570,0.005189,-0.002548,4.043381,-19.240410,-19.720909,,,,,,,
1512176730.486121,0.252809,0.894723,0.907289,0.039621,-0.001876,-0.006334,0.156512,-0.780035,-0.605845,0.003065,0.005774,-0.003591,4.268311,-19.240074,-19.872826,,,,,,,
1512176730.506140,0.253266,0.895589,0.906788,0.044904,0.006671,-0.003030,0.156619,-0.780577,-0.605119,-0.000034,0.006301,-0.000716,4.041855,-19.615410,-19.421089,,,,,,,
1512176730.526129,0.253656,0.896240,0.906371,0.029042,-0.001879,-0.010749,0.156728,-0.780984,-0.604566,-0.001637,0.006707,0.000898,4.192078,-19.540184,-19.647331,,,,,,,
1512176730.546149,0.254148,0.896414,0.905643,0.010035,-0.000825,-0.022752,0.156991,-0.781093,-0.604357,-0.004892,0.006312,0.005282,4.041367,-19.690422,-19.721123,,,,,,,
1512176730.566138,0.254901,0.896506,0.904925,0.012156,0.017339,-0.020523,0.157428,-0.781150,-0.604170,-0.002948,0.006843,0.008543,4.342377,-19.464958,-19.723564,,,,,,,
1512176730.586127,0.256045,0.896703,0.904130,0.015421,0.029103,-0.023632,0.158080,-0.781273,-0.603840,0.000276,0.004769,0.010212,4.342377,-19.464958,-19.723564,,,,,,,
1512176730.606146,0.256894,0.896590,0.903369,-0.009104,-0.002980,-0.025166,0.158615,-0.781203,-0.603791,0.004776,0.008635,-0.000960,4.266251,-19.690086,-19.948036,,,,,,,
1512176730.626135,0.257228,0.896206,0.902622,-0.009093,-0.011524,-0.026262,0.158893,-0.780963,-0.604028,-0.001086,0.004733,-0.001791,4.268051,-19.315086,-19.722862,,,,,,,
1512176730.646155,0.257654,0.896350,0.902033,0.021644,0.005589,-0.015098,0.159122,-0.781053,-0.603851,-0.001437,0.004121,-0.009994,4.267456,-19.465080,-19.572929,,,,,,,
1512176730.666144,0.258525,0.896820,0.901306,0.028090,0.021627,-0.017080,0.159554,-0.781346,-0.603358,-0.002175,-0.001948,-0.005392,4.117447,-19.465309,-19.571648,,,,,,,
1512176730.686133,0.259430,0.897174,0.900554,0.017482,0.012006,-0.020464,0.160028,-0.781567,-0.602946,-0.001718,0.001446,-0.003347,4.268387,-19.240074,-19.722832,,,,,,,
1512176730.706152,0.260275,0.897267,0.899736,0.011110,0.003452,-0.022720,0.160519,-0.781625,-0.602740,0.004382,0.004434,-0.004911,4.492340,-19.464745,-19.799843,,,,,,,
1512176730.726142,0.260360,0.897571,0.899404,0.022416,-0.012603,0.001907,0.160510,-0.781815,-0.602497,0.004133,0.008041,-0.003445,4.417038,-19.539848,-19.724236,,,,,,,
1512176730.746161,0.260189,0.898138,0.899242,0.031021,-0.010442,-0.002224,0.160292,-0.782168,-0.602096,-0.007246,0.011767,0.004257,4.267456,-19.465080,-19.572929,,,,,,,
1512176730.766150,0.260614,0.898580,0.898723,0.019465,0.004514,-0.011934,0.160459,-0.782444,-0.601693,-0.004255,0.001804,0.005593,3.965240,-19.915535,-19.945595,,,,,,,
1512176730.786139,0.261051,0.898539,0.898211,-0.006010,0.001284,-0.018710,0.160730,-0.782418,-0.601654,-0.004022,0.004220,0.004349,4.042374,-19.465416,-19.721016,,,,,,,
1512176730.806159,0.261473,0.898219,0.897748,-0.013539,0.000198,-0.014558,0.161049,-0.782218,-0.601828,0.001228,0.004508,0.006552,4.643127,-19.314522,-19.576042,,,,,,,
1512176730.826148,0.261792,0.897847,0.897437,-0.016745,0.004460,-0.014593,0.161316,-0.781987,-0.602058,0.000107,0.004292,-0.000527,4.190979,-19.765190,-19.797432,,,,,,,
1512176730.846167,0.261661,0.897597,0.897564,-0.010708,-0.005187,0.006782,0.161288,-0.781831,-0.602268,0.001645,0.007569,-0.003704,3.966354,-19.690529,-19.720482,,,,,,,
1512176730.866156,0.261335,0.897350,0.897833,-0.014924,0.000156,0.004610,0.161141,-0.781677,-0.602507,-0.001687,0.010818,0.000136,4.491394,-19.689751,-19.649956,,,,,,,
1512176730.886145,0.261156,0.897245,0.898191,-0.003384,0.009758,0.015467,0.161055,-0.781612,-0.602615,0.004732,0.007091,0.001312,4.117340,-19.465309,-19.796654,,,,,,,
1512176730.906165,0.260782,0.897329,0.898764,0.000855,0.003360,0.017643,0.160812,-0.781664,-0.602611,-0.002609,0.007372,0.002651,4.416397,-19.689857,-19.649315,,,,,,,
1512176730.926154,0.260535,0.897241,0.899209,-0.012894,0.004420,0.011051,0.160681,-0.781609,-0.602718,-0.001517,0.001946,0.003978,4.491364,-19.689751,-19.724953,,,,,,,
1512176730.946173,0.260227,0.896747,0.899646,-0.034092,0.000129,0.003266,0.160595,-0.781301,-0.603140,-0.000118,0.003606,-0.001169,4.341354,-19.689964,-19.723671,,,,,,,
1512176730.966162,0.259787,0.896103,0.900100,-0.032042,-0.005221,0.007539,0.160459,-0.780899,-0.603697,0.003238,0.004684,-0.004701,4.041656,-19.615410,-19.796089,,,,,,,
1512176730.986151,0.259360,0.895830,0.900542,-0.008595,0.000160,0.008967,0.160256,-0.780728,-0.603972,-0.000222,0.008664,-0.004228,3.966705,-19.615532,-19.720451,,,,,,,
1512176731.006171,0.259175,0.895916,0.900817,0.006242,0.000166,0.013443,0.160127,-0.780782,-0.603937,0.006148,0.006261,0.001916,4.267639,-19.390083,-19.872902,,,,,,,
1512176731.026160,0.258846,0.896145,0.901209,0.008404,-0.001957,0.012404,0.159882,-0.780925,-0.603816,-0.001466,0.011760,0.005580,4.042404,-19.465416,-19.646019,,,,,,,
1512176731.046179,0.258833,0.896193,0.901300,-0.002137,0.006581,0.004816,0.159865,-0.780955,-0.603782,0.003450,0.004709,0.004631,3.968048,-19.315529,-19.720314,,,,,,,
1512176731.066168,0.258650,0.896211,0.901580,-0.000075,0.001237,0.009092,0.159751,-0.780966,-0.603798,0.000192,0.006689,0.001426,4.116470,-19.690315,-19.496758,,,,,,,
1512176731.086157,0.258828,0.896219,0.901573,0.000146,0.010878,-0.003663,0.159856,-0.780971,-0.603763,-0.000646,0.003276,0.002109,4.043121,-19.315422,-19.570946,,,,,,,
1512176731.106177,0.258820,0.896125,0.901685,-0.008544,-0.004106,0.005755,0.159871,-0.780912,-0.603835,0.005062,0.001036,-0.004792,4.042297,-19.465416,-19.871025,,,,,,,
1512176731.126166,0.258236,0.896067,0.902118,-0.004474,-0.014808,0.016435,0.159529,-0.780876,-0.603973,0.001054,0.000770,-0.007401,4.042709,-19.390419,-19.720985,,,,,,,
1512176731.146185,0.257510,0.896153,0.902685,-0.000217,-0.014805,0.016495,0.159074,-0.780930,-0.604024,-0.006989,0.004715,-0.009426,4.043732,-19.165413,-19.720879,,,,,,,
1512176731.166139,0.257087,0.896086,0.903107,-0.009671,0.001228,0.010023,0.158831,-0.780888,-0.604141,-0.004336,0.004185,-0.008057,4.268341,-19.240074,-19.797829,,,,,,,
1512176731.186128,0.256415,0.896051,0.903852,-0.004683,-0.010561,0.029239,0.158432,-0.780866,-0.604274,-0.000901,0.000776,-0.014454,3.967896,-19.315529,-20.020317,,,,,,,
1512176731.206148,0.255500,0.896445,0.904897,0.019691,0.004408,0.038170,0.157802,-0.781112,-0.604121,-0.003398,0.004638,-0.001744,4.042267,-19.465416,-19.946022,,,,,,,
1512176731.226137,0.254775,0.897121,0.906050,0.023821,0.003333,0.046757,0.157230,-0.781534,-0.603724,0.002071,0.002634,-0.004018,4.043091,-19.315422,-19.645958,,,,,,,
1512176731.246157,0.253732,0.897473,0.907204,-0.002563,-0.008421,0.030345,0.156532,-0.781754,-0.603621,-0.003685,0.010880,0.003585,4.043121,-19.315422,-19.570946,,,,,,,
1512176731.266146,0.252820,0.897376,0.908011,-0.010959,-0.015890,0.022738,0.156000,-0.781693,-0.603838,0.002874,0.007401,0.007783,4.343979,-19.089958,-19.873390,,,,,,,
1512176731.286135,0.252023,0.897401,0.908697,-0.001324,-0.008400,0.019701,0.155514,-0.781709,-0.603943,0.003116,0.004731,0.007889,3.817490,-19.465752,-19.494102,,,,,,,
1512176731.306154,0.251303,0.897507,0.909460,-0.001429,-0.010548,0.026089,0.155058,-0.781775,-0.603974,0.002199,0.007254,0.002045,3.818054,-19.315758,-19.719032,,,,,,,
1512176731.326143,0.250661,0.897511,0.910134,-0.007660,0.000135,0.015370,0.154670,-0.781778,-0.604070,0.000100,0.007486,0.005270,3.891022,-19.765648,-19.719887,,,,,,,
1512176731.346163,0.250042,0.897407,0.910768,-0.011999,-0.011621,0.020602,0.154316,-0.781712,-0.604245,0.003139,0.009617,0.005002,3.968506,-19.240532,-19.495277,,,,,,,
1512176731.366152,0.249201,0.897247,0.911409,-0.015098,-0.018023,0.014138,0.153839,-0.781613,-0.604495,-0.002761,0.013165,0.007846,3.968460,-19.240532,-19.570274,,,,,,,
1512176731.386141,0.248517,0.896800,0.912038,-0.034312,-0.009511,0.016021,0.153511,-0.781334,-0.604940,0.002541,0.002174,0.002996,4.192368,-19.465187,-19.722298,,,,,,,
1512176731.406160,0.247707,0.896036,0.912730,-0.044819,-0.014851,0.006255,0.153168,-0.780857,-0.605642,-0.001129,0.004886,-0.005381,4.268494,-19.240074,-19.497826,,,,,,,
1512176731.426149,0.247091,0.895272,0.913206,-0.033128,-0.010565,0.008571,0.152940,-0.780379,-0.606315,0.005049,0.002715,-0.011193,3.668716,-19.165977,-19.717690,,,,,,,
1512176731.446169,0.246330,0.895193,0.913926,0.006035,-0.005196,0.026216,0.152494,-0.780330,-0.606491,0.000048,0.006557,-0.005738,4.192337,-19.465187,-19.797295,,,,,,,
1512176731.466158,0.245930,0.895611,0.914615,0.015574,0.008693,0.029598,0.152172,-0.780591,-0.606235,-0.001400,0.003385,-0.001400,4.043793,-19.165413,-19.570885,,,,,,,
1512176731.486147,0.245369,0.895878,0.915345,-0.000216,-0.001984,0.017608,0.151781,-0.780758,-0.606119,-0.008196,0.009884,0.005441,4.043167,-19.315422,-19.495949,,,,,,,
1512176731.506166,0.245079,0.895507,0.915785,-0.031005,0.001186,0.009709,0.151675,-0.780526,-0.606443,0.005338,0.001367,0.004759,3.818115,-19.315758,-19.569038,,,,,,,
1512176731.526155,0.244312,0.894799,0.916464,-0.040630,-0.018058,0.010568,0.151344,-0.780083,-0.607096,-0.001548,0.005563,-0.001028,4.117416,-19.465309,-19.646660,,,,,,,
1512176731.546175,0.243656,0.894159,0.916938,-0.026733,-0.009488,0.008668,0.151066,-0.779683,-0.607679,0.001659,0.006871,-0.000155,3.966354,-19.690529,-19.720482,,,,,,,
1512176731.566164,0.243133,0.893986,0.917540,-0.006603,0.002282,0.017531,0.150781,-0.779574,-0.607889,-0.000924,0.007266,-0.003897,3.669098,-19.090981,-19.642662,,,,,,,
1512176731.586153,0.242809,0.894026,0.918038,-0.003375,0.001221,0.015441,0.150577,-0.779599,-0.607908,0.004865,0.004117,-0.002078,4.044022,-19.090416,-19.795845,,,,,,,
1512176731.606172,0.241865,0.893904,0.918796,-0.017405,-0.030868,0.023653,0.150025,-0.779523,-0.608142,0.006515,0.002103,-0.010358,3.893082,-19.315636,-19.644676,,,,,,,
1512176731.626161,0.240498,0.893670,0.919669,-0.013148,-0.034068,0.023702,0.149237,-0.779377,-0.608523,0.000711,0.000736,-0.009107,3.817780,-19.390755,-19.569069,,,,,,,
1512176731.646181,0.239287,0.893825,0.920488,0.009214,-0.020150,0.026208,0.148471,-0.779474,-0.608586,-0.002704,0.000329,-0.006435,3.593048,-19.316093,-19.717125,,,,,,,
1512176731.666170,0.238881,0.894151,0.921050,0.012550,0.008708,0.018893,0.148164,-0.779678,-0.608399,-0.008256,0.005859,0.009614,4.043381,-19.240410,-19.720909,,,,,,,
1512176731.686159,0.238412,0.894293,0.921607,-0.007690,-0.013747,0.017458,0.147852,-0.779766,-0.608362,-0.004267,0.006970,-0.007651,3.818527,-19.240761,-19.419014,,,,,,,
1512176731.706179,0.237754,0.893997,0.922050,-0.017075,-0.010528,0.005609,0.147507,-0.779582,-0.608682,-0.005035,0.006770,0.001657,3.968307,-19.240532,-19.870277,,,,,,,
1512176731.726168,0.237546,0.893972,0.922524,0.003988,0.011894,0.020911,0.147385,-0.779565,-0.608732,0.005157,0.002374,-0.003008,3.744171,-19.090858,-19.493294,,,,,,,
1512176731.746187,0.237066,0.894286,0.923215,0.009299,-0.005185,0.021998,0.147035,-0.779762,-0.608565,0.002105,0.007210,-0.004197,3.968536,-19.240532,-19.420280,,,,,,,
1512176731.766176,0.236373,0.894385,0.923845,-0.002397,-0.012676,0.019670,0.146595,-0.779824,-0.608592,0.000515,0.003839,0.001154,3.668945,-19.090981,-19.942650,,,,,,,
1512176731.786165,0.235740,0.894476,0.924340,0.001975,-0.010520,0.013345,0.146193,-0.779881,-0.608615,-0.001540,0.005116,0.002109,3.818161,-19.315758,-19.494041,,,,,,,
1512176731.806185,0.235313,0.894680,0.924793,0.008318,-0.003042,0.016660,0.145896,-0.780009,-0.608523,-0.000541,0.006205,0.003741,3.893341,-19.240639,-19.794640,,,,,,,
1512176731.826174,0.234996,0.894822,0.925111,0.000992,-0.000897,0.009101,0.145678,-0.780098,-0.608462,-0.002535,0.006782,0.005099,3.741959,-19.540871,-19.868507,,,,,,,
1512176731.846193,0.234688,0.894704,0.925491,-0.015054,-0.004133,0.012054,0.145512,-0.780024,-0.608596,0.003582,0.002344,-0.001008,3.742706,-19.390862,-19.718437,,,,,,,
1512176731.866182,0.234188,0.894308,0.925829,-0.024488,-0.014813,0.001218,0.145279,-0.779776,-0.608969,0.000473,0.008200,-0.005549,3.667374,-19.465981,-19.717827,,,,,,,
1512176731.886171,0.233869,0.893988,0.925949,-0.008505,-0.010513,0.002533,0.145142,-0.779576,-0.609258,0.005706,0.001408,-0.003734,3.743042,-19.315865,-19.718407,,,,,,,
1512176731.906191,0.233659,0.894047,0.926058,0.006433,-0.003015,0.001708,0.145004,-0.779613,-0.609244,0.004868,0.003642,-0.003763,3.443344,-19.241310,-19.790825,,,,,,,
1512176731.926180,0.233810,0.894151,0.926002,0.002254,0.007665,-0.003649,0.145077,-0.779678,-0.609143,-0.001934,0.008560,0.006268,3.818726,-19.165749,-19.718971,,,,,,,
1512176731.946199,0.234139,0.894068,0.925846,-0.004012,0.014087,-0.010109,0.145292,-0.779626,-0.609158,-0.000395,0.006081,0.002896,3.667679,-19.390984,-19.792809,,,,,,,
1512176731.966188,0.234354,0.893919,0.925748,-0.009555,0.005503,0.001504,0.145451,-0.779533,-0.609240,0.002117,0.006233,0.004000,3.817749,-19.390755,-19.644081,,,,,,,
1512176731.986177,0.234200,0.893657,0.926040,-0.018177,-0.000924,0.007757,0.145404,-0.779368,-0.609461,0.001599,0.005839,-0.006506,3.593719,-19.166084,-19.717049,,,,,,,
1512176732.006197,0.233614,0.893383,0.926740,-0.017433,-0.002032,0.026951,0.145096,-0.779197,-0.609753,0.003585,0.003471,-0.004489,3.593948,-19.091087,-19.942024,,,,,,,
1512176732.026186,0.232683,0.893342,0.927704,-0.007865,-0.013768,0.028116,0.144536,-0.779171,-0.609920,-0.003408,0.009304,-0.004918,3.818390,-19.240761,-19.719002,,,,,,,
1512176732.046205,0.232023,0.893212,0.928330,-0.015084,-0.007338,0.014177,0.144157,-0.779089,-0.610114,-0.000144,0.003363,-0.002252,3.893082,-19.315636,-19.644676,,,,,,,
1512176732.066194,0.231315,0.892800,0.928826,-0.029922,-0.019105,0.007521,0.143798,-0.778831,-0.610528,0.004807,0.001640,0.000664,3.968048,-19.315529,-19.720314,,,,,,,
1512176732.086183,0.230462,0.892158,0.929147,-0.033026,-0.041527,0.001003,0.143392,-0.778428,-0.611137,0.008204,-0.000228,-0.002571,4.043793,-19.165413,-19.570885,,,,,,,
1512176732.106203,0.229319,0.891711,0.929609,-0.015071,-0.026566,0.011976,0.142772,-0.778147,-0.611639,-0.006023,0.007792,-0.003503,3.593460,-19.241096,-19.567085,,,,,,,
1512176732.126192,0.229162,0.891734,0.929759,0.006444,0.011940,0.001760,0.142672,-0.778162,-0.611644,-0.005968,0.005106,-0.000340,3.967789,-19.390526,-19.570351,,,,,,,
1512176732.146211,0.229645,0.891872,0.929629,0.007656,0.014097,-0.006743,0.142943,-0.778249,-0.611471,0.000093,0.007894,-0.000895,3.969330,-19.015526,-19.870171,,,,,,,
1512176732.166179,0.229880,0.891978,0.929384,0.008643,-0.001938,-0.003590,0.143068,-0.778315,-0.611357,0.007659,0.006724,0.006651,3.667068,-19.540977,-19.642876,,,,,,,
1512176732.186168,0.229575,0.892094,0.929580,-0.001186,-0.012662,0.010089,0.142861,-0.778388,-0.611312,0.000831,0.008262,0.004318,3.742371,-19.465858,-19.718468,,,,,,,
1512176732.206187,0.229339,0.891915,0.929702,-0.012635,0.000171,-0.006022,0.142748,-0.778275,-0.611482,-0.005343,0.007661,0.000962,3.365234,-19.916435,-19.940483,,,,,,,
1512176732.226176,0.229387,0.891565,0.929685,-0.014849,0.003363,-0.000712,0.142839,-0.778056,-0.611740,0.004911,0.003809,-0.005432,3.818008,-19.315758,-19.794044,,,,,,,
1512176732.246196,0.229334,0.891625,0.929728,0.014952,-0.002999,0.002900,0.142796,-0.778094,-0.611702,-0.001225,0.004793,-0.000450,3.893692,-19.165642,-19.794609,,,,,,,
1512176732.266185,0.229514,0.892003,0.929685,0.014974,0.008751,0.001874,0.142840,-0.778331,-0.611390,-0.001513,0.001857,-0.000289,3.667709,-19.390984,-19.717796,,,,,,,
1512176732.286174,0.229700,0.891901,0.929468,-0.014635,-0.005151,-0.013529,0.142971,-0.778267,-0.611441,-0.002301,0.005470,-0.005105,3.668686,-19.165977,-19.792702,,,,,,,
1512176732.306193,0.229635,0.891543,0.929283,-0.010487,-0.009434,-0.007089,0.142995,-0.778042,-0.611722,0.001170,0.000866,-0.010379,3.818985,-19.090752,-19.868935,,,,,,,
1512176732.326182,0.229426,0.891832,0.929336,0.029767,-0.002997,0.008440,0.142816,-0.778223,-0.611532,0.000296,0.003962,-0.005228,3.743729,-19.165871,-19.718330,,,,,,,
1512176732.346202,0.229374,0.892600,0.929551,0.032889,0.007681,0.013854,0.142648,-0.778706,-0.610957,-0.003915,0.003712,-0.006124,3.594360,-19.016090,-19.791985,,,,,,,
1512176732.366191,0.229441,0.892893,0.929418,0.003417,-0.002995,-0.008995,0.142637,-0.778889,-0.610726,-0.000807,0.006337,-0.002403,3.819290,-19.015755,-19.943901,,,,,,,
1512176732.386180,0.229386,0.892742,0.929234,-0.006334,-0.014782,-0.000651,0.142630,-0.778794,-0.610848,0.007699,0.004289,0.000299,3.593384,-19.241096,-19.717094,,,,,,,
1512176732.406199,0.228926,0.892856,0.929340,0.011697,-0.020104,0.004923,0.142329,-0.778866,-0.610827,-0.001705,0.009731,-0.003034,3.518463,-19.241203,-19.566444,,,,,,,
1512176732.426188,0.228884,0.893236,0.929245,0.024534,0.001281,0.003050,0.142237,-0.779105,-0.610544,0.002447,0.010443,0.001856,3.594177,-19.091087,-19.492027,,,,,,,
1512176732.446208,0.229048,0.893810,0.929169,0.029879,0.006637,0.003149,0.142235,-0.779464,-0.610086,0.001884,0.010299,0.006265,3.893494,-19.240639,-19.494637,,,,,,,
1512176732.466197,0.229254,0.894177,0.929102,0.009582,0.003393,0.004974,0.142296,-0.779694,-0.609778,0.001946,0.010758,0.013984,3.818756,-19.165749,-19.643974,,,,,,,
1512176732.486186,0.229165,0.894044,0.929146,-0.013690,-0.005164,-0.006052,0.142265,-0.779611,-0.609892,-0.000389,0.010919,0.009443,3.817825,-19.390755,-19.494072,,,,,,,
1512176732.506205,0.229059,0.893577,0.929121,-0.026551,-0.004132,-0.003042,0.142283,-0.779318,-0.610261,0.000844,0.006735,0.008119,3.593384,-19.241096,-19.717094,,,,,,,
1512176732.526194,0.228753,0.893003,0.929288,-0.028694,-0.010540,-0.002026,0.142198,-0.778958,-0.610740,-0.005021,0.009320,-0.000512,3.594467,-19.016090,-19.566978,,,,,,,
1512176732.546214,0.228669,0.892418,0.929233,-0.027521,-0.004118,-0.008384,0.142250,-0.778591,-0.611196,-0.000862,-0.002018,-0.004862,3.745453,-18.790855,-19.643166,,,,,,,
1512176732.566203,0.228485,0.891920,0.929298,-0.021215,-0.006255,-0.002970,0.142225,-0.778279,-0.611599,-0.001447,0.000630,-0.012027,3.368729,-19.166435,-19.715141,,,,,,,
1512176732.586222,0.228558,0.891606,0.929265,-0.010510,0.002313,-0.004916,0.142325,-0.778082,-0.611827,-0.001334,0.000662,-0.009847,3.595367,-18.791084,-19.791893,,,,,,,
1512176732.606211,0.228443,0.891598,0.929341,0.007468,-0.004083,0.003852,0.142256,-0.778077,-0.611849,-0.001478,0.002869,-0.012006,3.668762,-19.165977,-19.642693,,,,,,,
1512176732.626200,0.228619,0.891846,0.929321,0.010702,0.011944,0.001820,0.142320,-0.778232,-0.611637,-0.003114,0.002506,-0.004696,3.595749,-18.716087,-19.716850,,,,,,,
1512176732.646220,0.228696,0.892020,0.929342,0.005384,0.001256,0.000640,0.142336,-0.778342,-0.611493,-0.003192,0.004813,-0.001681,3.594055,-19.091087,-19.717018,,,,,,,
1512176732.666209,0.229041,0.891958,0.928976,-0.002861,0.006617,-0.016518,0.142558,-0.778303,-0.611491,-0.000316,0.003538,0.003001,3.293839,-19.166542,-19.489510,,,,,,,
1512176732.686229,0.229606,0.891796,0.928548,-0.005008,0.010884,-0.015469,0.142932,-0.778201,-0.611534,0.002362,0.006869,-0.004937,3.819809,-18.940758,-19.568855,,,,,,,
1512176732.706218,0.230329,0.891555,0.927928,-0.008063,0.010897,-0.024041,0.143417,-0.778049,-0.611613,0.002747,0.006214,0.002208,3.891693,-19.615639,-19.719810,,,,,,,
1512176732.726207,0.230797,0.891464,0.927453,0.003446,0.000209,-0.011118,0.143719,-0.777993,-0.611614,0.004214,0.007393,-0.001652,3.593567,-19.241096,-19.342094,,,,,,,
1512176732.746226,0.231117,0.891599,0.927071,0.010907,0.003424,-0.010999,0.143892,-0.778077,-0.611466,0.001326,0.007951,0.000107,3.668457,-19.240974,-19.567726,,,,,,,
1512176732.766215,0.231439,0.891824,0.926800,0.013963,0.004479,-0.002423,0.144048,-0.778219,-0.611249,0.001917,0.007619,-0.000827,3.744141,-19.090858,-19.568291,,,,,,,
1512176732.786235,0.231826,0.891953,0.926406,0.005639,0.007697,-0.014258,0.144262,-0.778299,-0.611096,-0.005910,0.009882,0.002545,3.893387,-19.240639,-19.719643,,,,,,,
1512176732.806224,0.232269,0.891849,0.926037,-0.005134,0.003393,-0.008034,0.144551,-0.778234,-0.611111,-0.000340,0.003225,0.002163,3.667679,-19.390984,-19.792809,,,,,,,
1512176732.826213,0.232455,0.891719,0.925995,-0.005211,0.012998,-0.002670,0.144688,-0.778153,-0.611182,0.000545,0.003647,-0.001397,3.817673,-19.390755,-19.794075,,,,,,,
1512176732.846232,0.232528,0.891566,0.926099,-0.010698,-0.000918,0.005729,0.144760,-0.778057,-0.611287,0.002731,0.002346,-0.005412,3.592743,-19.391090,-19.642159,,,,,,,
1512176732.866221,0.232401,0.891237,0.926045,-0.014688,-0.011572,-0.011423,0.144741,-0.777850,-0.611555,-0.006588,0.007967,-0.000398,3.439926,-19.991325,-19.866158,,,,,,,
1512176732.886241,0.232666,0.891102,0.925686,0.005586,0.002352,-0.011078,0.144928,-0.777765,-0.611619,0.002320,0.002054,-0.004348,3.519516,-19.016197,-19.491356,,,,,,,
1512176732.906230,0.233088,0.891357,0.925244,0.018426,0.005580,-0.014080,0.145140,-0.777925,-0.611365,-0.003569,0.005601,-0.000299,3.592667,-19.391090,-19.792168,,,,,,,
1512176732.926219,0.233854,0.891622,0.924576,0.015256,0.013057,-0.015165,0.145560,-0.778092,-0.611053,0.003808,0.005783,-0.000489,3.742371,-19.465858,-19.718468,,,,,,,
1512176732.946238,0.234429,0.891935,0.924002,0.021618,0.008785,-0.014024,0.145855,-0.778288,-0.610732,0.001270,0.010603,0.002090,3.442337,-19.466316,-19.790932,,,,,,,
1512176732.966227,0.235220,0.892222,0.923347,0.017370,0.011990,-0.014071,0.146286,-0.778469,-0.610399,0.004669,0.007854,0.005952,3.667740,-19.390984,-19.642799,,,,,,,
1512176732.986247,0.235585,0.892300,0.922827,-0.001750,-0.007260,-0.019748,0.146495,-0.778517,-0.610287,-0.003581,0.011549,0.005475,3.668457,-19.240974,-19.567726,,,,,,,
1512176733.006236,0.235944,0.892018,0.922240,-0.010283,-0.001931,-0.018785,0.146765,-0.778340,-0.610448,-0.001456,0.006246,0.009068,3.593842,-19.166084,-19.492058,,,,,,,
1512176733.026225,0.236505,0.891675,0.921621,-0.013338,0.004489,-0.027337,0.147170,-0.778125,-0.610624,-0.001204,0.008747,-0.001451,3.744400,-19.015862,-19.718254,,,,,,,
1512176733.046244,0.237404,0.891335,0.920784,-0.008018,0.016245,-0.026153,0.147781,-0.777911,-0.610749,0.002579,0.003650,-0.001998,3.517639,-19.391212,-19.866524,,,,,,,
1512176733.066233,0.238091,0.891167,0.920144,0.000412,0.006633,-0.020734,0.148231,-0.777806,-0.610775,0.002983,0.004063,-0.010243,3.817703,-19.390755,-19.719078,,,,,,,
1512176733.086253,0.238720,0.891257,0.919437,0.013165,0.004511,-0.018424,0.148599,-0.777862,-0.610613,-0.000406,0.000671,-0.004117,3.893311,-19.240639,-19.869637,,,,,,,
1512176733.106242,0.239260,0.891470,0.918807,0.016339,0.003443,-0.017317,0.148890,-0.777996,-0.610372,-0.002116,0.002041,-0.006816,3.817444,-19.465752,-19.569099,,,,,,,
1512176733.126231,0.240099,0.891558,0.917995,0.006897,0.015196,-0.025942,0.149385,-0.778052,-0.610180,-0.004381,0.003302,-0.002659,3.893753,-19.165642,-19.644615,,,,,,,
1512176733.146251,0.240922,0.891678,0.917218,0.018476,0.005585,-0.017278,0.149865,-0.778127,-0.609966,0.001258,0.004354,-0.004475,3.819702,-18.940758,-19.793861,,,,,,,
1512176733.166206,0.241535,0.892195,0.916639,0.032211,0.010931,-0.009598,0.150143,-0.778451,-0.609484,-0.002651,0.006845,0.008623,3.818314,-19.240761,-19.869011,,,,,,,
1512176733.186225,0.242028,0.892614,0.916209,0.015192,0.002366,-0.012006,0.150365,-0.778715,-0.609093,-0.003698,0.007856,-0.001030,3.668427,-19.240974,-19.642738,,,,,,,
1512176733.206214,0.242526,0.892503,0.915595,-0.007001,0.003422,-0.024051,0.150689,-0.778645,-0.609102,-0.003366,0.005833,0.003374,3.516739,-19.616203,-19.641624,,,,,,,
1512176733.226202,0.242968,0.892333,0.915109,0.001332,0.002343,-0.012208,0.150990,-0.778538,-0.609164,0.002544,0.004276,-0.003782,4.043762,-19.165413,-19.645882,,,,,,,
1512176733.246222,0.243543,0.892482,0.914587,0.015287,0.013059,-0.017297,0.151312,-0.778632,-0.608964,-0.002249,0.008017,0.001313,4.192978,-19.315193,-19.872231,,,,,,,
1512176733.266212,0.244293,0.892572,0.913941,0.003574,0.009837,-0.018545,0.151752,-0.778688,-0.608783,0.003155,0.003191,0.001956,4.043091,-19.315422,-19.645958,,,,,,,
1512176733.286231,0.244943,0.892426,0.913252,-0.004795,0.005571,-0.028276,0.152175,-0.778596,-0.608794,0.001694,0.007982,0.004882,3.894180,-19.090630,-19.494576,,,,,,,
1512176733.306220,0.245702,0.892213,0.912406,0.000549,0.001309,-0.029279,0.152678,-0.778463,-0.608839,0.000520,0.008580,0.001021,4.043381,-19.240410,-19.720909,,,,,,,
1512176733.326209,0.246732,0.892280,0.911294,0.017722,0.014168,-0.035380,0.153292,-0.778505,-0.608631,0.001676,0.007905,-0.002331,3.817703,-19.390755,-19.719078,,,,,,,
1512176733.346229,0.247767,0.892521,0.910364,0.018514,0.010929,-0.019391,0.153876,-0.778656,-0.608290,0.002817,0.004151,-0.004350,4.192291,-19.465187,-19.872292,,,,,,,
1512176733.366218,0.248369,0.892742,0.909686,0.016401,0.003447,-0.021583,0.154200,-0.778795,-0.608030,-0.004145,0.008424,-0.001070,3.891663,-19.615639,-19.794823,,,,,,,
1512176733.386237,0.249057,0.892936,0.909009,0.015216,0.009846,-0.013045,0.154581,-0.778916,-0.607778,0.000113,0.004411,-0.001978,3.817749,-19.390755,-19.644081,,,,,,,
1512176733.406226,0.249711,0.893054,0.908494,0.005702,0.014109,-0.018501,0.154955,-0.778991,-0.607587,-0.003680,0.006667,-0.001727,3.892075,-19.540642,-19.644783,,,,,,,
1512176733.426215,0.250591,0.892975,0.907701,-0.000573,0.010909,-0.026066,0.155505,-0.778941,-0.607511,0.002866,0.000773,-0.003161,3.967712,-19.390526,-19.720345,,,,,,,
1512176733.446235,0.251100,0.893001,0.907014,0.013177,-0.008303,-0.019534,0.155810,-0.778957,-0.607412,0.002577,0.005184,-0.004481,4.492966,-19.314735,-19.874779,,,,,,,
1512176733.466224,0.251515,0.893274,0.906369,0.021610,0.001307,-0.014051,0.156009,-0.779128,-0.607141,-0.000568,0.001937,-0.002844,4.417374,-19.464851,-19.724205,,,,,,,
1512176733.486243,0.252085,0.893739,0.905730,0.031232,0.006668,-0.014957,0.156265,-0.779419,-0.606701,-0.000808,0.005646,-0.004749,4.266693,-19.615074,-19.723000,,,,,,,
1512176733.506232,0.252993,0.894297,0.904905,0.035533,0.014155,-0.017002,0.156707,-0.779769,-0.606138,0.003022,0.004027,0.002058,4.117416,-19.465309,-19.646660,,,,,,,
1512176733.526221,0.253765,0.894847,0.904129,0.033469,0.005616,-0.021324,0.157066,-0.780114,-0.605601,-0.002220,0.005837,0.002177,4.118729,-19.165306,-19.721519,,,,,,,
1512176733.546241,0.254705,0.895270,0.903107,0.022890,0.007749,-0.025733,0.157552,-0.780378,-0.605134,0.003947,0.005583,0.013017,4.266693,-19.615074,-19.723000,,,,,,,
1512176733.566230,0.255166,0.895434,0.902511,0.006652,-0.004060,-0.012154,0.157800,-0.780481,-0.604938,0.001411,0.008157,0.003055,4.193054,-19.315193,-19.722221,,,,,,,
1512176733.586249,0.255551,0.895301,0.901955,-0.009203,0.001267,-0.020897,0.158058,-0.780397,-0.604977,-0.001030,0.008318,0.001843,4.118118,-19.315300,-19.571587,,,,,,,
1512176733.606238,0.256033,0.894978,0.901390,-0.008132,0.000211,-0.019813,0.158414,-0.780195,-0.605145,0.000980,0.006926,-0.008915,4.341995,-19.539970,-19.798607,,,,,,,
1512176733.626228,0.256583,0.894908,0.900891,0.008761,0.011962,-0.009935,0.158760,-0.780152,-0.605110,0.004967,0.004425,-0.005485,4.193466,-19.240196,-19.572182,,,,,,,
1512176733.646247,0.256717,0.895307,0.900906,0.023314,0.002323,0.011561,0.158762,-0.780401,-0.604788,0.003805,0.002005,-0.009470,4.042038,-19.540413,-19.721046,,,,,,,
1512176733.666236,0.256638,0.895764,0.900982,0.019115,0.001262,0.008301,0.158624,-0.780687,-0.604455,0.002646,0.001543,-0.004477,4.266327,-19.690086,-19.798042,,,,,,,
1512176733.686256,0.256334,0.896303,0.901190,0.027531,-0.011554,0.014776,0.158334,-0.781023,-0.604097,-0.003228,0.008211,-0.000777,4.342789,-19.389961,-19.573540,,,,,,,
1512176733.706245,0.256252,0.896798,0.901233,0.017075,0.004474,0.002953,0.158186,-0.781332,-0.603736,-0.008421,0.015311,0.013160,4.342377,-19.464958,-19.723564,,,,,,,
1512176733.726234,0.256334,0.896864,0.901252,-0.005329,-0.000903,0.003675,0.158222,-0.781374,-0.603673,0.001156,0.004885,0.007145,3.891586,-19.615639,-19.944817,,,,,,,
1512176733.746253,0.255988,0.896586,0.901454,-0.015963,-0.014802,0.001341,0.158069,-0.781200,-0.603938,0.004864,0.003032,-0.001790,4.117416,-19.465309,-19.646660,,,,,,,
1512176733.766242,0.255242,0.896427,0.901926,-0.006676,-0.020165,0.019579,0.157649,-0.781101,-0.604175,0.002904,0.006107,-0.005978,4.268387,-19.240074,-19.722832,,,,,,,
1512176733.786262,0.254545,0.896529,0.902483,0.003006,-0.008394,0.014428,0.157208,-0.781164,-0.604208,-0.000546,0.004217,-0.006250,4.268051,-19.315086,-19.722862,,,,,,,
1512176733.806251,0.254184,0.896677,0.902739,0.006319,-0.009439,0.008079,0.156961,-0.781257,-0.604153,0.000159,0.002112,-0.004596,4.042709,-19.390419,-19.720985,,,,,,,
1512176733.826240,0.254140,0.896889,0.902632,0.011871,-0.002992,-0.004609,0.156893,-0.781389,-0.603999,-0.001849,0.003924,0.003993,4.116577,-19.615303,-19.946724,,,,,,,
1512176733.846259,0.254332,0.896979,0.902476,0.002199,0.000183,-0.000477,0.156991,-0.781445,-0.603902,-0.000238,0.004468,0.002949,3.665237,-19.915977,-19.943031,,,,,,,
1512176733.866248,0.254176,0.897083,0.902461,0.007579,-0.008346,-0.003626,0.156876,-0.781510,-0.603847,-0.005005,0.009660,0.003307,4.117752,-19.390312,-19.646629,,,,,,,
1512176733.886268,0.254287,0.897126,0.902337,0.002172,0.002312,0.000594,0.156935,-0.781537,-0.603797,0.000566,0.004559,0.002601,4.266403,-19.690086,-19.648033,,,,,,,
1512176733.906257,0.254029,0.897156,0.902582,-0.002222,-0.004113,0.009040,0.156773,-0.781556,-0.603815,0.000255,0.008744,0.001154,3.817001,-19.540749,-19.794151,,,,,,,
1512176733.926246,0.253688,0.897039,0.903022,-0.012961,0.001195,0.013163,0.156590,-0.781483,-0.603957,0.002421,0.009648,-0.001100,3.591995,-19.541084,-19.792229,,,,,,,
1512176733.946265,0.253355,0.896931,0.903436,-0.001174,-0.000911,0.010131,0.156411,-0.781415,-0.604091,0.002464,0.004712,-0.007069,4.040085,-19.990425,-19.571266,,,,,,,
1512176733.966254,0.253246,0.897063,0.903650,0.004173,0.004439,0.009161,0.156319,-0.781498,-0.604008,0.004112,0.004047,0.002614,3.740265,-19.915871,-19.868675,,,,,,,
1512176733.986274,0.252975,0.897107,0.903892,-0.001119,-0.006242,0.006917,0.156147,-0.781525,-0.604017,0.000088,0.008210,0.005247,3.517380,-19.466209,-19.716560,,,,,,,
1512176734.006263,0.252827,0.896991,0.903985,-0.010670,-0.005188,0.003581,0.156080,-0.781453,-0.604128,0.003787,0.006917,0.007600,3.817749,-19.390755,-19.644081,,,,,,,
1512176734.026252,0.252272,0.896677,0.904354,-0.021365,-0.014819,0.005526,0.155805,-0.781257,-0.604452,-0.004545,0.007469,-0.003169,3.966507,-19.690529,-19.420494,,,,,,,
1512176734.046271,0.251890,0.896216,0.904604,-0.022402,-0.005210,0.003409,0.155664,-0.780969,-0.604860,-0.000498,0.004998,-0.003675,3.815826,-19.840752,-19.419289,,,,,,,
1512176734.066260,0.251670,0.896158,0.904904,0.007336,0.005508,0.011342,0.155543,-0.780933,-0.604938,0.000875,0.004962,-0.005520,3.891479,-19.690651,-19.494850,,,,,,,
1512176734.086280,0.251776,0.896579,0.904984,0.022314,0.007674,0.008369,0.155525,-0.781196,-0.604603,0.001031,-0.000649,0.001194,3.816437,-19.690758,-19.569206,,,,,,,
1512176734.106269,0.251633,0.896715,0.905115,-0.007455,-0.007317,0.002555,0.155412,-0.781281,-0.604523,-0.003419,0.003830,-0.003327,3.967453,-19.465523,-19.570381,,,,,,,
1512176734.126258,0.251363,0.896170,0.905169,-0.031857,-0.011609,-0.004208,0.155355,-0.780940,-0.604977,-0.001439,0.006175,-0.001621,4.043503,-19.240410,-19.495918,,,,,,,
1512176734.146278,0.251144,0.895736,0.905288,-0.011706,-0.003053,0.001439,0.155306,-0.780669,-0.605339,-0.000308,0.008361,-0.007576,3.892441,-19.465645,-19.569740,,,,,,,
1512176734.166256,0.251171,0.895748,0.905362,0.007449,0.009795,0.004963,0.155320,-0.780677,-0.605326,0.004638,0.005668,0.001978,3.516739,-19.616203,-19.641624,,,,,,,
1512176734.186275,0.251129,0.896040,0.905604,0.011555,0.001233,0.013519,0.155238,-0.780859,-0.605111,0.006505,0.005133,-0.003074,3.892410,-19.465645,-19.644753,,,,,,,
1512176734.206264,0.250637,0.896388,0.905981,0.014672,-0.011589,0.017784,0.154873,-0.781076,-0.604924,-0.000592,0.006296,0.006368,3.593155,-19.316093,-19.492134,,,,,,,
1512176734.226253,0.250048,0.896664,0.906546,0.002899,-0.007340,0.020826,0.154464,-0.781249,-0.604807,-0.006774,0.008406,0.006876,4.192780,-19.390190,-19.572258,,,,,,,
1512176734.246273,0.249538,0.896439,0.906994,-0.022442,-0.008413,0.006599,0.154198,-0.781109,-0.605055,-0.003441,0.006832,-0.002077,4.042633,-19.390419,-19.870979,,,,,,,
1512176734.266262,0.249130,0.896043,0.907335,-0.016082,-0.006279,0.007760,0.154027,-0.780861,-0.605418,0.005839,0.005638,-0.007421,3.816360,-19.690758,-19.719215,,,,,,,
1512176734.286281,0.248928,0.896020,0.907613,0.002072,0.005505,0.007000,0.153910,-0.780847,-0.605466,0.000723,0.007058,-0.000155,3.816467,-19.690758,-19.494209,,,,,,,
1512176734.306270,0.248668,0.896106,0.908023,-0.003412,-0.003063,0.016488,0.153736,-0.780901,-0.605441,0.003994,0.003435,0.005222,3.816696,-19.615761,-19.719170,,,,,,,
1512176734.326259,0.248079,0.895941,0.908485,-0.013941,-0.015881,0.007762,0.153411,-0.780797,-0.605657,-0.003494,0.006994,0.006048,3.892303,-19.465645,-19.869743,,,,,,,
1512176734.346279,0.247538,0.895765,0.908938,-0.010882,-0.008418,0.016360,0.153117,-0.780688,-0.605873,-0.000513,0.002978,0.006309,3.817413,-19.465752,-19.644112,,,,,,,
1512176734.366268,0.246790,0.895554,0.909661,-0.021566,-0.007373,0.017272,0.152704,-0.780556,-0.606147,-0.004907,0.008965,0.000907,3.817490,-19.465752,-19.494102,,,,,,,
1512176734.386287,0.246324,0.895132,0.910376,-0.028980,0.007582,0.016155,0.152502,-0.780292,-0.606538,-0.001272,0.006747,0.000382,3.818390,-19.240761,-19.719002,,,,,,,
1512176734.406276,0.245919,0.894468,0.910986,-0.039477,0.001174,0.005318,0.152382,-0.779876,-0.607101,-0.001732,0.002456,-0.008087,3.743042,-19.315865,-19.718407,,,,,,,
1512176734.426265,0.245379,0.893774,0.911534,-0.035367,-0.013793,0.013853,0.152186,-0.779441,-0.607709,0.004598,-0.003579,-0.010791,3.592407,-19.466087,-19.642204,,,,,,,
1512176734.446285,0.244252,0.893383,0.912405,-0.017419,-0.023401,0.023673,0.151574,-0.779197,-0.608175,-0.002756,-0.000649,-0.015314,3.893799,-19.165642,-19.569603,,,,,,,
1512176734.466274,0.243358,0.893441,0.913178,0.002819,-0.006278,0.026161,0.151020,-0.779233,-0.608267,-0.007419,-0.000140,-0.008249,3.817490,-19.465752,-19.494102,,,,,,,
1512176734.486293,0.242748,0.893654,0.914024,0.004962,0.005469,0.025163,0.150609,-0.779367,-0.608198,-0.005849,0.008279,-0.005358,4.042450,-19.465416,-19.571022,,,,,,,
1512176734.506282,0.242336,0.893745,0.914649,-0.002455,-0.000940,0.022904,0.150341,-0.779424,-0.608191,0.000172,0.007100,0.001044,3.740616,-19.840874,-19.868645,,,,,,,
1512176734.526302,0.241481,0.893706,0.915438,-0.009933,-0.015909,0.022742,0.149828,-0.779399,-0.608349,0.000211,0.005610,0.000226,3.893417,-19.240639,-19.644646,,,,,,,
1512176734.546291,0.240624,0.893695,0.916165,-0.000352,-0.012691,0.023959,0.149309,-0.779392,-0.608486,0.006086,0.001697,0.001171,3.968155,-19.315529,-19.495308,,,,,,,
1512176734.566280,0.239740,0.893828,0.916922,0.001779,-0.013755,0.023987,0.148746,-0.779475,-0.608517,0.003521,0.007899,-0.002002,3.894058,-19.090630,-19.719566,,,,,,,
1512176734.586300,0.239229,0.893936,0.917319,0.003088,-0.009454,0.009094,0.148416,-0.779543,-0.608511,-0.000589,0.006243,0.002050,3.818756,-19.165749,-19.643974,,,,,,,
1512176734.606289,0.238858,0.894059,0.917575,0.004140,-0.005182,0.010190,0.148167,-0.779620,-0.608473,-0.000096,0.002414,0.002256,3.816467,-19.690758,-19.494209,,,,,,,
1512176734.626308,0.238816,0.894014,0.917611,-0.007318,0.003383,-0.004867,0.148150,-0.779592,-0.608513,-0.002627,0.004568,0.009086,3.818192,-19.315758,-19.419044,,,,,,,
1512176734.646297,0.238968,0.893463,0.917376,-0.031634,-0.010516,-0.018061,0.148344,-0.779246,-0.608908,0.000048,0.006206,-0.002405,3.968842,-19.165535,-19.495247,,,,,,,
1512176734.666286,0.239308,0.892974,0.916771,-0.006952,0.000223,-0.027260,0.148642,-0.778940,-0.609227,0.001947,0.001261,-0.002055,3.968430,-19.240532,-19.645287,,,,,,,
1512176734.686306,0.239782,0.893109,0.916163,0.020510,-0.002970,-0.011949,0.148905,-0.779025,-0.609055,0.000067,0.001605,-0.008590,4.041397,-19.690422,-19.646126,,,,,,,
1512176734.706295,0.240238,0.893550,0.915589,0.024826,-0.001890,-0.015081,0.149101,-0.779301,-0.608653,-0.000496,0.005528,-0.001439,4.192520,-19.465187,-19.422295,,,,,,,
1512176734.726314,0.240372,0.893887,0.915325,0.017069,-0.005146,0.001849,0.149120,-0.779513,-0.608377,0.000187,0.005968,0.000483,3.968155,-19.315529,-19.495308,,,,,,,
1512176734.746303,0.240402,0.893981,0.915230,-0.000888,0.000194,-0.006916,0.149121,-0.779571,-0.608302,-0.003994,0.011139,0.003032,3.967041,-19.540535,-19.720421,,,,,,,
1512176734.766292,0.240810,0.893811,0.915054,-0.006207,0.020479,-0.006924,0.149401,-0.779465,-0.608370,0.003965,0.013229,0.005907,4.194138,-19.090187,-19.572121,,,,,,,
1512176734.786312,0.241284,0.893852,0.914886,0.007540,0.015146,-0.000347,0.149682,-0.779491,-0.608268,0.012641,0.015697,0.009360,4.192444,-19.465187,-19.572289,,,,,,,
1512176734.806301,0.241266,0.894034,0.915018,0.007371,-0.006241,0.008101,0.149637,-0.779604,-0.608133,0.009925,0.013110,0.014780,4.117371,-19.465309,-19.721657,,,,,,,
1512176734.826320,0.240975,0.893913,0.915084,-0.015821,-0.014784,-0.007185,0.149482,-0.779529,-0.608268,0.003289,0.011081,0.012366,4.043381,-19.240410,-19.720909,,,,,,,
1512176734.846309,0.240475,0.893213,0.915135,-0.042520,-0.026583,-0.005484,0.149308,-0.779090,-0.608873,0.000670,0.005774,0.005373,4.040390,-19.915413,-19.646233,,,,,,,
1512176734.866298,0.239805,0.892290,0.915234,-0.044597,-0.025512,-0.008708,0.149071,-0.778511,-0.609670,-0.010887,0.005471,-0.004236,3.968384,-19.240532,-19.720284,,,,,,,
1512176734.886318,0.239562,0.891571,0.915398,-0.027683,0.004403,0.001235,0.149055,-0.778060,-0.610250,-0.007102,-0.003755,-0.010432,3.820114,-18.865746,-19.643837,,,,,,,
1512176734.906307,0.239646,0.891230,0.915602,-0.012778,0.014034,0.002549,0.149169,-0.777845,-0.610496,-0.003906,-0.002230,-0.019631,4.268387,-19.240074,-19.722832,,,,,,,
1512176734.926326,0.239936,0.891162,0.915511,0.004391,0.007664,-0.004687,0.149359,-0.777803,-0.610503,-0.002219,-0.008879,-0.014252,3.743042,-19.315865,-19.718407,,,,,,,
1512176734.946315,0.240371,0.891288,0.915190,0.011935,0.010894,-0.008828,0.149601,-0.777882,-0.610344,-0.005436,-0.004650,-0.011528,3.743500,-19.240868,-19.493370,,,,,,,
1512176734.966304,0.240831,0.891512,0.914767,0.020464,-0.002973,-0.008750,0.149840,-0.778023,-0.610105,-0.002715,-0.004753,-0.013430,3.744400,-19.015862,-19.718254,,,,,,,
1512176734.986324,0.241182,0.892031,0.914095,0.036639,-0.001868,-0.021310,0.149958,-0.778348,-0.609661,-0.014170,-0.003237,-0.006733,4.042374,-19.465416,-19.721016,,,,,,,
1512176735.006313,0.242129,0.892559,0.913010,0.036645,0.001339,-0.021298,0.150437,-0.778680,-0.609119,-0.005387,-0.011191,-0.006665,4.193420,-19.240196,-19.647194,,,,,,,
1512176735.026332,0.242594,0.893397,0.912281,0.051315,-0.006146,-0.006187,0.150563,-0.779206,-0.608415,-0.006413,-0.001632,-0.012724,3.816360,-19.690758,-19.719215,,,,,,,
1512176735.046321,0.242971,0.894490,0.911655,0.060937,0.004555,-0.007075,0.150588,-0.779890,-0.607532,-0.010771,-0.011919,-0.016125,3.967606,-19.390526,-19.945351,,,,,,,
1512176735.066311,0.243463,0.895415,0.910810,0.044102,-0.022143,-0.021268,0.150713,-0.780469,-0.606757,-0.003923,-0.019611,-0.026788,3.892029,-19.540642,-19.719780,,,,,,,
1512176735.086330,0.243680,0.895769,0.909704,0.013368,-0.032853,-0.033480,0.150778,-0.780690,-0.606457,-0.007223,-0.003826,-0.006901,3.742752,-19.390862,-19.643440,,,,,,,
1512176735.106319,0.243704,0.895329,0.908619,-0.024897,-0.043577,-0.040467,0.150875,-0.780415,-0.606786,-0.006283,0.007344,0.004186,4.117905,-19.315300,-20.021584,,,,,,,
1512176735.126339,0.243286,0.893981,0.907504,-0.078003,-0.084228,-0.055240,0.150875,-0.779571,-0.607870,0.002797,0.010421,0.001760,3.891479,-19.615639,-20.169823,,,,,,,
1512176735.146328,0.242375,0.892111,0.906524,-0.076967,-0.062866,-0.051951,0.150670,-0.778399,-0.609421,-0.001439,0.023882,0.005448,3.817261,-19.465752,-19.944099,,,,,,,
1512176735.166298,0.242167,0.891009,0.905362,-0.022782,-0.058531,-0.040489,0.150749,-0.777706,-0.610285,0.017433,0.028561,0.010767,4.116516,-19.615303,-20.096733,,,,,,,
1512176735.186317,0.241482,0.890903,0.904601,0.003509,-0.068145,-0.018819,0.150351,-0.777640,-0.610468,0.010431,0.024527,0.031778,3.741211,-19.690865,-20.018578,,,,,,,
1512176735.206306,0.240424,0.890135,0.904020,-0.055992,-0.079962,-0.031449,0.149847,-0.777157,-0.611206,0.004709,0.027920,0.041428,3.666138,-19.690987,-20.167946,,,,,,,
1512176735.226326,0.239504,0.888861,0.903212,-0.043007,-0.070308,-0.042956,0.149519,-0.776354,-0.612305,0.010484,0.016924,0.021897,3.816803,-19.540749,-20.169151,,,,,,,
1512176735.246315,0.239423,0.888463,0.901937,0.002831,-0.048880,-0.042219,0.149543,-0.776103,-0.612618,0.008614,0.010845,0.015114,4.117783,-19.315300,-20.246590,,,,,,,
1512176735.266304,0.238798,0.887809,0.900938,-0.058091,-0.097054,-0.034739,0.149280,-0.775691,-0.613204,0.001766,0.008464,0.019225,3.966217,-19.690529,-20.020485,,,,,,,
1512176735.286323,0.235983,0.885049,0.901078,-0.177709,-0.150667,-0.023866,0.148054,-0.773946,-0.615701,-0.002653,0.010854,0.024087,4.041779,-19.540413,-20.246056,,,,,,,
1512176735.306312,0.232550,0.880786,0.901999,-0.228877,-0.121905,-0.022374,0.146698,-0.771240,-0.619410,-0.007751,0.010406,0.003337,3.667038,-19.465981,-20.392830,,,,,,,
1512176735.326332,0.229763,0.876229,0.902647,-0.221203,-0.116527,-0.035037,0.145770,-0.768331,-0.623232,0.003461,0.009496,-0.011671,3.893539,-19.165642,-20.094612,,,,,,,
1512176735.346321,0.227113,0.872163,0.903214,-0.186185,-0.099407,-0.024878,0.144820,-0.765722,-0.626655,0.007218,-0.001383,-0.016747,3.744141,-19.015862,-20.243263,,,,,,,
1512176735.366310,0.224741,0.869098,0.903297,-0.141195,-0.124947,-0.039240,0.143856,-0.763747,-0.629282,0.000340,-0.000398,-0.026663,3.368500,-19.166435,-20.165154,,,,,,,
1512176735.386329,0.222086,0.866000,0.903190,-0.158381,-0.146348,-0.032099,0.142705,-0.761743,-0.631967,0.010905,-0.007040,-0.017737,3.820190,-18.790749,-20.168800,,,,,,,
1512176735.406318,0.218841,0.862824,0.903376,-0.150927,-0.159154,-0.032035,0.141178,-0.759682,-0.634785,0.009609,0.003594,-0.022259,3.366699,-19.541435,-20.390312,,,,,,,
1512176735.426338,0.215748,0.860173,0.903509,-0.112728,-0.145234,-0.020774,0.139644,-0.757956,-0.637183,0.002324,0.011862,-0.017556,3.445480,-18.716316,-20.240578,,,,,,,
1512176735.446327,0.213684,0.858798,0.903370,-0.041241,-0.082100,-0.021651,0.138550,-0.757057,-0.638488,-0.006271,0.013863,-0.004700,3.297165,-18.341530,-20.239128,,,,,,,
1512176735.466316,0.212407,0.857631,0.902667,-0.074033,-0.113092,-0.038223,0.137921,-0.756295,-0.639527,0.005665,-0.000831,0.006486,3.596039,-18.566093,-20.466774,,,,,,,
1512176735.486335,0.209667,0.854932,0.901865,-0.157833,-0.193277,-0.067434,0.136592,-0.754527,-0.641897,-0.004085,-0.002141,0.016714,3.369324,-18.941429,-20.540047,,,,,,,
1512176735.506324,0.206785,0.851056,0.901012,-0.184681,-0.161298,-0.053852,0.135341,-0.751977,-0.645146,0.000248,-0.001533,0.025380,3.370895,-18.566429,-20.764870,,,,,,,
1512176735.526344,0.203761,0.847717,0.900730,-0.148611,-0.161268,-0.043737,0.133897,-0.749772,-0.648007,-0.008165,0.009507,0.002286,3.220932,-18.566658,-20.688591,,,,,,,
1512176735.546333,0.201476,0.844609,0.900006,-0.147226,-0.136660,-0.061754,0.132882,-0.747712,-0.650591,-0.004128,0.007950,-0.001417,3.373184,-18.041420,-20.914635,,,,,,,
1512176735.566322,0.199229,0.841294,0.898967,-0.171613,-0.163382,-0.070728,0.131909,-0.745506,-0.653314,-0.001874,0.003563,-0.002325,3.373825,-17.891426,-20.989555,,,,,,,
1512176735.586342,0.195810,0.836628,0.898107,-0.261155,-0.227605,-0.074381,0.130350,-0.742388,-0.657167,0.006506,-0.000532,0.001878,3.299164,-17.816536,-20.988884,,,,,,,
1512176735.606331,0.191363,0.830854,0.897608,-0.271858,-0.241511,-0.072452,0.128240,-0.738508,-0.661937,-0.009786,0.012433,-0.001668,3.148514,-17.966759,-20.912682,,,,,,,
1512176735.626350,0.188207,0.826514,0.896972,-0.159101,-0.130287,-0.052309,0.126748,-0.735574,-0.665481,-0.004556,0.016107,-0.003891,2.625473,-17.517540,-21.058006,,,,,,,
1512176735.646339,0.187539,0.825139,0.896104,-0.012124,-0.027543,-0.039162,0.126492,-0.734642,-0.666558,0.001987,0.012535,-0.015632,2.848785,-17.892204,-21.060097,,,,,,,
1512176735.666328,0.188308,0.825204,0.894717,0.009302,-0.014683,-0.045205,0.126996,-0.734686,-0.666414,0.010181,0.002524,0.005296,2.925171,-17.592094,-20.985588,,,,,,,
1512176735.686348,0.188342,0.824581,0.893649,-0.048323,-0.058571,-0.044061,0.127104,-0.734264,-0.666859,0.002062,0.008159,0.019505,2.998703,-17.891975,-21.211357,,,,,,,
1512176735.706337,0.187956,0.822702,0.892493,-0.098169,-0.048999,-0.058606,0.127104,-0.732987,-0.668262,-0.005660,0.007813,0.031742,3.074463,-17.741875,-21.061943,,,,,,,
1512176735.726356,0.188088,0.821099,0.891431,-0.046117,-0.036127,-0.047148,0.127412,-0.731895,-0.669399,0.009825,0.010521,-0.011921,2.476074,-17.367760,-21.206657,,,,,,,
1512176735.746345,0.187957,0.820719,0.890325,0.000642,-0.047817,-0.037980,0.127376,-0.731636,-0.669689,-0.002468,0.011940,-0.002567,2.850433,-17.517204,-21.134926,,,,,,,
1512176735.766334,0.188566,0.820777,0.889186,0.011376,0.009885,-0.039756,0.127776,-0.731675,-0.669570,-0.011733,0.007310,0.003982,2.701599,-17.292427,-20.833534,,,,,,,
1512176735.786354,0.189695,0.820624,0.887962,-0.014164,0.003439,-0.043349,0.128553,-0.731572,-0.669535,-0.000699,0.000401,-0.003180,2.774796,-17.667320,-21.059364,,,,,,,
1512176735.806343,0.190001,0.819899,0.887015,-0.035598,-0.036127,-0.038467,0.128858,-0.731077,-0.670016,0.000247,0.004560,-0.005109,2.699799,-17.667427,-21.058723,,,,,,,
1512176735.826362,0.189885,0.819013,0.886054,-0.034500,-0.038251,-0.039520,0.128903,-0.730472,-0.670667,-0.000180,0.006168,-0.010791,2.849457,-17.742210,-21.060036,,,,,,,
1512176735.846351,0.189847,0.818620,0.885289,0.001483,-0.025418,-0.024034,0.128931,-0.730204,-0.670954,0.000021,0.001779,-0.025854,2.849121,-17.817207,-21.060066,,,,,,,
1512176735.866340,0.189911,0.819038,0.884676,0.036469,-0.012571,-0.011756,0.128917,-0.730489,-0.670646,-0.004893,0.004750,-0.022820,2.925171,-17.592094,-20.985588,,,,,,,
1512176735.886360,0.190311,0.820251,0.884217,0.076784,0.013105,0.001712,0.129017,-0.731317,-0.669723,-0.002629,0.000192,-0.018845,3.150391,-17.516762,-21.212456,,,,,,,
1512176735.906349,0.190944,0.821871,0.883709,0.080115,0.007783,-0.006788,0.129216,-0.732421,-0.668477,0.001674,0.001525,-0.011744,2.849014,-17.817207,-21.285057,,,,,,,
1512176735.926368,0.191216,0.822859,0.882867,0.033489,-0.037112,-0.025742,0.129261,-0.733093,-0.667732,0.009625,0.005813,0.006401,2.848663,-17.892204,-21.285088,,,,,,,
1512176735.946357,0.190754,0.822911,0.882040,0.005810,-0.057447,-0.029413,0.128945,-0.733129,-0.667754,0.002891,0.006566,0.005339,2.923706,-17.892097,-21.210716,,,,,,,
1512176735.966346,0.190743,0.823035,0.880933,0.018726,-0.029641,-0.035526,0.128920,-0.733213,-0.667666,-0.002745,0.007383,0.008578,2.925140,-17.592094,-21.060600,,,,,,,
1512176735.986366,0.191089,0.823218,0.879862,0.015566,-0.022159,-0.036608,0.129125,-0.733338,-0.667490,-0.005056,0.013123,0.002283,2.924164,-17.817101,-20.985695,,,,,,,
1512176736.006355,0.191551,0.823254,0.878622,0.006030,-0.022172,-0.041014,0.129429,-0.733362,-0.667404,-0.000309,0.004358,0.007141,2.925140,-17.592094,-21.060600,,,,,,,
1512176736.026375,0.191790,0.823239,0.877534,0.008083,-0.028581,-0.035672,0.129591,-0.733352,-0.667384,0.000323,0.006316,0.002742,2.698364,-17.967430,-21.208839,,,,,,,
1512176736.046364,0.191947,0.823525,0.876774,0.029066,-0.014708,-0.015067,0.129655,-0.733546,-0.667158,-0.003007,0.005259,0.009534,3.148071,-18.041756,-21.137718,,,,,,,
1512176736.066383,0.192109,0.824134,0.876249,0.029055,-0.020046,-0.014017,0.129678,-0.733960,-0.666698,0.001380,0.004956,0.007427,2.699036,-17.817436,-21.208778,,,,,,,
1512176736.086372,0.191570,0.824171,0.875702,-0.009247,-0.060687,-0.021112,0.129313,-0.733985,-0.666741,-0.000880,0.003272,0.004265,2.923782,-17.892097,-21.060738,,,,,,,
1512176736.106361,0.190695,0.823657,0.875135,-0.023039,-0.063906,-0.025589,0.128801,-0.733636,-0.667225,-0.011751,0.003426,-0.000057,2.924347,-17.742088,-21.285652,,,,,,,
1512176736.126381,0.190275,0.823194,0.874510,-0.016620,-0.033986,-0.025391,0.128585,-0.733321,-0.667612,-0.007720,0.000701,-0.010336,2.773331,-17.967323,-21.284492,,,,,,,
1512176736.146370,0.190122,0.822916,0.874086,-0.001879,-0.011557,-0.013374,0.128522,-0.733132,-0.667832,-0.005978,0.005883,-0.008865,2.849045,-17.817207,-21.210045,,,,,,,
1512176736.166373,0.190503,0.823516,0.873568,0.055663,0.006690,-0.010342,0.128693,-0.733540,-0.667351,0.001892,0.008488,-0.008964,2.547989,-18.042656,-21.282616,,,,,,,
1512176736.186362,0.190914,0.825062,0.873029,0.087405,-0.013586,0.002839,0.128752,-0.734590,-0.666184,0.006166,0.010255,-0.006164,2.697769,-18.117439,-21.058922,,,,,,,
1512176736.206351,0.190675,0.826460,0.872589,0.059855,-0.032834,-0.008288,0.128398,-0.735538,-0.665205,-0.002834,0.005817,-0.001695,2.622696,-18.117546,-21.208275,,,,,,,
1512176736.226371,0.190223,0.827312,0.872194,0.038478,-0.041420,-0.005430,0.127979,-0.736115,-0.664648,0.000531,0.001023,-0.002711,2.697662,-18.117439,-21.283913,,,,,,,
1512176736.246360,0.190173,0.828078,0.871693,0.042931,-0.010412,-0.014850,0.127839,-0.736633,-0.664101,-0.004487,0.010085,-0.001610,2.772690,-18.117317,-21.209557,,,,,,,
1512176736.266379,0.190405,0.828730,0.871029,0.036504,-0.018973,-0.013909,0.127902,-0.737074,-0.663599,0.001065,0.005400,-0.002524,2.697388,-18.192436,-21.133965,,,,,,,
1512176736.286368,0.190493,0.829489,0.870436,0.046065,-0.010419,-0.011609,0.127854,-0.737586,-0.663038,0.000655,0.009055,0.010557,2.846603,-18.342201,-21.360298,,,,,,,
1512176736.306357,0.190776,0.830249,0.870008,0.034260,-0.001902,-0.006420,0.127936,-0.738100,-0.662451,-0.002173,0.008089,0.015036,3.147690,-18.116753,-21.212746,,,,,,,
1512176736.326377,0.191093,0.830167,0.869376,-0.025082,-0.014766,-0.028646,0.128157,-0.738044,-0.662470,-0.001647,0.010475,0.013361,3.072250,-18.191872,-21.437141,,,,,,,
1512176736.346366,0.190992,0.829241,0.868759,-0.043235,-0.034025,-0.027910,0.128220,-0.737419,-0.663154,0.006210,0.008659,0.006141,2.924088,-17.817101,-21.135704,,,,,,,
1512176736.366385,0.190493,0.828406,0.868469,-0.030755,-0.036176,-0.008546,0.128005,-0.736854,-0.663822,0.000703,0.016655,-0.001796,2.697952,-18.042427,-21.358879,,,,,,,
1512176736.386374,0.189955,0.828223,0.868626,-0.001204,-0.012672,0.010085,0.127674,-0.736731,-0.664023,0.000301,0.007498,-0.000650,2.922653,-18.117104,-21.285835,,,,,,,
1512176736.406363,0.189438,0.828240,0.869166,-0.002486,0.000119,0.023970,0.127328,-0.736742,-0.664077,-0.004221,0.007754,-0.001405,2.773743,-17.892326,-21.134453,,,,,,,
1512176736.426383,0.189389,0.828507,0.869707,0.017831,0.020450,0.021136,0.127259,-0.736923,-0.663889,0.000717,0.004273,-0.001028,2.999390,-17.741982,-21.211296,,,,,,,
1512176736.446372,0.189401,0.828871,0.870168,0.013650,0.015113,0.015727,0.127216,-0.737169,-0.663625,0.001476,0.004030,0.000172,3.150131,-17.591759,-21.062508,,,,,,,
1512176736.466391,0.189364,0.829257,0.870477,0.022172,0.002310,0.015807,0.127138,-0.737430,-0.663350,0.004210,0.000629,0.001393,2.848328,-17.967201,-21.285118,,,,,,,
1512176736.486380,0.188972,0.829829,0.870793,0.024287,-0.006231,0.016876,0.126798,-0.737816,-0.662986,-0.002760,0.003685,0.000678,3.298370,-17.966530,-21.213951,,,,,,,
1512176736.506369,0.188627,0.830232,0.871097,0.013660,-0.006252,0.013518,0.126514,-0.738088,-0.662737,-0.003635,0.002752,-0.003248,2.771912,-18.267326,-21.434624,,,,,,,
1512176736.526389,0.188330,0.830582,0.871404,0.020099,0.002316,0.012580,0.126269,-0.738324,-0.662521,-0.008791,0.010053,-0.001588,2.698563,-17.892433,-21.508812,,,,,,,
1512176736.546378,0.188878,0.831455,0.871336,0.057538,0.038698,0.005783,0.126511,-0.738912,-0.661818,-0.002350,0.006231,0.007064,2.999039,-17.816978,-21.211327,,,,,,,
1512176736.566398,0.190158,0.832912,0.871080,0.080034,0.064383,0.000870,0.127154,-0.739893,-0.660598,-0.004672,0.005991,0.004363,2.848114,-18.042213,-21.060173,,,,,,,
1512176736.586387,0.192670,0.834686,0.870220,0.102765,0.112522,-0.017823,0.128562,-0.741086,-0.658987,-0.003653,-0.000629,0.004232,3.073105,-18.041878,-21.062080,,,,,,,
1512176736.606376,0.195111,0.836691,0.869657,0.092575,0.081463,0.017103,0.129882,-0.742430,-0.657212,0.008928,0.010543,-0.014602,3.072922,-18.041878,-21.437080,,,,,,,
1512176736.626395,0.195956,0.838399,0.869836,0.073209,0.034413,0.025185,0.130190,-0.743573,-0.655858,-0.000566,0.008222,-0.005382,2.919876,-18.717094,-21.436104,,,,,,,
1512176736.646384,0.195811,0.839513,0.870446,0.034723,0.005507,0.030926,0.129934,-0.744318,-0.655063,-0.002874,0.003580,0.002781,2.696762,-18.342430,-21.059029,,,,,,,
1512176736.666404,0.195144,0.839595,0.871039,-0.020476,-0.020186,0.015111,0.129485,-0.744372,-0.655090,-0.000716,0.004123,0.002106,3.147812,-18.116753,-20.987755,,,,,,,
1512176736.686393,0.194373,0.838979,0.871323,-0.034038,-0.030851,-0.003245,0.129068,-0.743961,-0.655639,-0.003198,0.007130,0.000915,2.921799,-18.342094,-20.985939,,,,,,,
1512176736.706382,0.193977,0.838249,0.871313,-0.033993,-0.011621,-0.005311,0.128913,-0.743474,-0.656223,0.001885,0.008610,-0.001843,2.847092,-18.267204,-21.060265,,,,,,,
1512176736.726401,0.193702,0.838061,0.871607,0.006182,0.000149,0.015567,0.128760,-0.743348,-0.656396,0.004968,0.007996,-0.001868,2.922775,-18.117104,-21.060844,,,,,,,
1512176736.746390,0.193717,0.838265,0.871886,0.001062,0.019392,0.003834,0.128740,-0.743484,-0.656245,-0.004503,0.009795,0.012935,3.148148,-18.041756,-20.987709,,,,,,,
1512176736.766410,0.194059,0.837685,0.871788,-0.047663,0.003333,-0.016118,0.129048,-0.743096,-0.656624,0.004482,-0.001807,0.011986,3.147995,-18.041756,-21.287712,,,,,,,
1512176736.786399,0.194168,0.836066,0.871419,-0.088938,-0.009511,-0.034883,0.129351,-0.742012,-0.657789,-0.002368,0.002723,0.010618,2.996643,-18.341988,-21.286568,,,,,,,
1512176736.806388,0.194516,0.834217,0.871050,-0.081594,0.008641,-0.027253,0.129845,-0.740770,-0.659090,-0.001305,0.011019,0.005388,3.072098,-18.266869,-21.062187,,,,,,,
1512176736.826407,0.194982,0.832795,0.870675,-0.058205,0.011878,-0.022636,0.130356,-0.739815,-0.660062,0.000991,0.012779,-0.002612,2.845337,-18.642220,-21.210426,,,,,,,
1512176736.846396,0.195071,0.831987,0.870742,-0.032038,0.008655,0.006515,0.130531,-0.739271,-0.660636,0.000344,0.010526,-0.002770,2.848450,-17.967201,-21.060127,,,,,,,
1512176736.866416,0.195080,0.831754,0.871146,-0.004319,0.020446,0.006958,0.130570,-0.739114,-0.660804,-0.006898,0.011117,-0.009530,2.923065,-18.042091,-21.135796,,,,,,,
1512176736.886405,0.195293,0.831777,0.871418,-0.001233,0.012961,0.013373,0.130708,-0.739129,-0.660760,0.002471,0.004541,-0.009437,3.072739,-18.116875,-21.137108,,,,,,,
1512176736.906394,0.194780,0.831817,0.871993,-0.000291,-0.006280,0.019715,0.130363,-0.739156,-0.660798,-0.003074,0.004064,-0.007064,3.071350,-18.416878,-21.212242,,,,,,,
1512176736.926413,0.194063,0.831791,0.872758,-0.005794,-0.009512,0.030285,0.129893,-0.739139,-0.660909,0.002248,0.001621,-0.005411,2.773788,-17.892326,-21.059456,,,,,,,
1512176736.946402,0.193151,0.831949,0.873593,0.009206,-0.013748,0.026227,0.129268,-0.739245,-0.660913,-0.002299,0.010974,-0.001578,2.923752,-17.892097,-21.135735,,,,,,,
1512176736.966422,0.192620,0.832417,0.874230,0.023060,-0.000914,0.026469,0.128850,-0.739560,-0.660643,0.002421,0.007626,0.003813,2.623062,-18.042549,-21.133247,,,,,,,
1512176736.986411,0.192030,0.832857,0.874842,0.015674,-0.009464,0.021000,0.128399,-0.739857,-0.660398,-0.006572,0.010853,-0.000719,3.148453,-17.966759,-21.062691,,,,,,,
1512176737.006400,0.191751,0.833337,0.875195,0.027477,0.006583,0.016962,0.128146,-0.740179,-0.660086,-0.001941,0.001654,-0.000239,3.147690,-18.116753,-21.212746,,,,,,,
1512176737.026420,0.191692,0.834084,0.875625,0.037008,0.019408,0.021409,0.128002,-0.740681,-0.659550,-0.002545,0.004109,-0.000057,2.847321,-18.192207,-21.285225,,,,,,,
1512176737.046409,0.191767,0.834528,0.876028,0.006174,0.012965,0.016678,0.127989,-0.740980,-0.659217,0.001589,-0.000719,0.002098,2.998108,-18.041985,-21.061440,,,,,,,
1512176737.066428,0.191200,0.834236,0.876455,-0.026736,-0.021249,0.006487,0.127656,-0.740783,-0.659503,-0.000062,0.005416,0.004077,2.548035,-18.042656,-21.207603,,,,,,,
1512176737.086417,0.190519,0.833625,0.876811,-0.033135,-0.012712,0.007492,0.127292,-0.740373,-0.660033,0.002728,0.010377,0.004653,2.847397,-18.192207,-21.135231,,,,,,,
1512176737.106406,0.190003,0.833137,0.877214,-0.023602,-0.014843,0.010819,0.127021,-0.740045,-0.660454,0.001718,0.011300,-0.006157,2.772736,-18.117317,-21.134560,,,,,,,
1512176737.126426,0.189533,0.832746,0.877588,-0.018219,-0.003082,0.007738,0.126765,-0.739782,-0.660798,-0.001246,0.007619,-0.002700,2.772552,-18.192329,-20.834587,,,,,,,
1512176737.146415,0.189091,0.832559,0.877948,-0.008673,-0.012680,0.011045,0.126498,-0.739656,-0.660989,0.004636,0.007005,-0.002905,2.473099,-18.042778,-21.056984,,,,,,,
1512176737.166397,0.188620,0.832560,0.878273,-0.000164,-0.011602,0.012238,0.126187,-0.739656,-0.661048,0.004612,0.000887,0.003471,2.769394,-18.867332,-21.059914,,,,,,,
1512176737.186386,0.187852,0.832519,0.878783,-0.009850,-0.021240,0.017394,0.125685,-0.739629,-0.661175,-0.009062,0.006948,0.005581,2.472168,-18.267769,-20.907082,,,,,,,
1512176737.206375,0.187414,0.832206,0.879169,-0.021400,0.001193,0.007710,0.125439,-0.739418,-0.661457,-0.012310,0.005745,0.011647,2.697769,-18.117439,-21.058922,,,,,,,
1512176737.226395,0.186996,0.831660,0.879698,-0.035369,-0.007387,0.013874,0.125237,-0.739050,-0.661907,-0.001198,0.005896,0.000087,2.697876,-18.117439,-20.833916,,,,,,,
1512176737.246384,0.186283,0.830910,0.880245,-0.043849,-0.018074,0.010516,0.124867,-0.738546,-0.662540,-0.000371,0.007100,0.001712,2.847839,-18.117210,-20.910194,,,,,,,
1512176737.266403,0.185315,0.830217,0.880875,-0.032249,-0.031961,0.017030,0.124320,-0.738078,-0.663164,0.002251,0.002024,-0.005675,2.473068,-18.042778,-21.131981,,,,,,,
1512176737.286392,0.184083,0.829831,0.881560,-0.018420,-0.029804,0.019372,0.123556,-0.737817,-0.663596,-0.005575,0.005151,-0.001001,2.695511,-18.642433,-20.834160,,,,,,,
1512176737.306412,0.183003,0.829694,0.882346,-0.004736,-0.024463,0.030249,0.122857,-0.737725,-0.663829,-0.002801,0.005821,-0.008763,2.698105,-18.042427,-21.058891,,,,,,,
1512176737.326401,0.182214,0.829910,0.883073,0.012486,0.000146,0.020988,0.122304,-0.737871,-0.663769,-0.005346,0.002275,0.002559,2.999191,-17.816978,-20.911339,,,,,,,
1512176737.346390,0.181968,0.830207,0.883667,0.010352,0.014030,0.022073,0.122101,-0.738071,-0.663583,-0.002426,0.007847,-0.000495,2.698441,-17.967430,-21.058861,,,,,,,
1512176737.366409,0.181926,0.830119,0.884030,-0.017124,0.009748,0.007804,0.122085,-0.738012,-0.663652,0.003495,0.002675,-0.003752,2.849487,-17.742210,-20.985023,,,,,,,
1512176737.386398,0.181819,0.829669,0.884320,-0.020282,0.003336,0.004535,0.122074,-0.737708,-0.663992,0.009960,0.007041,-0.010599,2.473816,-17.892769,-20.981911,,,,,,,
1512176737.406418,0.181986,0.829513,0.884447,0.001111,0.022600,0.000646,0.122206,-0.737602,-0.664084,0.010301,0.009621,-0.010262,2.922775,-18.117104,-21.060844,,,,,,,
1512176737.426407,0.182265,0.829803,0.884525,0.019120,0.009799,0.007260,0.122353,-0.737799,-0.663840,0.009910,0.014456,-0.010736,2.700546,-17.517433,-20.908653,,,,,,,
1512176737.446396,0.182370,0.830210,0.884584,0.019190,0.006604,0.002986,0.122368,-0.738073,-0.663532,0.005699,0.009588,-0.007474,2.699188,-17.817436,-20.908791,,,,,,,
1512176737.466416,0.182398,0.830442,0.884629,0.005303,-0.000900,0.003823,0.122355,-0.738230,-0.663360,0.003758,0.003641,-0.007432,2.472015,-18.267769,-21.207069,,,,,,,
1512176737.486405,0.182342,0.830395,0.884644,-0.004214,-0.001971,-0.000581,0.122325,-0.738198,-0.663401,0.001562,0.003350,-0.004995,2.547775,-18.117653,-21.057655,,,,,,,
