timestamp(unix),attitude_roll(radians),attitude_pitch(radians),attitude_yaw(radians),rotation_rate_x(radians/s),rotation_rate_y(radians/s),rotation_rate_z(radians/s),gravity_x(G),gravity_y(G),gravity_z(G),user_acc_x(G),user_acc_y(G),user_acc_z(G),magnetic_field_x(microteslas),magnetic_field_y(microteslas),magnetic_field_z(microteslas),latitude(degree),longitude(degree),altitude(meter),speed(m/s),course(degree),timestamp(unix),User Mark
1512177485.143956,0.305681,0.804637,-2.925208,-0.059930,-0.080360,-0.025458,0.208665,-0.720579,-0.661230,-0.011995,0.017011,-0.001337,-29.685379,-12.916008,-34.206062,,,,,,,
1512177485.163945,0.304945,0.804557,-2.924891,0.007420,-0.009867,0.031198,0.208196,-0.720524,-0.661438,0.008250,-0.003521,-0.003037,-30.138199,-13.516685,-34.427513,,,,,,,
1512177485.183934,0.303659,0.804934,-2.923666,-0.012092,-0.029160,0.050038,0.207264,-0.720785,-0.661446,0.009945,-0.006708,0.011101,-29.536804,-13.215782,-34.357475,,,,,,,
1512177485.203954,0.301494,0.804419,-2.922257,-0.055412,-0.077248,0.023656,0.205942,-0.720428,-0.662248,0.004218,-0.002915,0.010576,-30.136322,-13.141685,-34.052345,,,,,,,
1512177485.223943,0.298983,0.802991,-2.921806,-0.078172,-0.119924,-0.020531,0.204581,-0.719437,-0.663745,0.006235,0.001252,0.000399,-29.761292,-13.141121,-33.980522,,,,,,,
1512177485.243962,0.296846,0.801468,-2.922114,-0.059801,-0.110246,-0.034086,0.203482,-0.718378,-0.665227,-0.003409,0.004572,0.002935,-30.062332,-13.366570,-34.053078,,,,,,,
1512177485.263951,0.295786,0.800632,-2.922731,-0.020433,-0.050384,-0.026912,0.202952,-0.717796,-0.666017,-0.009685,0.007881,0.002657,-30.209030,-12.616798,-34.201454,,,,,,,
1512177485.283971,0.295691,0.800611,-2.923263,0.010212,-0.020465,-0.009308,0.202893,-0.717782,-0.666051,0.000659,-0.000892,0.000157,-30.135956,-13.066689,-33.977303,,,,,,,
1512177485.303960,0.295178,0.800661,-2.923288,-0.006001,-0.032268,0.003207,0.202541,-0.717817,-0.666120,-0.002498,0.000089,0.006498,-30.210754,-12.991798,-34.276634,,,,,,,
1512177485.323949,0.294157,0.800227,-2.923138,-0.033585,-0.057926,-0.005809,0.201951,-0.717515,-0.666625,-0.003114,0.004181,0.005538,-29.912338,-13.366356,-34.054359,,,,,,,
1512177485.343968,0.292402,0.799501,-2.923353,-0.029110,-0.116643,-0.021942,0.200931,-0.717008,-0.667477,0.011181,-0.003573,-0.015826,-30.363800,-13.667030,-34.275673,,,,,,,
1512177485.363957,0.289838,0.799242,-2.923786,0.002651,-0.150797,-0.009872,0.199272,-0.716828,-0.668168,0.009972,0.000901,-0.019317,-30.284454,-12.766899,-33.675896,,,,,,,
1512177485.383977,0.287232,0.799666,-2.923934,0.031210,-0.119796,0.006646,0.197444,-0.717123,-0.668394,-0.007594,0.003836,-0.009890,-30.284073,-12.691902,-33.600853,,,,,,,
1512177485.403966,0.285321,0.800583,-2.923684,0.045687,-0.069637,0.034742,0.195981,-0.717762,-0.668139,-0.003187,0.003010,-0.011808,-30.585083,-12.917351,-33.598412,,,,,,,
1512177485.423986,0.283168,0.801937,-2.922643,0.059032,-0.079289,0.065819,0.194270,-0.718704,-0.667625,0.005238,0.014435,-0.005867,-30.507980,-12.467247,-33.448845,,,,,,,
1512177485.443975,0.279505,0.803407,-2.921245,0.050407,-0.166897,0.067522,0.191532,-0.719726,-0.667315,0.006710,0.016677,-0.002545,-30.658920,-12.692467,-33.297676,,,,,,,
1512177485.463964,0.274345,0.804166,-2.920387,0.017107,-0.255505,0.013426,0.187938,-0.720252,-0.667769,-0.014354,0.025916,0.016051,-31.034866,-12.918022,-33.144600,,,,,,,
1512177485.483983,0.269490,0.803631,-2.920678,-0.045045,-0.249100,-0.031159,0.184796,-0.719881,-0.669045,-0.011777,0.013811,0.022408,-30.658844,-12.692467,-33.147682,,,,,,,
1512177485.503972,0.265323,0.802056,-2.921628,-0.070232,-0.233072,-0.054923,0.182304,-0.718787,-0.670902,-0.003349,-0.002831,0.003635,-31.182724,-12.468254,-32.918114,,,,,,,
1512177485.523992,0.261005,0.800490,-2.922826,-0.070055,-0.274708,-0.067859,0.179696,-0.717698,-0.672770,-0.029137,0.020234,-0.003683,-31.858658,-12.694267,-32.762489,,,,,,,
1512177485.543981,0.258599,0.799793,-2.924958,0.025252,-0.153812,-0.087377,0.178204,-0.717212,-0.673684,-0.044674,0.024875,-0.005210,-31.707657,-12.469048,-32.763649,,,,,,,
1512177485.564000,0.260441,0.801918,-2.930123,0.213227,0.005793,-0.165117,0.179052,-0.718691,-0.671880,-0.061788,0.036593,-0.012141,-31.860016,-12.994270,-32.762627,,,,,,,
1512177485.583989,0.266931,0.807480,-2.936309,0.383388,0.161943,-0.133327,0.182351,-0.722547,-0.666838,-0.050302,0.042890,-0.011827,-31.337570,-13.593483,-32.467354,,,,,,,
1512177485.603978,0.278408,0.815622,-2.944759,0.522304,0.328947,-0.209621,0.188369,-0.728152,-0.659023,-0.087463,0.078952,-0.008397,-31.037979,-13.668037,-32.619942,,,,,,,
1512177485.623998,0.294844,0.824924,-2.957333,0.582638,0.377304,-0.310922,0.197199,-0.734496,-0.649329,-0.040918,0.051665,-0.019693,-30.663620,-13.817482,-32.548195,,,,,,,
1512177485.643987,0.311760,0.833852,-2.970285,0.547592,0.364321,-0.254974,0.206134,-0.740525,-0.639633,0.010312,-0.003813,-0.007584,-30.368744,-14.942039,-32.701271,,,,,,,
1512177485.664006,0.326693,0.842422,-2.981067,0.512351,0.345977,-0.187320,0.213618,-0.746258,-0.630450,0.012868,-0.018894,0.012835,-30.143860,-14.941689,-32.928185,,,,,,,
1512177485.683995,0.340102,0.850710,-2.990079,0.487900,0.331938,-0.126955,0.219981,-0.751749,-0.621677,0.044560,-0.037817,0.018512,-29.921707,-15.616356,-32.555397,,,,,,,
1512177485.704015,0.351333,0.858704,-2.997456,0.445444,0.265547,-0.076630,0.224874,-0.756996,-0.613505,0.053904,-0.056267,0.021006,-29.249069,-16.140343,-32.561378,,,,,,,
1512177485.724004,0.360542,0.865803,-3.002482,0.363096,0.288756,0.004342,0.228613,-0.761616,-0.606364,0.038904,-0.072002,0.049693,-29.251617,-16.665352,-32.936623,,,,,,,
1512177485.743993,0.368167,0.871852,-3.005010,0.281512,0.267200,0.037197,0.231567,-0.765522,-0.600294,0.036515,-0.051968,0.037580,-28.802673,-16.889671,-33.015556,,,,,,,
1512177485.764012,0.373650,0.876176,-3.006933,0.188037,0.152809,0.010925,0.233644,-0.768297,-0.595928,0.027190,-0.024290,0.027523,-28.578613,-17.114342,-32.867577,,,,,,,
1512177485.784001,0.377411,0.878553,-3.009444,0.106879,0.064147,-0.049191,0.235210,-0.769816,-0.593346,0.009465,-0.007955,0.045174,-28.579697,-17.339348,-33.017677,,,,,,,
1512177485.803992,0.379780,0.879374,-3.011397,0.031957,0.030889,-0.032267,0.236381,-0.770340,-0.592200,0.016076,-0.008606,0.029288,-28.580673,-17.564354,-32.942772,,,,,,,
1512177485.823981,0.381146,0.879755,-3.012758,0.033066,0.021282,-0.035483,0.237081,-0.770583,-0.591604,-0.015172,0.013121,0.017522,-28.580109,-17.414345,-33.167717,,,,,,,
1512177485.844001,0.384817,0.881113,-3.014957,0.131337,0.156041,-0.039984,0.238858,-0.771448,-0.589759,-0.037121,0.032571,-0.005563,-28.504990,-17.414238,-32.943352,,,,,,,
1512177485.863990,0.393026,0.884910,-3.018665,0.264675,0.318595,-0.038559,0.242567,-0.773858,-0.585068,-0.033979,0.041375,-0.027191,-28.429993,-17.414116,-32.943977,,,,,,,
1512177485.883979,0.403293,0.890532,-3.023568,0.324103,0.333604,-0.021656,0.246850,-0.777406,-0.578536,0.000525,-0.014403,0.077392,-27.981308,-17.713448,-32.872948,,,,,,,
1512177485.903998,0.409186,0.893975,-3.024787,0.052072,0.129037,0.045120,0.249189,-0.779568,-0.574612,0.078768,-0.056294,0.050565,-28.137726,-19.063683,-33.547295,,,,,,,
1512177485.923987,0.405697,0.891206,-3.023210,-0.224962,-0.220505,-0.044326,0.248033,-0.777830,-0.577460,0.066008,-0.029222,-0.041269,-27.458527,-18.162666,-33.252617,,,,,,,
1512177485.944007,0.398940,0.886939,-3.021893,-0.158043,-0.285593,-0.033993,0.245413,-0.775142,-0.582175,0.051020,-0.029378,-0.080911,-28.132019,-17.863670,-32.946739,,,,,,,
1512177485.963996,0.393567,0.886475,-3.020866,0.033488,-0.179729,0.057633,0.242419,-0.774848,-0.583818,-0.001331,-0.023492,-0.031432,-28.208633,-18.238792,-32.796288,,,,,,,
1512177485.984015,0.391656,0.889319,-3.020258,0.149506,-0.019356,0.076931,0.240461,-0.776643,-0.582240,-0.039045,0.011796,0.024623,-28.208221,-18.088783,-33.321205,,,,,,,
1512177486.004004,0.392237,0.892500,-3.020331,0.124248,0.027643,0.059673,0.239854,-0.778643,-0.579815,-0.008988,-0.005064,0.057720,-28.433334,-18.164131,-32.869331,,,,,,,
1512177486.023993,0.389706,0.892508,-3.019334,-0.112837,-0.199078,0.009609,0.238382,-0.778648,-0.580415,0.016699,-0.011422,0.069169,-28.132614,-18.013680,-32.796822,,,,,,,
1512177486.044013,0.379664,0.886172,-3.016604,-0.443394,-0.503877,-0.065537,0.234366,-0.774657,-0.587350,0.008752,-0.010301,0.077614,-28.656006,-17.639458,-32.942177,,,,,,,
1512177486.064002,0.364749,0.874772,-3.012895,-0.630355,-0.625843,-0.111310,0.228715,-0.767397,-0.598991,-0.015687,0.002779,0.047661,-29.179169,-17.265251,-32.637550,,,,,,,
1512177486.084021,0.350280,0.862553,-3.009093,-0.589187,-0.529706,-0.082665,0.223226,-0.759506,-0.611000,-0.015081,0.018005,-0.004433,-29.552643,-16.965813,-32.259224,,,,,,,
1512177486.104010,0.339828,0.853727,-3.005894,-0.375558,-0.326515,-0.033020,0.219054,-0.753735,-0.619596,-0.025130,0.037716,-0.039141,-30.152756,-16.966713,-32.479118,,,,,,,
1512177486.124030,0.334340,0.849364,-3.004337,-0.152866,-0.175592,-0.019678,0.216727,-0.750861,-0.623889,-0.005973,0.032706,-0.050900,-30.076584,-16.741600,-32.179649,,,,,,,
1512177486.144019,0.330866,0.847722,-3.003502,-0.068984,-0.151999,0.002945,0.214959,-0.749775,-0.625804,0.014503,-0.000103,-0.043874,-30.298920,-16.141930,-32.252464,,,,,,,
1512177486.164008,0.326389,0.846453,-3.002817,-0.077515,-0.228915,-0.000644,0.212460,-0.748935,-0.627660,0.021854,-0.018811,-0.023692,-30.374115,-16.217033,-31.951851,,,,,,,
1512177486.184027,0.320748,0.844580,-3.002282,-0.096446,-0.266297,-0.018105,0.209358,-0.747692,-0.630179,0.011864,-0.016437,-0.009928,-30.223694,-16.141808,-31.803093,,,,,,,
1512177486.204016,0.315575,0.842920,-3.001977,-0.060305,-0.224600,-0.009976,0.206480,-0.746589,-0.632432,-0.002912,-0.010736,-0.000884,-30.597992,-15.992378,-31.724846,,,,,,,
1512177486.224036,0.311214,0.842030,-3.001954,-0.032582,-0.245922,-0.011782,0.203923,-0.745997,-0.633959,0.003154,-0.001303,-0.006102,-30.823471,-16.067711,-32.022972,,,,,,,
1512177486.244025,0.304798,0.841232,-3.002676,-0.010590,-0.408156,-0.059999,0.200030,-0.745465,-0.635822,0.011258,-0.005313,0.022373,-31.797958,-15.994179,-31.639656,,,,,,,
1512177486.264044,0.298770,0.839353,-3.003847,-0.125839,-0.300473,-0.048504,0.196606,-0.744211,-0.638354,-0.026547,0.005838,0.027193,-31.348633,-16.143501,-31.643547,,,,,,,
1512177486.284033,0.293552,0.836937,-3.003637,-0.108173,-0.211845,-0.015956,0.193792,-0.742595,-0.641090,-0.033224,0.019344,0.027855,-31.497986,-16.068733,-31.042229,,,,,,,
1512177486.304022,0.290462,0.835219,-3.003412,-0.074991,-0.120988,-0.019422,0.192175,-0.741444,-0.642907,-0.017446,0.022160,0.012841,-31.498367,-16.143730,-31.117271,,,,,,,
1512177486.324042,0.288396,0.833411,-3.003777,-0.100201,-0.123117,-0.042182,0.191227,-0.740229,-0.644587,0.000194,-0.001959,0.007457,-31.499527,-16.368736,-31.417366,,,,,,,
1512177486.344031,0.285122,0.830748,-3.004040,-0.146041,-0.218245,-0.046373,0.189670,-0.738436,-0.647099,0.023342,-0.006895,0.001286,-31.571976,-15.843834,-31.041496,,,,,,,
1512177486.364051,0.279312,0.827180,-3.003724,-0.189999,-0.290971,-0.034469,0.186632,-0.736026,-0.650718,0.014357,-0.012738,0.010307,-32.325134,-16.519966,-31.260429,,,,,,,
1512177486.384040,0.273167,0.823284,-3.003064,-0.193263,-0.269627,-0.030181,0.183403,-0.733382,-0.654609,0.000405,0.005370,0.005195,-31.946976,-15.844398,-31.038307,,,,,,,
1512177486.404059,0.268485,0.820134,-3.002417,-0.131549,-0.165935,-0.017196,0.180947,-0.731237,-0.657685,-0.010400,0.013983,-0.002151,-32.395706,-15.620079,-30.509377,,,,,,,
1512177486.424048,0.266166,0.818713,-3.002265,-0.031577,-0.096393,-0.000586,0.179695,-0.730267,-0.659105,0.009362,0.008221,-0.030898,-32.095444,-15.544624,-30.661888,,,,,,,
1512177486.444037,0.264375,0.819557,-3.002049,0.072337,-0.082415,0.034016,0.178353,-0.730843,-0.658830,0.016212,0.004403,-0.025237,-32.398148,-16.145073,-30.659615,,,,,,,
1512177486.464057,0.262481,0.822298,-3.001983,0.163909,-0.092973,0.039568,0.176584,-0.732712,-0.657229,0.011481,-0.003525,-0.015515,-32.394623,-15.395073,-30.359276,,,,,,,
1512177486.484046,0.261209,0.826592,-3.003090,0.251884,-0.118398,0.005579,0.174934,-0.735627,-0.654408,-0.017372,-0.023543,-0.031032,-32.321350,-15.769966,-30.435081,,,,,,,
1512177486.504065,0.261288,0.832707,-3.006109,0.349301,-0.068005,-0.017356,0.173820,-0.739756,-0.650036,-0.016365,0.016596,0.002163,-32.396561,-15.845070,-30.209480,,,,,,,
1512177486.524054,0.263800,0.840318,-3.009731,0.447518,0.021878,-0.022020,0.173979,-0.744856,-0.644143,-0.003386,0.015684,-0.033744,-32.323929,-16.369972,-30.210365,,,,,,,
1512177486.544074,0.267228,0.850168,-3.014402,0.556058,-0.046329,-0.012151,0.174241,-0.751391,-0.636436,0.035919,-0.004010,-0.076653,-32.399826,-16.595085,-29.984825,,,,,,,
1512177486.564063,0.267350,0.861536,-3.019796,0.618098,-0.288667,-0.036614,0.172051,-0.758844,-0.628135,0.019249,0.003167,-0.079903,-32.701935,-17.045540,-30.132484,,,,,,,
1512177486.584052,0.264091,0.873152,-3.026882,0.625276,-0.522479,-0.095959,0.167691,-0.766358,-0.620141,0.009708,0.020401,-0.071540,-32.928391,-17.420876,-29.680748,,,,,,,
1512177486.604071,0.256871,0.884087,-3.035738,0.584356,-0.822602,-0.150901,0.161070,-0.773337,-0.613193,0.023653,0.037924,-0.095410,-33.081848,-18.246101,-29.154854,,,,,,,
1512177486.624060,0.243964,0.893785,-3.046301,0.547144,-1.208101,-0.240198,0.151324,-0.779449,-0.607915,-0.020113,0.026641,-0.092296,-33.757217,-18.397118,-28.549187,,,,,,,
1512177486.644080,0.228513,0.901832,-3.061587,0.466906,-1.433241,-0.427637,0.140487,-0.784464,-0.604052,-0.063598,0.063380,-0.020017,-34.437180,-19.598137,-27.644020,,,,,,,
1512177486.664069,0.213339,0.907349,-3.080253,0.368910,-1.569847,-0.569188,0.130387,-0.787874,-0.601875,-0.080705,0.127962,-0.094140,-34.889160,-20.123817,-26.890434,,,,,,,
1512177486.684088,0.199439,0.911533,-3.108202,0.391997,-1.914079,-0.950630,0.121355,-0.790444,-0.600392,-0.154451,0.175194,-0.118785,-35.640854,-20.649940,-25.534309,,,,,,,
1512177486.704077,0.194601,0.913397,3.131731,0.297615,-1.943047,-1.498985,0.118164,-0.791584,-0.599526,-0.284774,0.272343,-0.017387,-35.867538,-21.175285,-24.182655,,,,,,,
1512177486.724066,0.203383,0.909179,3.072240,0.039229,-1.925379,-1.990922,0.124098,-0.788999,-0.601730,-0.271787,0.244001,0.039154,-36.248016,-22.525841,-22.980080,,,,,,,
1512177486.744086,0.218506,0.897268,3.004167,-0.224750,-1.939114,-2.275171,0.135211,-0.781625,-0.608916,-0.102740,0.210504,0.013595,-35.580322,-24.324852,-21.411659,,,,,,,
1512177486.764075,0.235628,0.880328,2.931155,-0.345103,-1.870421,-2.537863,0.148686,-0.770948,-0.619299,-0.172810,0.192045,0.091269,-35.136108,-25.749184,-20.141151,,,,,,,
1512177486.784095,0.261181,0.859247,2.853692,-0.451100,-1.528333,-2.751418,0.168621,-0.757351,-0.630861,-0.147243,0.174191,0.154207,-34.242325,-27.247841,-19.099495,,,,,,,
1512177486.804060,0.285385,0.836209,2.778652,-0.379867,-1.817955,-2.624532,0.188702,-0.742107,-0.643170,0.233646,-0.118443,-0.105441,-32.598663,-28.745384,-18.289207,,,,,,,
1512177486.824079,0.292055,0.818582,2.715492,-0.132438,-1.898945,-1.987988,0.196724,-0.730177,-0.654324,0.775459,-0.471879,0.194516,-31.329315,-30.093468,-17.475670,,,,,,,
1512177486.844068,0.291742,0.814783,2.689645,0.138486,-0.673775,-0.126990,0.197316,-0.727577,-0.657037,0.817195,-0.558739,0.143457,-30.658661,-31.142464,-16.731911,,,,,,,
1512177486.864057,0.260987,0.814250,2.698492,-0.358926,-1.605564,0.188774,0.177118,-0.727211,-0.663169,-0.012171,-0.054649,-0.025598,-30.434036,-31.292137,-16.133888,,,,,,,
1512177486.884077,0.218283,0.796637,2.696789,-1.099987,-2.518659,-0.492490,0.151396,-0.715009,-0.682525,-0.285979,0.019437,0.035415,-31.333069,-31.143486,-15.526161,,,,,,,
1512177486.904066,0.170451,0.767300,2.691028,-1.506743,-2.421345,-0.323214,0.122096,-0.694194,-0.709357,-0.191828,-0.281987,0.341742,-31.856827,-30.994270,-14.396645,,,,,,,
1512177486.924085,0.121773,0.740730,2.709064,-1.278530,-1.664251,1.066471,0.089643,-0.674827,-0.732511,0.198046,-0.363381,0.125211,-32.004776,-30.619484,-13.645195,,,,,,,
1512177486.944074,0.066973,0.725887,2.755728,-0.693586,-1.048377,1.762566,0.050053,-0.663799,-0.746234,0.207745,0.012554,-0.026120,-33.049225,-29.421059,-13.335732,,,,,,,
1512177486.964094,0.026334,0.715110,2.792941,-0.580471,-0.680427,1.062954,0.019881,-0.655701,-0.754759,-0.121367,0.234634,0.130980,-34.241653,-27.772850,-13.024757,,,,,,,
1512177486.984082,0.004427,0.703719,2.811215,-0.540064,-0.415540,0.564477,0.003375,-0.647057,-0.762434,-0.130252,0.043618,0.069303,-35.209152,-26.124290,-12.865715,,,,,,,
1512177487.004071,-0.013723,0.697396,2.829309,-0.141313,-0.266968,0.827692,-0.010519,-0.642224,-0.766445,0.010702,-0.072346,-0.036869,-36.032547,-25.825523,-12.333565,,,,,,,
1512177487.024091,-0.034128,0.701064,2.856641,0.437822,-0.100067,1.142622,-0.026074,-0.645031,-0.763711,0.057675,-0.008411,-0.072867,-36.253647,-25.000862,-11.956276,,,,,,,
1512177487.044080,-0.062866,0.715458,2.890013,0.960789,-0.511864,1.279891,-0.047420,-0.655963,-0.753302,0.047542,0.004550,-0.033121,-37.075195,-24.327095,-11.123955,,,,,,,
1512177487.064100,-0.100305,0.736356,2.929384,1.232218,-0.589724,1.430669,-0.074194,-0.671592,-0.737197,0.074774,0.082573,-0.018190,-37.821289,-23.578209,-10.067238,,,,,,,
1512177487.084089,-0.137228,0.755856,2.970343,1.041086,-0.377121,1.265531,-0.099546,-0.685912,-0.720844,-0.039126,0.098509,0.049228,-38.415894,-22.454109,-9.386620,,,,,,,
1512177487.104078,-0.160041,0.768918,2.998495,0.638526,0.009044,0.677909,-0.114525,-0.695358,-0.709480,-0.097755,0.156173,0.051627,-38.714218,-22.154549,-8.708931,,,,,,,
1512177487.124097,-0.163190,0.774629,3.010087,0.168010,0.389546,0.203352,-0.116112,-0.699451,-0.705186,-0.053841,0.176242,0.020264,-38.638611,-22.004448,-8.859505,,,,,,,
1512177487.144086,-0.148060,0.771999,3.008843,-0.314079,0.897956,-0.146203,-0.105701,-0.697569,-0.708678,-0.141400,0.108946,0.097945,-38.337555,-21.703987,-9.461906,,,,,,,
1512177487.164106,-0.116739,0.763284,2.998091,-0.516003,1.341490,-0.421565,-0.084160,-0.691298,-0.717652,-0.239341,0.005003,0.101914,-37.664429,-22.002983,-10.517784,,,,,,,
1512177487.184095,-0.082730,0.757891,2.982435,-0.042073,0.817048,-0.611606,-0.060017,-0.687391,-0.723803,-0.211620,-0.325716,0.141772,-36.767319,-22.526619,-11.575676,,,,,,,
1512177487.204113,-0.062199,0.770876,2.971491,0.976802,0.566799,-0.220334,-0.044587,-0.696764,-0.715913,-0.108184,-0.610152,0.168230,-36.095047,-23.125618,-11.656685,,,,,,,
1512177487.224102,-0.061465,0.795493,2.981606,1.275537,0.371354,0.530619,-0.042994,-0.714209,-0.698611,-0.255056,-0.179392,0.227404,-35.869720,-23.050285,-11.658562,,,,,,,
1512177487.244092,-0.064036,0.817949,3.003887,1.114368,0.898345,0.762520,-0.043753,-0.729745,-0.682318,-0.353098,-0.025122,0.226309,-35.793030,-22.675163,-11.659035,,,,,,,
1512177487.264112,-0.061957,0.837152,3.030748,0.939480,1.164846,0.909099,-0.041459,-0.742739,-0.668296,-0.287216,-0.066877,0.266379,-35.567688,-22.524834,-12.335869,,,,,,,
1512177487.284101,-0.059773,0.849061,3.060860,0.394440,1.285735,0.931469,-0.039468,-0.750660,-0.659509,-0.236807,-0.088497,0.275430,-35.266602,-22.224373,-12.863274,,,,,,,
1512177487.304121,-0.058679,0.852684,3.085430,0.170942,0.809452,0.692043,-0.038587,-0.753049,-0.656832,-0.047366,-0.016650,0.273196,-34.291000,-21.997917,-13.696449,,,,,,,
1512177487.324110,-0.057585,0.851433,3.094086,-0.223109,0.042209,-0.015672,-0.037922,-0.752226,-0.657813,0.088810,0.085630,0.183448,-33.841492,-22.072243,-14.000313,,,,,,,
1512177487.344129,-0.052542,0.840259,3.074579,-0.827394,-0.670393,-0.965035,-0.035044,-0.744816,-0.666349,0.074656,0.132496,0.146589,-32.341446,-22.070000,-13.938057,,,,,,,
1512177487.364118,-0.036637,0.818191,3.032785,-1.347346,-0.703248,-1.501451,-0.025037,-0.729910,-0.683084,0.130979,0.141059,0.081354,-31.142685,-22.368202,-13.723396,,,,,,,
1512177487.384107,-0.015607,0.787051,2.989018,-1.726829,-0.428381,-1.424970,-0.011017,-0.708274,-0.705851,0.134720,0.262535,-0.025701,-29.494553,-22.740730,-14.112602,,,,,,,
1512177487.404127,0.003197,0.751736,2.951753,-1.728441,-0.359273,-1.258445,0.002335,-0.682908,-0.730500,0.206146,0.313829,-0.080458,-27.696396,-23.113029,-14.428062,,,,,,,
1512177487.424116,0.009275,0.722091,2.924199,-1.274075,-0.784548,-0.840778,0.006960,-0.660955,-0.750393,0.255262,0.330953,-0.053562,-26.122330,-23.335670,-14.291557,,,,,,,
1512177487.444134,-0.004380,0.703680,2.910245,-0.735222,-1.359323,-0.381896,-0.003340,-0.647028,-0.762459,0.301497,0.250040,-0.077812,-24.995789,-23.033974,-13.925987,,,,,,,
1512177487.464123,-0.033430,0.693547,2.901541,-0.428455,-1.856752,-0.326950,-0.025702,-0.639269,-0.768554,0.320380,0.233645,-0.130235,-24.394745,-22.883064,-13.181023,,,,,,,
1512177487.484143,-0.064081,0.684641,2.891749,-0.533812,-1.787465,-0.334632,-0.049606,-0.632395,-0.773056,0.292114,0.255777,-0.126281,-23.943161,-22.657387,-12.059746,,,,,,,
1512177487.504133,-0.093419,0.670398,2.888094,-0.835461,-1.474789,0.131155,-0.073094,-0.621298,-0.780158,0.266454,0.202185,-0.123422,-22.666656,-22.430473,-11.095482,,,,,,,
1512177487.524122,-0.122457,0.648493,2.897144,-1.185011,-0.960309,0.602279,-0.097354,-0.603986,-0.791027,0.273989,0.218503,-0.277897,-22.514221,-21.980247,-10.271553,,,,,,,
1512177487.544141,-0.144593,0.621949,2.908782,-1.210343,-0.709444,0.663549,-0.117108,-0.582620,-0.804264,0.216351,0.125421,-0.300824,-21.909576,-21.004341,-9.751198,,,,,,,
1512177487.564130,-0.167500,0.600836,2.923562,-0.784654,-0.736906,0.835926,-0.137519,-0.565332,-0.813319,0.157966,0.081125,-0.255055,-21.755066,-20.104118,-8.852058,,,,,,,
1512177487.584150,-0.194432,0.586396,2.943738,-0.435918,-0.806169,1.017701,-0.160932,-0.553363,-0.817245,0.126874,0.036823,-0.129288,-21.676620,-19.428993,-8.027397,,,,,,,
1512177487.604139,-0.222760,0.575055,2.968512,-0.316060,-0.659979,1.191585,-0.185390,-0.543881,-0.818428,0.044322,0.052624,-0.034294,-21.899063,-18.979332,-6.975273,,,,,,,
1512177487.624158,-0.247753,0.562353,2.995644,-0.425351,-0.424296,1.300623,-0.207462,-0.533178,-0.820171,0.059986,-0.048807,-0.055439,-21.970627,-18.304436,-6.149330,,,,,,,
1512177487.644147,-0.266598,0.540379,3.023925,-0.973448,-0.049686,1.587155,-0.225913,-0.514461,-0.827220,0.088782,-0.030583,-0.167516,-22.341232,-17.404991,-5.470726,,,,,,,
1512177487.664136,-0.283558,0.507081,3.059537,-1.221267,0.037505,2.138217,-0.244568,-0.485628,-0.839257,0.005783,0.003557,-0.284126,-22.562744,-16.730324,-4.568520,,,,,,,
1512177487.684155,-0.302923,0.474898,3.102181,-0.804515,0.046421,2.272212,-0.265300,-0.457248,-0.848846,-0.073354,0.042957,-0.281876,-22.703964,-14.855537,-3.891380,,,,,,,
1512177487.704144,-0.323575,0.452726,-3.137549,-0.260819,-0.153296,2.132277,-0.285926,-0.437419,-0.852591,-0.217278,-0.083501,-0.240946,-23.449692,-13.956657,-3.434593,,,,,,,
1512177487.724164,-0.345637,0.438743,-3.097942,0.041742,-0.232199,1.752605,-0.306707,-0.424802,-0.851748,-0.331110,-0.208514,-0.138380,-23.667755,-12.531975,-2.382027,,,,,,,
1512177487.744153,-0.361269,0.434388,-3.066289,0.410132,-0.028674,1.208562,-0.320635,-0.420855,-0.848572,-0.376753,-0.249387,-0.039032,-24.485672,-11.033211,-1.699318,,,,,,,
1512177487.764173,-0.369808,0.435291,-3.045532,0.287850,-0.029936,0.672693,-0.327732,-0.421674,-0.845448,-0.237026,-0.194109,-0.014888,-24.934631,-10.808876,-1.620384,,,,,,,
1512177487.784162,-0.375631,0.432367,-3.037176,-0.169102,-0.148385,0.255225,-0.333100,-0.419021,-0.844669,-0.133575,-0.091980,0.068592,-24.932068,-10.283882,-1.245140,,,,,,,
1512177487.804151,-0.380161,0.424496,-3.037713,-0.477823,-0.336530,0.091259,-0.338137,-0.411861,-0.846188,-0.038130,0.034878,0.081722,-25.381409,-10.134544,-1.241249,,,,,,,
1512177487.824139,-0.391726,0.415964,-3.037349,-0.257012,-0.729620,0.257262,-0.349229,-0.404072,-0.845438,0.147248,0.069859,0.111322,-25.606705,-10.209892,-1.164375,,,,,,,
1512177487.844128,-0.414167,0.413604,-3.031234,0.141267,-1.060170,0.267213,-0.368494,-0.401912,-0.838259,0.057520,0.169017,0.053850,-25.381439,-10.209557,-0.641289,,,,,,,
1512177487.864147,-0.434403,0.416146,-3.025154,0.223782,-0.782164,0.189419,-0.384949,-0.404238,-0.829702,0.014237,0.067813,0.051504,-25.379944,-9.984550,0.333809,,,,,,,
1512177487.884136,-0.449492,0.416992,-3.019325,0.115304,-0.557058,0.249396,-0.397276,-0.405012,-0.823491,-0.008715,-0.034181,0.045079,-25.754715,-9.985115,0.786995,,,,,,,
1512177487.904156,-0.460891,0.415503,-3.013534,0.007500,-0.400226,0.265438,-0.406904,-0.403651,-0.819448,-0.044618,-0.080480,0.039510,-25.452759,-9.609657,1.309608,,,,,,,
1512177487.924145,-0.470146,0.412306,-3.010120,-0.110413,-0.414118,0.174130,-0.415054,-0.400723,-0.816793,-0.047684,-0.079471,0.021826,-25.375809,-9.234535,1.834145,,,,,,,
1512177487.944134,-0.478552,0.408494,-3.009670,-0.170199,-0.376575,0.052934,-0.422605,-0.397228,-0.814626,-0.081728,-0.039295,0.011525,-25.375854,-9.234550,1.759148,,,,,,,
1512177487.964153,-0.482577,0.406673,-3.011676,-0.078065,-0.140080,-0.093094,-0.426215,-0.395555,-0.813558,-0.105126,0.008074,0.005712,-25.300995,-9.309425,2.133476,,,,,,,
1512177487.984142,-0.480220,0.408602,-3.014168,0.078764,0.188211,-0.148310,-0.423943,-0.397327,-0.813882,-0.067573,-0.000973,0.047082,-25.526978,-9.534767,2.210289,,,,,,,
1512177488.004162,-0.474808,0.411043,-3.015720,0.025746,0.242506,-0.098787,-0.419088,-0.399566,-0.815299,0.019414,-0.022828,0.053809,-25.378922,-9.909554,1.683846,,,,,,,
1512177488.024151,-0.469749,0.410818,-3.018365,-0.111497,0.198544,-0.116915,-0.414999,-0.399360,-0.817489,0.021490,-0.013177,0.019332,-25.226746,-9.459312,1.982765,,,,,,,
1512177488.044170,-0.464675,0.409829,-3.021281,-0.088723,0.215579,-0.076020,-0.411022,-0.398453,-0.819937,0.020412,-0.022537,-0.007654,-24.851151,-9.308754,1.829643,,,,,,,
1512177488.064159,-0.460854,0.408227,-3.021507,-0.079661,0.181095,0.083900,-0.408169,-0.396982,-0.822072,0.023694,-0.022695,-0.039759,-24.925781,-9.233864,1.905327,,,,,,,
1512177488.084148,-0.458839,0.405430,-3.019536,-0.090571,0.129654,0.161386,-0.407003,-0.394414,-0.823885,0.001485,-0.004756,-0.049696,-24.927200,-9.533867,1.755180,,,,,,,
1512177488.104168,-0.457611,0.403445,-3.017150,-0.001523,0.089271,0.125224,-0.406335,-0.392589,-0.825085,-0.008841,0.018047,-0.039844,-24.851151,-9.308754,1.829643,,,,,,,
1512177488.124157,-0.457927,0.404329,-3.014756,0.132851,-0.001176,0.053299,-0.406442,-0.393402,-0.824645,0.004571,0.022461,-0.018388,-24.776520,-9.383644,1.753975,,,,,,,
1512177488.144176,-0.459286,0.407190,-3.012825,0.178481,-0.040524,-0.000546,-0.407062,-0.396031,-0.823080,-0.024411,0.031880,-0.013361,-24.701111,-9.308525,1.903374,,,,,,,
1512177488.164165,-0.459726,0.411127,-3.011223,0.240939,0.050432,-0.034506,-0.406729,-0.399643,-0.821497,-0.055261,0.031769,0.004785,-24.852127,-9.533760,1.904549,,,,,,,
1512177488.184185,-0.458030,0.416356,-3.009297,0.280419,0.148764,-0.031458,-0.404406,-0.404431,-0.820300,-0.037397,-0.005512,0.039660,-25.002457,-9.608986,1.905785,,,,,,,
1512177488.204174,-0.455841,0.419857,-3.007491,0.129392,0.134562,0.011079,-0.401983,-0.407630,-0.819907,-0.013010,-0.019418,0.056220,-25.153885,-9.909218,1.756920,,,,,,,
1512177488.224163,-0.453200,0.420483,-3.007227,0.008439,0.154743,-0.022584,-0.399705,-0.408202,-0.820736,-0.030410,-0.016328,0.025158,-24.925095,-9.083870,1.905388,,,,,,,
1512177488.244183,-0.449169,0.421198,-3.008118,0.035982,0.200814,-0.075331,-0.396266,-0.408854,-0.822077,-0.023747,-0.005849,0.004023,-25.299164,-8.859428,1.758690,,,,,,,
1512177488.264172,-0.444184,0.422904,-3.009653,0.047498,0.256478,-0.124007,-0.391863,-0.410410,-0.823411,-0.034757,0.006434,0.006731,-25.001678,-9.383980,1.455894,,,,,,,
1512177488.284191,-0.436697,0.424985,-3.012404,0.017476,0.364416,-0.173106,-0.385325,-0.412307,-0.825546,-0.002599,-0.011216,0.028687,-25.002426,-9.533989,1.305824,,,,,,,
1512177488.304180,-0.427722,0.425387,-3.016018,-0.104625,0.371634,-0.138606,-0.377832,-0.412673,-0.828821,0.046823,-0.020097,0.040643,-24.928696,-9.758873,0.780083,,,,,,,
1512177488.324200,-0.420225,0.422925,-3.019020,-0.195828,0.280512,-0.042165,-0.372020,-0.410430,-0.832555,0.048565,0.002410,0.011892,-24.928589,-9.758873,1.005089,,,,,,,
1512177488.344189,-0.414326,0.420107,-3.021351,-0.143630,0.243205,-0.041538,-0.367568,-0.407858,-0.835791,0.038832,0.006277,-0.022211,-24.629150,-9.833427,0.552513,,,,,,,
1512177488.364178,-0.410213,0.417994,-3.021554,-0.103265,0.158611,0.092008,-0.364469,-0.405928,-0.838084,0.067381,-0.014925,-0.016515,-24.703140,-9.608543,0.553246,,,,,,,
1512177488.384197,-0.409783,0.414560,-3.020065,-0.139282,-0.000686,0.135710,-0.364662,-0.402788,-0.839514,0.034813,0.004442,-0.041391,-24.780167,-10.058647,0.553673,,,,,,,
1512177488.404186,-0.410758,0.412692,-3.018862,-0.009054,-0.038792,0.058574,-0.365781,-0.401077,-0.839846,-0.018481,0.023666,-0.037992,-25.153366,-9.684212,0.782036,,,,,,,
1512177488.424206,-0.412219,0.413152,-3.017549,0.054978,-0.058983,0.053034,-0.366933,-0.401498,-0.839142,-0.007456,0.011301,0.000900,-24.853806,-9.758766,0.554451,,,,,,,
1512177488.444195,-0.414297,0.412984,-3.016137,-0.008132,-0.095416,0.064788,-0.368703,-0.401344,-0.838439,-0.016230,0.011070,0.020492,-25.228592,-9.759315,1.007637,,,,,,,
1512177488.464214,-0.416119,0.412581,-3.015605,0.004451,-0.076075,0.012796,-0.370296,-0.400975,-0.837914,-0.036000,0.008992,0.013772,-25.078247,-9.684105,1.006386,,,,,,,
1512177488.484203,-0.417213,0.412768,-3.015643,0.013418,-0.042893,-0.011475,-0.371182,-0.401146,-0.837440,-0.034610,0.006981,0.012580,-25.152618,-9.534203,0.932106,,,,,,,
1512177488.504192,-0.417080,0.413135,-3.015939,0.016934,0.031910,-0.028225,-0.371011,-0.401483,-0.837355,-0.029502,0.000955,0.017927,-25.151932,-9.384209,0.932167,,,,,,,
1512177488.524212,-0.415817,0.413870,-3.016605,0.023825,0.052283,-0.055766,-0.369834,-0.402156,-0.837552,-0.004281,-0.007131,0.014142,-24.703293,-9.683540,0.928200,,,,,,,
1512177488.544201,-0.414287,0.414736,-3.017672,0.016510,0.067240,-0.064350,-0.368411,-0.402949,-0.837798,-0.002194,-0.004598,0.008605,-25.153809,-9.759209,0.556999,,,,,,,
1512177488.564220,-0.412585,0.415674,-3.018504,0.036584,0.073656,-0.053377,-0.366833,-0.403807,-0.838077,-0.002231,0.005537,0.002827,-25.152420,-9.459206,0.632133,,,,,,,
1512177488.584209,-0.410409,0.417767,-3.019538,0.110013,0.105923,-0.108703,-0.364671,-0.405721,-0.838097,-0.019805,0.014317,-0.009804,-24.927841,-9.533867,0.480186,,,,,,,
1512177488.604229,-0.407208,0.421380,-3.020710,0.151758,0.150869,-0.116469,-0.361403,-0.409020,-0.837908,-0.006318,-0.006828,0.010928,-24.852875,-9.533760,0.404564,,,,,,,
1512177488.624218,-0.403908,0.424177,-3.021658,0.076578,0.143208,-0.083472,-0.358185,-0.411571,-0.838041,0.014374,-0.018696,0.026044,-24.853699,-9.758766,0.779442,,,,,,,
1512177488.644207,-0.400211,0.425490,-3.022980,0.029834,0.176268,-0.091496,-0.354874,-0.412767,-0.838861,-0.008789,-0.008467,0.017542,-24.928925,-9.758873,0.330086,,,,,,,
1512177488.664226,-0.395508,0.427074,-3.024529,0.058735,0.220120,-0.096254,-0.350672,-0.414209,-0.839917,0.002665,-0.013602,0.016156,-24.930725,-10.133873,0.104912,,,,,,,
1512177488.684216,-0.389704,0.429066,-3.025430,0.073416,0.300213,-0.078711,-0.345477,-0.416022,-0.841173,-0.020383,0.008703,0.019594,-25.079712,-9.909096,0.106300,,,,,,,
1512177488.704235,-0.383039,0.430766,-3.027062,0.036697,0.295958,-0.114435,-0.339598,-0.417567,-0.842799,-0.004182,-0.010702,0.013515,-24.704041,-9.758537,0.103172,,,,,,,
1512177488.724224,-0.376611,0.431889,-3.028971,0.002120,0.269150,-0.087311,-0.334001,-0.418587,-0.844528,0.007341,-0.008933,0.011124,-24.930954,-10.133873,-0.345085,,,,,,,
1512177488.744244,-0.370806,0.432725,-3.030761,0.024703,0.247849,-0.099849,-0.328966,-0.419347,-0.846126,-0.005522,0.009923,-0.001744,-24.629898,-9.908424,-0.272530,,,,,,,
1512177488.764233,-0.365663,0.434358,-3.032173,0.062566,0.214731,-0.070633,-0.324365,-0.420828,-0.847166,0.020272,-0.003961,0.004378,-24.781143,-10.133644,-0.721352,,,,,,,
1512177488.784222,-0.361750,0.435609,-3.032251,0.054254,0.185777,-0.020751,-0.320861,-0.421963,-0.847936,-0.009294,0.012295,0.003057,-24.929077,-9.683876,-0.644875,,,,,,,
1512177488.804241,-0.357571,0.437101,-3.033074,0.056375,0.191252,-0.083595,-0.317094,-0.423315,-0.848679,-0.000472,0.006597,-0.005996,-24.855469,-9.983757,-0.720650,,,,,,,
1512177488.824224,-0.353273,0.438963,-3.034292,0.077557,0.186993,-0.075842,-0.313170,-0.425001,-0.849293,0.017790,-0.003695,0.011265,-24.932220,-10.358879,-0.870186,,,,,,,
1512177488.844244,-0.350092,0.440339,-3.034534,0.044404,0.133398,-0.007215,-0.310266,-0.426246,-0.849735,0.017846,0.005607,0.008609,-25.007751,-10.433998,-1.244576,,,,,,,
1512177488.864233,-0.348197,0.440908,-3.034064,0.044071,0.095972,0.010772,-0.308572,-0.426761,-0.850093,0.000787,0.004444,-0.005651,-24.932007,-10.283882,-1.095146,,,,,,,
1512177488.884253,-0.346264,0.442653,-3.033413,0.128705,0.122851,-0.013496,-0.306676,-0.428338,-0.849986,-0.011272,0.002373,-0.011281,-24.706619,-10.208534,-1.022026,,,,,,,
1512177488.904242,-0.343867,0.445977,-3.032695,0.185609,0.143286,-0.036049,-0.304155,-0.431340,-0.849374,-0.018202,0.009511,-0.010261,-24.930618,-9.983879,-1.020012,,,,,,,
1512177488.924230,-0.340627,0.450158,-3.032313,0.213731,0.188234,-0.058941,-0.300796,-0.435108,-0.848647,-0.011032,-0.005047,0.002548,-24.857712,-10.433769,-1.170860,,,,,,,
1512177488.944250,-0.337090,0.454753,-3.031779,0.228585,0.188249,-0.054461,-0.297129,-0.439240,-0.847810,-0.008031,-0.000457,0.012300,-24.707718,-10.433540,-1.172127,,,,,,,
1512177488.964239,-0.333524,0.459546,-3.031522,0.239702,0.188322,-0.082017,-0.293411,-0.443541,-0.846865,-0.012161,0.010451,0.005999,-24.557785,-10.433311,-1.323402,,,,,,,
1512177488.984258,-0.329180,0.464945,-3.031388,0.265247,0.250309,-0.076099,-0.288951,-0.448373,-0.845854,-0.008931,-0.014060,0.028929,-25.009216,-10.734001,-1.469719,,,,,,,
1512177489.004247,-0.323552,0.469476,-3.031086,0.178627,0.304611,-0.057979,-0.283537,-0.452419,-0.845532,-0.006304,-0.009282,0.029217,-24.935944,-11.108879,-1.545525,,,,,,,
1512177489.024267,-0.316897,0.471775,-3.031697,0.065844,0.326894,-0.070197,-0.277579,-0.454468,-0.846409,-0.005624,-0.012588,0.025822,-24.709106,-10.658546,-1.922234,,,,,,,
1512177489.044256,-0.309480,0.473145,-3.033533,0.031478,0.335488,-0.118635,-0.271104,-0.455688,-0.847851,-0.008025,-0.006699,0.015881,-24.934219,-10.658882,-2.145317,,,,,,,
1512177489.064245,-0.301505,0.474309,-3.036013,0.018798,0.351500,-0.125162,-0.264176,-0.456724,-0.849479,-0.006881,0.002454,0.000358,-24.710632,-10.958549,-2.297371,,,,,,,
1512177489.084265,-0.293162,0.476528,-3.038481,0.110734,0.366625,-0.139767,-0.256786,-0.458697,-0.850681,0.007503,0.006655,-0.004422,-24.787552,-11.333656,-2.746910,,,,,,,
1512177489.104254,-0.285831,0.480021,-3.039880,0.150359,0.314246,-0.088203,-0.250089,-0.461797,-0.850998,0.021787,0.004156,-0.004272,-24.636642,-11.108437,-2.973061,,,,,,,
1512177489.124274,-0.280554,0.482451,-3.039910,0.093545,0.242423,-0.009327,-0.245284,-0.463952,-0.851225,0.041244,-0.000526,0.003141,-24.485825,-10.883202,-3.349236,,,,,,,
1512177489.144263,-0.277472,0.484285,-3.038916,0.118644,0.147348,0.016295,-0.242426,-0.465576,-0.851157,0.019632,0.017975,-0.014489,-24.485748,-10.883202,-3.199242,,,,,,,
1512177489.164283,-0.275482,0.487300,-3.037406,0.187623,0.135664,0.034309,-0.240349,-0.468242,-0.850283,0.015175,0.002055,-0.002271,-24.562134,-11.183327,-3.273735,,,,,,,
1512177489.184271,-0.273910,0.490563,-3.035048,0.177484,0.121701,0.067163,-0.238597,-0.471122,-0.849185,0.005489,0.001243,0.005267,-24.786728,-11.108650,-3.121788,,,,,,,
1512177489.204260,-0.272863,0.493171,-3.032875,0.140490,0.090707,0.046264,-0.237376,-0.473421,-0.848248,0.001719,-0.008680,0.012066,-24.411316,-11.033089,-2.974953,,,,,,,
1512177489.224279,-0.271915,0.495034,-3.031438,0.092801,0.072512,0.028454,-0.236335,-0.475062,-0.847621,-0.004678,0.004435,0.010646,-24.634995,-10.733437,-3.047905,,,,,,,
1512177489.244268,-0.270805,0.496647,-3.030809,0.090146,0.073640,-0.004629,-0.235189,-0.476480,-0.847144,-0.000911,0.003656,0.008048,-24.786011,-10.958656,-3.046730,,,,,,,
1512177489.264288,-0.269423,0.498273,-3.030026,0.084194,0.085306,0.033703,-0.233811,-0.477909,-0.846720,0.014450,-0.009060,0.012980,-24.560867,-10.883324,-3.423607,,,,,,,
1512177489.284277,-0.269331,0.499390,-3.028300,0.068794,0.024339,0.058850,-0.233591,-0.478890,-0.846226,0.007867,0.006340,-0.002452,-24.486832,-11.108208,-3.349342,,,,,,,
1512177489.304296,-0.269319,0.500441,-3.027233,0.058873,0.038300,0.015048,-0.233446,-0.479812,-0.845744,-0.011564,-0.001785,-0.000570,-24.635818,-10.883430,-3.347969,,,,,,,
1512177489.324286,-0.268365,0.501185,-3.026856,0.025932,0.063901,0.010398,-0.232545,-0.480465,-0.845621,-0.000289,-0.012638,0.016291,-24.860794,-10.883766,-3.271049,,,,,,,
1512177489.344275,-0.267739,0.501151,-3.026192,0.004187,0.038180,0.034512,-0.232020,-0.480436,-0.845782,-0.006780,0.002485,0.007602,-24.559967,-10.658318,-3.648506,,,,,,,
1512177489.364295,-0.267221,0.501662,-3.025632,0.045145,0.037229,0.007385,-0.231517,-0.480884,-0.845666,-0.010106,0.004169,0.000878,-24.560226,-10.733330,-3.498528,,,,,,,
1512177489.384284,-0.266899,0.502222,-3.024924,0.021076,0.029641,0.044321,-0.231173,-0.481374,-0.845481,0.014010,-0.010966,0.012015,-24.486908,-11.108208,-3.499352,,,,,,,
1512177489.404302,-0.267929,0.501752,-3.023150,-0.010711,-0.038870,0.093727,-0.232104,-0.480962,-0.845460,0.025576,0.002813,0.001466,-24.936646,-11.033882,-3.645485,,,,,,,
1512177489.424291,-0.269588,0.502471,-3.021617,0.098180,-0.018264,0.020752,-0.233414,-0.481592,-0.844740,-0.020889,0.009058,-0.015840,-24.559891,-10.658318,-3.498497,,,,,,,
1512177489.444311,-0.269398,0.504450,-3.020792,0.087680,0.057572,0.014466,-0.232999,-0.483326,-0.843864,-0.005374,-0.013912,0.011024,-24.560638,-10.808327,-3.648567,,,,,,,
1512177489.464300,-0.268806,0.504789,-3.019486,0.000381,0.048782,0.071805,-0.232456,-0.483623,-0.843844,0.013599,-0.011693,0.025195,-24.487030,-11.108208,-3.724342,,,,,,,
1512177489.484289,-0.269590,0.504487,-3.018022,0.028329,-0.036594,0.053791,-0.233157,-0.483358,-0.843802,0.003009,0.011297,-0.002511,-24.560944,-10.883324,-3.573601,,,,,,,
1512177489.504308,-0.271712,0.505365,-3.016160,0.072580,-0.057953,0.084206,-0.234833,-0.484127,-0.842896,0.004898,0.008160,-0.001464,-24.785217,-10.733665,-3.496620,,,,,,,
1512177489.524297,-0.273612,0.506181,-3.013481,0.074616,-0.002419,0.092958,-0.236327,-0.484841,-0.842068,-0.018312,-0.001426,0.004116,-24.785446,-10.808662,-3.271660,,,,,,,
1512177489.544317,-0.273913,0.507175,-3.011792,0.047698,0.036083,0.045793,-0.236450,-0.485709,-0.841533,-0.005310,-0.016213,0.023005,-24.635452,-10.808434,-3.272926,,,,,,,
1512177489.564306,-0.273601,0.506888,-3.010747,-0.028144,0.034883,0.055352,-0.236225,-0.485458,-0.841740,0.013615,-0.015243,0.029607,-24.635147,-10.733437,-3.347893,,,,,,,
1512177489.584326,-0.273859,0.505580,-3.009760,-0.048478,-0.002542,0.058125,-0.236614,-0.484315,-0.842290,0.011119,0.011720,0.010671,-24.935822,-10.883888,-3.345421,,,,,,,
1512177489.604315,-0.274368,0.505100,-3.008908,0.006359,0.001872,0.030152,-0.237105,-0.483895,-0.842393,0.001952,0.012338,-0.011550,-25.010040,-10.734001,-3.119713,,,,,,,
1512177489.624305,-0.274702,0.505533,-3.008156,0.034096,0.009395,0.029515,-0.237330,-0.484274,-0.842112,0.009013,-0.003870,-0.011495,-24.709778,-10.658546,-3.272224,,,,,,,
1512177489.644323,-0.274974,0.505799,-3.006995,0.013371,0.001825,0.056903,-0.237524,-0.484506,-0.841924,0.025183,-0.019278,-0.003657,-24.934021,-10.508873,-3.120247,,,,,,,
1512177489.664312,-0.276601,0.505959,-3.005540,0.044290,-0.067549,0.053914,-0.238873,-0.484646,-0.841461,0.006237,-0.000614,-0.000763,-24.633392,-10.358421,-3.197716,,,,,,,
1512177489.684332,-0.278505,0.507018,-3.003962,0.075187,-0.035461,0.056605,-0.240332,-0.485572,-0.840511,-0.006997,0.005668,0.002926,-25.233994,-10.509331,-3.042702,,,,,,,
1512177489.704321,-0.279570,0.507495,-3.002111,0.033320,-0.002453,0.075300,-0.241164,-0.485989,-0.840032,-0.008348,-0.002307,0.033086,-25.383804,-10.434563,-3.341377,,,,,,,
1512177489.724340,-0.280428,0.507595,-3.000120,0.025647,0.004991,0.089076,-0.241871,-0.486077,-0.839778,-0.010952,-0.006599,0.026210,-25.533722,-10.434776,-3.190102,,,,,,,
1512177489.744329,-0.280966,0.507478,-2.998092,0.007545,0.030599,0.088902,-0.242339,-0.485975,-0.839702,-0.004518,-0.011553,0.019634,-25.382294,-10.134544,-3.041252,,,,,,,
1512177489.764318,-0.281371,0.506763,-2.995974,-0.010800,0.030545,0.102495,-0.242775,-0.485350,-0.839938,-0.006050,-0.005067,0.004748,-25.008057,-10.283989,-3.194496,,,,,,,
1512177489.784338,-0.282306,0.506147,-2.993713,-0.004363,-0.015366,0.098166,-0.243644,-0.484811,-0.839997,0.005790,0.012018,-0.012038,-25.082336,-10.134102,-3.118797,,,,,,,
1512177489.804327,-0.284445,0.506230,-2.992020,0.046467,-0.087839,0.049608,-0.245428,-0.484883,-0.839436,0.003943,0.013600,-0.029705,-25.306732,-9.984444,-3.266808,,,,,,,
1512177489.824317,-0.287382,0.507302,-2.990698,0.065714,-0.128388,0.044417,-0.247745,-0.485821,-0.838212,0.015461,0.008190,-0.026656,-25.082642,-10.209099,-3.043831,,,,,,,
1512177489.864326,-0.295866,0.509588,-2.986648,0.094742,-0.206413,0.090406,-0.254523,-0.487818,-0.835016,0.009055,0.010584,0.002588,-25.382568,-10.209557,-2.891273,,,,,,,
1512177489.844306,-0.291091,0.508337,-2.988976,0.078152,-0.149774,0.064777,-0.250708,-0.486726,-0.836806,0.005255,0.010758,-0.012682,-25.382858,-10.284554,-2.816322,,,,,,,
1512177489.884315,-0.301817,0.510989,-2.983640,0.123078,-0.235261,0.116302,-0.259285,-0.489041,-0.832833,0.007026,0.006146,0.013924,-25.605759,-9.834892,-2.664207,,,,,,,
1512177489.904304,-0.309254,0.512441,-2.979395,0.121861,-0.300565,0.186415,-0.265255,-0.490306,-0.830204,0.038326,-0.008473,0.028965,-25.155609,-9.834206,-2.368019,,,,,,,
1512177489.924323,-0.319228,0.512882,-2.973717,0.093093,-0.397932,0.245359,-0.273453,-0.490691,-0.827312,0.046158,-0.009050,0.019008,-25.380157,-9.759544,-2.141075,,,,,,,
1512177489.944312,-0.330498,0.512679,-2.967657,0.047077,-0.400157,0.256413,-0.282793,-0.490514,-0.824272,0.011110,-0.031962,0.018150,-25.605682,-9.909889,-1.839241,,,,,,,
1512177489.964332,-0.339195,0.509741,-2.962641,-0.142699,-0.273346,0.263699,-0.290429,-0.487951,-0.823137,0.005059,-0.049723,0.035524,-25.381592,-10.134544,-1.616249,,,,,,,
1512177489.984321,-0.345883,0.503191,-2.958897,-0.301400,-0.247938,0.256157,-0.297004,-0.482223,-0.824165,-0.003060,-0.006851,0.023491,-25.831696,-10.135216,-1.837425,,,,,,,
1512177490.004340,-0.352081,0.496983,-2.956953,-0.213157,-0.280686,0.140056,-0.303133,-0.476776,-0.825103,-0.030363,0.044891,-0.022538,-25.827133,-9.160225,-1.461983,,,,,,,
1512177490.024329,-0.358207,0.494565,-2.955759,-0.043997,-0.280345,0.095599,-0.308585,-0.474648,-0.824308,-0.012185,0.024438,-0.010745,-25.978821,-9.535439,-1.460869,,,,,,,
1512177490.044318,-0.365053,0.493308,-2.953184,-0.037561,-0.294341,0.157477,-0.314434,-0.473542,-0.822732,0.015468,-0.000106,-0.002265,-25.827011,-9.160225,-1.236977,,,,,,,
1512177490.064338,-0.372524,0.491719,-2.950302,-0.013498,-0.323068,0.119348,-0.320846,-0.472142,-0.821060,-0.026765,0.006779,-0.011505,-26.126572,-9.085670,-1.009407,,,,,,,
1512177490.084327,-0.379447,0.491947,-2.948221,0.070577,-0.281175,0.065276,-0.326482,-0.472343,-0.818719,-0.028254,0.007896,0.005761,-26.277466,-9.310890,-0.783226,,,,,,,
1512177490.104347,-0.385235,0.492404,-2.946375,0.034255,-0.225699,0.072405,-0.331134,-0.472746,-0.816615,-0.008481,-0.017153,0.036250,-26.052353,-9.310555,-0.560143,,,,,,,
1512177490.124336,-0.389722,0.491082,-2.944630,-0.070730,-0.165033,0.107345,-0.335032,-0.471580,-0.815699,-0.003240,-0.011742,0.042674,-26.051636,-9.160561,-0.485069,,,,,,,
1512177490.144355,-0.392748,0.488719,-2.943455,-0.077557,-0.093405,0.072315,-0.337925,-0.469495,-0.815708,-0.021679,0.000608,0.018498,-25.750549,-8.935112,-0.337517,,,,,,,
1512177490.164344,-0.393673,0.487235,-2.942842,-0.060115,0.008136,0.053731,-0.338946,-0.468185,-0.816038,-0.012388,-0.007035,0.020414,-25.898407,-8.485329,-0.111031,,,,,,,
1512177490.184333,-0.392985,0.484821,-2.942282,-0.136191,0.064579,0.079475,-0.338816,-0.466050,-0.817313,0.002603,-0.015746,0.020942,-25.673645,-8.559990,0.112022,,,,,,,
1512177490.204353,-0.391825,0.481556,-2.942197,-0.145385,0.061407,0.054811,-0.338447,-0.463159,-0.819107,-0.004235,-0.004187,-0.000732,-25.673645,-8.559990,0.112022,,,,,,,
1512177490.224342,-0.390559,0.479203,-2.941998,-0.085702,0.067910,0.056767,-0.337824,-0.461072,-0.820541,-0.001105,-0.000644,-0.006043,-25.823410,-8.485222,-0.111671,,,,,,,
1512177490.244361,-0.389765,0.477753,-2.941373,-0.040745,0.054112,0.044576,-0.337425,-0.459785,-0.821426,-0.006004,0.010048,-0.013977,-25.821732,-8.110207,-0.111504,,,,,,,
1512177490.264350,-0.389029,0.477319,-2.940775,-0.004366,0.048838,0.035487,-0.336896,-0.459399,-0.821859,0.001783,-0.001111,0.001180,-26.050217,-8.860558,-0.334938,,,,,,,
1512177490.284370,-0.388939,0.476625,-2.939879,-0.032529,0.010297,0.061600,-0.336943,-0.458783,-0.822184,0.014647,-0.006121,0.008036,-25.973755,-8.560448,-0.110435,,,,,,,
1512177490.304359,-0.389710,0.475189,-2.938710,-0.049880,-0.025015,0.077215,-0.337827,-0.457506,-0.822533,0.004453,0.008242,-0.000786,-26.272736,-8.335884,-0.107780,,,,,,,
1512177490.324348,-0.391089,0.473924,-2.937674,-0.033545,-0.053780,0.056035,-0.339181,-0.456381,-0.822601,-0.005850,0.016623,-0.003800,-26.122665,-8.335655,0.040947,,,,,,,
1512177490.344367,-0.392475,0.473566,-2.937075,0.015047,-0.054708,0.017286,-0.340384,-0.456063,-0.822280,-0.008539,0.014107,-0.004685,-26.046951,-8.185555,0.115379,,,,,,,
1512177490.364356,-0.393828,0.473968,-2.936685,0.016259,-0.065364,0.008742,-0.341426,-0.456420,-0.821650,0.001292,-0.004349,0.009897,-25.970932,-7.960442,0.114845,,,,,,,
1512177490.384376,-0.395441,0.473648,-2.936344,-0.024579,-0.078288,0.027291,-0.342807,-0.456136,-0.821233,0.004230,-0.011989,0.019734,-25.971573,-8.110435,0.189781,,,,,,,
1512177490.404365,-0.397250,0.472867,-2.936280,-0.027429,-0.085726,0.005903,-0.344429,-0.455440,-0.820940,-0.011009,0.001247,0.006044,-26.125137,-8.860664,-0.184288,,,,,,,
1512177490.424384,-0.398371,0.472432,-2.936303,-0.016810,-0.035517,0.010495,-0.345426,-0.455054,-0.820735,-0.012316,0.000357,0.012370,-25.446838,-8.184654,0.335274,,,,,,,
1512177490.444373,-0.398659,0.472305,-2.936443,0.000668,-0.005534,-0.013668,-0.345685,-0.454940,-0.820689,-0.018130,-0.007569,0.011729,-25.746841,-8.185097,0.337822,,,,,,,
1512177490.464362,-0.398391,0.472181,-2.936542,-0.030626,0.016804,0.010476,-0.345487,-0.454830,-0.820834,0.002271,-0.009388,0.019259,-25.822556,-8.335213,0.263390,,,,,,,
1512177490.484382,-0.398204,0.471211,-2.936648,-0.050879,0.002891,0.010137,-0.345505,-0.453966,-0.821304,-0.001877,0.001985,0.005066,-25.972137,-8.260429,0.414711,,,,,,,
1512177490.504371,-0.397864,0.470472,-2.937104,-0.037785,0.011491,-0.007767,-0.345355,-0.453307,-0.821731,0.000384,0.005233,0.006759,-26.046234,-8.035545,0.190453,,,,,,,
1512177490.524390,-0.397736,0.469891,-2.937274,-0.027366,-0.002407,0.006194,-0.345352,-0.452789,-0.822018,0.004272,0.003250,0.007839,-26.272934,-8.410881,0.192192,,,,,,,
1512177490.544379,-0.397964,0.469229,-2.937367,-0.042463,-0.014203,0.015527,-0.345656,-0.452199,-0.822215,0.002837,0.001912,0.010448,-25.596207,-8.034874,0.261620,,,,,,,
1512177490.564399,-0.398215,0.468371,-2.937351,-0.035012,-0.010986,0.016714,-0.346012,-0.451434,-0.822486,-0.003780,0.000429,0.004020,-25.895859,-7.960320,0.264214,,,,,,,
1512177490.584388,-0.398152,0.467475,-2.937379,-0.047760,0.011425,0.014472,-0.346117,-0.450633,-0.822881,-0.003477,0.006694,0.007359,-25.822174,-8.260216,0.338432,,,,,,,
1512177490.604377,-0.397634,0.466780,-2.937504,-0.023120,0.027503,0.008491,-0.345812,-0.450013,-0.823348,0.001040,-0.003692,0.011779,-25.896988,-8.185326,0.039101,,,,,,,
1512177490.624397,-0.397130,0.466226,-2.937458,-0.033938,0.025331,0.017921,-0.345493,-0.449518,-0.823752,0.006397,-0.004416,0.007407,-25.597885,-8.409874,0.261452,,,,,,,
1512177490.644386,-0.396755,0.465212,-2.937364,-0.050036,0.014613,0.024048,-0.345360,-0.448612,-0.824301,0.003670,-0.005062,0.002799,-26.048981,-8.635551,0.115166,,,,,,,
1512177490.664405,-0.396593,0.464121,-2.937613,-0.054980,-0.000305,-0.000597,-0.345416,-0.447637,-0.824808,-0.004362,0.008154,-0.010443,-25.595825,-7.959877,0.336647,,,,,,,
1512177490.684394,-0.396515,0.463593,-2.937925,-0.015610,-0.007725,0.004214,-0.345442,-0.447165,-0.825053,0.002104,-0.000391,-0.000844,-25.596832,-8.184883,0.336555,,,,,,,
1512177490.704414,-0.397187,0.463361,-2.937755,-0.002909,-0.040832,0.007479,-0.346037,-0.446957,-0.824917,-0.002642,0.008908,-0.002766,-25.821579,-8.110207,0.188499,,,,,,,
1512177490.724403,-0.398021,0.463703,-2.937595,0.028092,-0.032231,0.002627,-0.346666,-0.447263,-0.824486,-0.004469,-0.004488,0.014291,-25.749771,-8.785103,-0.112450,,,,,,,
1512177490.744392,-0.398746,0.463788,-2.937407,-0.010358,-0.028024,0.007416,-0.347249,-0.447339,-0.824200,0.000401,-0.008090,0.020886,-25.896912,-8.185326,0.189110,,,,,,,
1512177490.764411,-0.399285,0.463015,-2.937065,-0.041838,-0.028136,0.042141,-0.347827,-0.446648,-0.824331,0.006412,-0.002906,0.016485,-25.897629,-8.335320,0.114037,,,,,,,
1512177490.784400,-0.400394,0.462235,-2.936919,-0.010354,-0.053656,0.006262,-0.348877,-0.445950,-0.824265,-0.012497,0.013012,-0.002639,-25.896194,-8.035332,0.264168,,,,,,,
1512177490.804420,-0.401043,0.462542,-2.936728,0.017477,-0.020485,0.001452,-0.349358,-0.446225,-0.823913,-0.002403,0.001324,0.006652,-26.047211,-8.260551,0.265343,,,,,,,
1512177490.824404,-0.401767,0.462660,-2.936707,-0.000545,-0.041860,-0.005278,-0.349934,-0.446330,-0.823611,-0.004955,-0.000523,0.004107,-25.971207,-8.035439,0.264809,,,,,,,
1512177490.844423,-0.402733,0.462760,-2.936772,0.007864,-0.052552,0.000131,-0.350712,-0.446419,-0.823232,-0.004345,0.004952,-0.001383,-25.972809,-8.410439,0.414635,,,,,,,
1512177490.864412,-0.403832,0.463130,-2.936730,0.027262,-0.048224,-0.012365,-0.351551,-0.446750,-0.822694,-0.003536,-0.000592,-0.000228,-25.747406,-8.335106,0.562767,,,,,,,
1512177490.884401,-0.404583,0.463587,-2.936735,0.014308,-0.033310,-0.001840,-0.352089,-0.447159,-0.822242,0.003838,-0.003387,0.014762,-25.821838,-8.185219,0.338463,,,,,,,
1512177490.904421,-0.405393,0.463872,-2.936504,0.021652,-0.035446,0.005723,-0.352705,-0.447414,-0.821839,0.005247,-0.003361,0.010972,-25.821457,-8.110207,0.413506,,,,,,,
1512177490.924410,-0.406055,0.464100,-2.936112,0.011910,-0.011984,0.015256,-0.353208,-0.447618,-0.821512,0.001783,-0.002440,0.014230,-25.520676,-7.959755,0.636024,,,,,,,
1512177490.944429,-0.406101,0.464070,-2.935740,-0.001876,0.012569,0.011943,-0.353251,-0.447592,-0.821508,-0.000310,-0.007334,0.010778,-25.597443,-8.334877,0.486488,,,,,,,
1512177490.964417,-0.405587,0.463748,-2.935819,-0.019812,0.037133,0.002176,-0.352886,-0.447304,-0.821822,-0.010350,0.006050,0.005843,-25.595078,-7.809868,0.486717,,,,,,,
1512177490.984437,-0.404492,0.463546,-2.936078,-0.015359,0.045703,-0.009459,-0.352021,-0.447122,-0.822291,0.004411,-0.002905,0.005091,-25.898270,-8.485329,0.188972,,,,,,,
1512177491.004426,-0.403832,0.463174,-2.936361,-0.021944,0.016834,0.001007,-0.351544,-0.446790,-0.822676,0.010998,0.004819,0.004866,-25.970871,-7.960442,0.264839,,,,,,,
1512177491.024415,-0.404047,0.463057,-2.936188,0.010903,-0.023729,0.010935,-0.351741,-0.446685,-0.822649,0.007884,0.003997,-0.001311,-25.896912,-8.185326,0.189110,,,,,,,
1512177491.044436,-0.405051,0.463389,-2.935802,0.025764,-0.040801,0.014291,-0.352509,-0.446983,-0.822158,-0.000015,0.002555,0.006835,-25.897171,-8.260323,0.339058,,,,,,,
1512177491.064425,-0.405891,0.463639,-2.935147,0.016018,-0.023741,0.024872,-0.353155,-0.447205,-0.821759,-0.001932,-0.007491,0.015393,-25.972931,-8.410439,0.189644,,,,,,,
1512177491.084444,-0.406246,0.463360,-2.934851,-0.020047,0.002926,0.014846,-0.353496,-0.446956,-0.821748,-0.008961,0.000057,0.018434,-25.897507,-8.335320,0.339027,,,,,,,
1512177491.104433,-0.405551,0.463076,-2.935065,-0.006731,0.041462,-0.014675,-0.352975,-0.446702,-0.822111,-0.008384,0.001283,0.010542,-25.595566,-7.884865,0.186699,,,,,,,
1512177491.124453,-0.404498,0.462954,-2.935390,-0.025045,0.046749,-0.003197,-0.352131,-0.446593,-0.822532,0.010471,-0.013703,0.015143,-25.971771,-8.185432,0.489738,,,,,,,
1512177491.144442,-0.403702,0.461739,-2.935548,-0.078830,0.027381,0.024739,-0.351688,-0.445506,-0.823310,0.014789,-0.012075,0.006996,-25.971130,-8.035439,0.414818,,,,,,,
1512177491.164431,-0.403402,0.460113,-2.935935,-0.080678,-0.000356,0.006494,-0.351725,-0.444050,-0.824081,0.006037,-0.000332,-0.007950,-25.972183,-8.260429,0.339699,,,,,,,
1512177491.184450,-0.403163,0.458913,-2.936639,-0.057988,-0.004559,-0.012383,-0.351737,-0.442974,-0.824654,-0.004647,0.011776,-0.009712,-25.820938,-7.960213,0.113564,,,,,,,
1512177491.204439,-0.403339,0.458277,-2.937371,-0.040824,-0.037633,-0.020779,-0.351993,-0.442403,-0.824852,-0.005673,0.012411,-0.005150,-25.895752,-7.960320,0.489204,,,,,,,
1512177491.224459,-0.404092,0.457788,-2.938175,-0.037701,-0.063273,-0.017625,-0.352699,-0.441965,-0.824785,-0.007149,0.007532,0.010332,-25.820038,-7.810204,0.563637,,,,,,,
1512177491.244447,-0.405394,0.457118,-2.938451,-0.040295,-0.080418,0.009997,-0.353889,-0.441364,-0.824597,-0.010140,0.002781,0.012753,-25.595337,-7.884865,0.636696,,,,,,,
1512177491.264467,-0.406573,0.456386,-2.939046,-0.036555,-0.061122,-0.021863,-0.354988,-0.440707,-0.824476,-0.021675,0.008944,0.009763,-25.972031,-8.260429,0.639702,,,,,,,
1512177491.284456,-0.407146,0.456253,-2.939873,-0.017149,-0.041842,-0.034309,-0.355484,-0.440588,-0.824326,-0.001770,-0.004343,0.015992,-25.821014,-8.035210,0.638542,,,,,,,
1512177491.304445,-0.407350,0.455523,-2.940904,-0.075946,-0.026996,-0.023381,-0.355780,-0.439932,-0.824549,0.016043,-0.009882,0.017938,-26.121094,-8.035667,0.491081,,,,,,,
1512177491.324465,-0.407329,0.453945,-2.942133,-0.098360,-0.020626,-0.021552,-0.356037,-0.438514,-0.825193,0.010807,-0.006890,0.011442,-25.595718,-7.959877,0.561653,,,,,,,
1512177491.344454,-0.406964,0.452399,-2.943148,-0.089066,0.016739,-0.001030,-0.356004,-0.437124,-0.825944,0.011369,-0.016107,0.021684,-25.896835,-8.185326,0.339104,,,,,,,
1512177491.364473,-0.405495,0.450030,-2.943737,-0.151390,0.089215,0.032433,-0.355198,-0.434993,-0.827415,0.013096,-0.043935,0.048988,-26.121124,-8.035667,0.416084,,,,,,,
1512177491.384462,-0.401682,0.445003,-2.945767,-0.364986,0.187233,-0.004436,-0.352890,-0.430461,-0.830766,0.032639,-0.091222,0.075761,-26.121613,-8.110664,0.116051,,,,,,,
1512177491.404482,-0.393424,0.434963,-2.952628,-0.723566,0.320536,-0.168008,-0.347657,-0.421377,-0.837601,0.005646,-0.072672,0.054520,-26.048828,-8.560555,-0.259804,,,,,,,
1512177491.424471,-0.378895,0.421254,-2.967982,-0.983886,0.458656,-0.538029,-0.337557,-0.408905,-0.847851,-0.014448,0.007324,-0.018558,-25.747971,-8.410103,0.112724,,,,,,,
1512177491.444460,-0.359215,0.408993,-2.991147,-0.905028,0.523503,-0.855408,-0.322545,-0.397686,-0.858959,-0.029597,0.059704,-0.064839,-25.448898,-8.559654,-0.414894,,,,,,,
1512177491.464478,-0.341933,0.402278,-3.012274,-0.509025,0.391336,-0.698753,-0.308541,-0.391516,-0.866901,-0.008307,0.077917,-0.038769,-25.599686,-8.709877,-0.638695,,,,,,,
1512177491.484468,-0.333049,0.400190,-3.023822,-0.168975,0.115521,-0.322730,-0.301094,-0.389593,-0.870379,0.008400,0.072119,-0.035886,-25.002731,-9.383980,-0.644096,,,,,,,
1512177491.504488,-0.332562,0.401085,-3.026756,0.076967,-0.092932,-0.055511,-0.300557,-0.390418,-0.870195,-0.010555,0.031653,-0.025465,-24.927353,-9.308876,-0.569695,,,,,,,
1512177491.524477,-0.336186,0.403443,-3.025121,0.155922,-0.176369,0.065808,-0.303404,-0.392587,-0.868229,-0.018938,0.000039,0.006199,-25.153320,-9.534203,-0.492897,,,,,,,
1512177491.544497,-0.342213,0.405231,-3.022462,0.111824,-0.287566,0.083971,-0.308395,-0.394231,-0.865722,0.001327,-0.035700,0.026290,-25.228928,-9.684319,-0.342323,,,,,,,
1512177491.564486,-0.349378,0.405483,-3.020419,0.016002,-0.321876,0.075001,-0.314556,-0.394463,-0.863396,-0.002720,-0.028877,0.022347,-25.377579,-9.384544,-0.340904,,,,,,,
1512177491.584475,-0.354488,0.404961,-3.020346,-0.025802,-0.206358,-0.035007,-0.319035,-0.393983,-0.861971,-0.016475,0.006318,0.000719,-25.151031,-9.084206,0.032310,,,,,,,
1512177491.604494,-0.356075,0.404763,-3.022494,-0.059632,-0.084484,-0.110763,-0.320430,-0.393801,-0.861537,0.010082,0.011736,0.012141,-25.526749,-9.234764,-0.039574,,,,,,,
1512177491.624483,-0.356393,0.403873,-3.026310,-0.138640,-0.109060,-0.169561,-0.320826,-0.392982,-0.861763,0.041850,-0.002007,0.016991,-24.927200,-9.308876,-0.269707,,,,,,,
1512177491.644503,-0.357823,0.401959,-3.031750,-0.192378,-0.224421,-0.213383,-0.322320,-0.391222,-0.862006,0.034997,0.003176,-0.026010,-25.378174,-9.534538,-0.190987,,,,,,,
1512177491.664492,-0.362006,0.400713,-3.037037,-0.106339,-0.363176,-0.200891,-0.326096,-0.390075,-0.861106,0.018784,0.009170,-0.059366,-25.152390,-9.384209,0.032173,,,,,,,
1512177491.684510,-0.368412,0.401347,-3.041573,-0.014566,-0.421770,-0.209360,-0.331516,-0.390659,-0.858768,0.003681,0.005786,-0.042553,-24.927917,-9.533867,0.330193,,,,,,,
1512177491.704499,-0.375640,0.402913,-3.045596,0.002274,-0.462354,-0.197528,-0.337490,-0.392100,-0.855779,-0.003895,-0.007055,-0.003871,-25.304489,-9.909431,0.558205,,,,,,,
1512177491.724488,-0.382273,0.404026,-3.051252,-0.076946,-0.437699,-0.306265,-0.342996,-0.393123,-0.853116,-0.016119,-0.016850,0.021176,-25.379044,-9.834541,0.783867,,,,,,,
1512177491.744509,-0.389682,0.403098,-3.060083,-0.285923,-0.654723,-0.380411,-0.349445,-0.392270,-0.850889,0.052128,-0.069659,0.028623,-25.456070,-10.284660,0.784309,,,,,,,
1512177491.764498,-0.399873,0.397416,-3.073675,-0.609541,-0.808708,-0.544475,-0.358961,-0.387037,-0.849323,0.028745,-0.011584,-0.022824,-24.930084,-10.133873,1.379906,,,,,,,
1512177491.784517,-0.408369,0.390783,-3.091807,-0.604308,-0.742234,-0.664633,-0.367175,-0.380913,-0.848580,-0.019055,0.038673,-0.045066,-24.406326,-10.433098,1.600304,,,,,,,
1512177491.804506,-0.415234,0.387492,-3.109855,-0.409088,-0.655276,-0.732927,-0.373496,-0.377868,-0.847182,-0.044488,0.083144,-0.028886,-24.632858,-10.808434,1.902046,,,,,,,
1512177491.824480,-0.419748,0.389449,-3.128436,-0.189365,-0.535046,-0.863650,-0.377013,-0.379679,-0.844810,-0.033326,0.051859,0.028007,-24.408356,-10.958092,2.275063,,,,,,,
1512177491.844469,-0.422227,0.393389,3.136931,-0.164098,-0.427295,-0.774426,-0.378490,-0.383321,-0.842502,0.006329,0.006337,0.080539,-24.485931,-11.483208,1.825462,,,,,,,
1512177491.864458,-0.424430,0.395000,3.122764,-0.202908,-0.362633,-0.550890,-0.380091,-0.384808,-0.841102,-0.007665,-0.016834,0.080330,-24.036118,-11.557533,2.121605,,,,,,,
1512177491.884477,-0.426735,0.395825,3.112385,-0.110664,-0.281633,-0.387231,-0.381898,-0.385570,-0.839935,-0.025390,-0.027242,0.049606,-24.038116,-12.007530,2.196388,,,,,,,
1512177491.904466,-0.429067,0.397369,3.107829,0.042857,-0.139850,-0.122263,-0.383607,-0.386994,-0.838499,-0.056487,-0.022659,0.041319,-23.813141,-12.007195,2.119484,,,,,,,
1512177491.924486,-0.429934,0.399278,3.108934,0.126226,0.031886,0.067170,-0.384025,-0.388753,-0.837493,-0.028237,-0.034571,0.053894,-23.665390,-12.531975,2.342964,,,,,,,
1512177491.944475,-0.430070,0.399991,3.111555,0.044763,0.054136,0.094850,-0.384023,-0.389410,-0.837189,0.003179,-0.016763,0.039246,-24.039047,-12.232536,2.346291,,,,,,,
1512177491.964494,-0.429961,0.399470,3.113946,0.019618,0.050820,0.132853,-0.384017,-0.388930,-0.837415,0.023253,0.014830,0.000867,-23.814728,-12.382195,2.344307,,,,,,,
1512177491.984484,-0.431445,0.399100,3.118193,0.095028,-0.019723,0.210454,-0.385319,-0.388589,-0.836975,0.027043,0.015329,-0.034607,-24.037918,-12.007530,2.571388,,,,,,,
1512177492.004473,-0.435326,0.400812,3.124008,0.247602,-0.100651,0.198523,-0.388283,-0.390166,-0.834869,0.016274,0.007643,-0.046677,-23.962921,-12.007423,2.570747,,,,,,,
1512177492.024492,-0.439923,0.404957,3.130778,0.331909,-0.080216,0.194487,-0.391425,-0.393979,-0.831605,0.000877,0.009412,-0.018096,-24.186722,-11.782753,2.947762,,,,,,,
1512177492.044481,-0.443076,0.408795,3.137034,0.264240,-0.008691,0.163905,-0.393394,-0.397504,-0.828994,-0.004845,0.009641,0.019851,-24.112549,-11.932655,2.647057,,,,,,,
1512177492.064501,-0.444642,0.411468,3.141399,0.184278,-0.003348,0.099867,-0.394234,-0.399955,-0.827415,-0.004601,0.002311,0.025794,-24.337616,-11.932991,2.498970,,,,,,,
1512177492.084490,-0.446152,0.413300,-3.138892,0.123897,-0.030095,0.075447,-0.395165,-0.401633,-0.826156,-0.001182,-0.001611,0.021393,-24.263000,-12.007866,2.423302,,,,,,,
1512177492.104509,-0.447721,0.414557,-3.136320,0.107884,-0.026915,0.077360,-0.396242,-0.402784,-0.825080,-0.017729,0.000044,0.009818,-24.260818,-11.557869,2.723503,,,,,,,
1512177492.124498,-0.448736,0.415750,-3.134143,0.092453,0.011580,0.045288,-0.396871,-0.403876,-0.824243,-0.031657,0.008460,0.004373,-24.260666,-11.557869,3.023506,,,,,,,
1512177492.144487,-0.448481,0.417098,-3.132833,0.082284,0.052211,0.017565,-0.396424,-0.405109,-0.823853,-0.021483,0.003574,0.010712,-23.885818,-11.557304,2.720314,,,,,,,
1512177492.164507,-0.447514,0.418227,-3.131850,0.059867,0.077807,0.020527,-0.395429,-0.406141,-0.823824,0.002485,-0.000033,0.020326,-24.487549,-11.933205,2.650246,,,,,,,
1512177492.184496,-0.446448,0.418654,-3.130690,0.032813,0.074513,0.044642,-0.394476,-0.406531,-0.824088,0.012289,-0.006708,0.018805,-24.261917,-11.782875,2.573402,,,,,,,
1512177492.204515,-0.445631,0.418425,-3.129812,-0.009675,0.056308,0.034369,-0.393842,-0.406322,-0.824494,0.018156,-0.009572,0.008836,-24.635117,-11.408424,2.801765,,,,,,,
1512177492.224504,-0.444713,0.417422,-3.129325,-0.044990,0.062643,0.042406,-0.393261,-0.405405,-0.825223,0.004299,-0.006811,0.000836,-24.411163,-11.633095,2.724739,,,,,,,
1512177492.244524,-0.443305,0.416628,-3.129141,-0.016773,0.081979,0.014103,-0.392236,-0.404679,-0.826066,-0.001746,0.001267,-0.005202,-24.410980,-11.558098,2.424797,,,,,,,
1512177492.264513,-0.441723,0.416548,-3.128637,0.013818,0.092664,0.033770,-0.390943,-0.404606,-0.826715,0.000211,-0.000789,0.005975,-24.410980,-11.558098,2.424797,,,,,,,
1512177492.284502,-0.440019,0.416803,-3.127670,0.036213,0.111925,0.034161,-0.389490,-0.404839,-0.827287,-0.004309,-0.001808,0.015992,-24.410599,-11.483101,2.499825,,,,,,,
1512177492.304521,-0.438429,0.416889,-3.126782,-0.000124,0.078745,0.037782,-0.388159,-0.404918,-0.827873,0.008520,-0.017095,0.016045,-24.635605,-11.483437,2.501732,,,,,,,
1512177492.324510,-0.437531,0.416024,-3.126259,-0.040676,0.046638,0.039217,-0.387563,-0.404127,-0.828538,0.002981,-0.002962,0.004228,-24.259293,-11.182869,2.423683,,,,,,,
1512177492.344530,-0.436727,0.415311,-3.125952,-0.005151,0.053141,0.018432,-0.387019,-0.403475,-0.829111,-0.014898,0.012514,-0.009818,-24.409958,-11.333092,2.424889,,,,,,,
1512177492.364519,-0.435610,0.415978,-3.125324,0.058903,0.074613,0.014105,-0.385979,-0.404085,-0.829298,0.000207,0.005541,0.002546,-24.409729,-11.258095,2.199928,,,,,,,
1512177492.384538,-0.434622,0.416708,-3.124264,0.043531,0.072396,0.040524,-0.385035,-0.404752,-0.829412,0.002192,-0.004321,0.018529,-24.260040,-11.332863,2.273613,,,,,,,
1512177492.404527,-0.433504,0.417142,-3.123048,0.043577,0.087355,0.038444,-0.384034,-0.405149,-0.829682,-0.007965,-0.000505,0.011597,-24.561081,-11.558327,2.201057,,,,,,,
1512177492.424516,-0.432122,0.417539,-3.121945,0.036150,0.094828,0.037299,-0.382820,-0.405512,-0.830066,-0.001092,-0.008657,0.009662,-24.484695,-11.258202,2.275566,,,,,,,
1512177492.444536,-0.430795,0.417541,-3.121102,0.006415,0.080910,0.029357,-0.381718,-0.405514,-0.830572,0.007114,-0.005482,0.007391,-24.183380,-10.957756,2.198143,,,,,,,
1512177492.464525,-0.429558,0.417142,-3.120563,-0.013913,0.070189,0.033289,-0.380757,-0.405149,-0.831191,0.002583,0.003935,0.001876,-24.334091,-11.107979,2.124352,,,,,,,
1512177492.484545,-0.428418,0.416978,-3.119990,0.016187,0.071337,0.018807,-0.379837,-0.404999,-0.831685,-0.008240,0.008667,-0.003383,-24.259094,-11.107872,2.123726,,,,,,,
1512177492.504534,-0.427099,0.417597,-3.119378,0.050319,0.087412,0.018290,-0.378636,-0.405566,-0.831956,-0.005489,0.005801,0.009370,-24.335190,-11.332985,1.974251,,,,,,,
1512177492.524553,-0.425926,0.418197,-3.118202,0.038204,0.078803,0.041539,-0.377559,-0.406113,-0.832178,-0.001729,-0.001708,0.012095,-24.410110,-11.333092,2.124886,,,,,,,
1512177492.544542,-0.424751,0.418506,-3.117194,0.031965,0.083082,0.031867,-0.376529,-0.406396,-0.832507,-0.005887,-0.003135,0.009936,-24.334061,-11.107979,2.199348,,,,,,,
1512177492.564531,-0.423404,0.418578,-3.116260,0.008308,0.086225,0.044328,-0.375395,-0.406461,-0.832987,0.007399,-0.013064,0.008921,-24.408722,-11.033089,2.200020,,,,,,,
1512177492.584551,-0.422471,0.417558,-3.115317,-0.047524,0.052982,0.066857,-0.374788,-0.405530,-0.833714,0.009752,-0.009342,0.006780,-24.559204,-11.108315,1.901268,,,,,,,
1512177492.604540,-0.422087,0.416382,-3.114603,-0.029025,0.026351,0.042512,-0.374663,-0.404454,-0.834293,-0.000429,0.004979,-0.004956,-24.034103,-11.107521,2.121803,,,,,,,
1512177492.624559,-0.422033,0.415969,-3.113930,-0.001291,0.012510,0.040733,-0.374686,-0.404077,-0.834465,0.001914,0.007760,0.002327,-24.258835,-11.032860,1.973747,,,,,,,
1512177492.644548,-0.422212,0.415715,-3.113129,0.006328,0.003998,0.031221,-0.374878,-0.403844,-0.834492,-0.003510,0.002386,0.003468,-24.485077,-11.333199,2.200523,,,,,,,
1512177492.664568,-0.422228,0.415746,-3.112901,0.000449,0.005121,0.000225,-0.374886,-0.403872,-0.834475,-0.006965,0.004367,0.006563,-24.258987,-11.107872,2.348717,,,,,,,
1512177492.684557,-0.422031,0.415850,-3.112765,0.012061,0.013665,0.006817,-0.374704,-0.403967,-0.834510,-0.003256,-0.004572,0.008110,-24.259476,-11.182869,2.048683,,,,,,,
1512177492.704546,-0.421899,0.415886,-3.112454,0.004467,0.013640,0.015237,-0.374588,-0.404001,-0.834546,0.000992,-0.001853,0.009198,-24.709106,-11.108543,2.127541,,,,,,,
1512177492.724565,-0.421697,0.415737,-3.111904,0.004204,0.025361,0.032333,-0.374444,-0.403865,-0.834677,0.004708,-0.007604,0.012060,-24.935532,-11.408882,1.979317,,,,,,,
1512177492.744554,-0.421477,0.415226,-3.111274,-0.017134,0.024257,0.033085,-0.374345,-0.403396,-0.834947,-0.001143,0.004623,0.005190,-24.486725,-11.708199,2.275352,,,,,,,
1512177492.764574,-0.420913,0.415029,-3.110945,0.006669,0.038218,0.012156,-0.373906,-0.403216,-0.835231,-0.001094,0.002002,0.005977,-24.410080,-11.333092,2.199883,,,,,,,
1512177492.784563,-0.420419,0.414849,-3.110584,-0.015935,0.028543,0.024586,-0.373523,-0.403052,-0.835482,0.008472,-0.002069,0.009295,-24.331955,-10.657967,2.349571,,,,,,,
1512177492.804582,-0.420111,0.414122,-3.110244,-0.030911,0.016768,0.027528,-0.373385,-0.402387,-0.835864,0.001574,-0.006625,0.005420,-24.258163,-10.882866,1.973824,,,,,,,
1512177492.824565,-0.419914,0.413448,-3.110097,-0.025400,0.011454,0.015861,-0.373331,-0.401769,-0.836185,-0.012793,0.006429,0.000675,-24.184097,-11.107750,2.123085,,,,,,,
1512177492.844585,-0.419329,0.413490,-3.110104,0.024117,0.040423,-0.012106,-0.372835,-0.401808,-0.836388,-0.016493,0.010359,0.003014,-24.483536,-10.958199,1.900703,,,,,,,
1512177492.864574,-0.418349,0.414368,-3.110304,0.032935,0.043679,-0.029022,-0.371872,-0.402612,-0.836430,0.002411,-0.000068,0.011158,-24.257141,-10.657860,1.973930,,,,,,,
1512177492.884563,-0.417479,0.414728,-3.110417,0.002669,0.039311,-0.003890,-0.371085,-0.402941,-0.836621,0.000174,-0.001691,0.010586,-24.258194,-10.882866,1.898827,,,,,,,
1512177492.904582,-0.416662,0.414877,-3.110607,0.006061,0.039340,-0.015567,-0.370377,-0.403077,-0.836869,-0.000136,-0.000304,0.001587,-24.406357,-10.508080,2.200264,,,,,,,
1512177492.924572,-0.415889,0.414981,-3.110739,0.005821,0.033967,-0.001732,-0.369713,-0.403172,-0.837117,0.000359,-0.000957,0.004780,-24.559204,-11.108315,1.901268,,,,,,,
1512177492.944591,-0.415469,0.415182,-3.110511,0.019603,0.023301,0.002696,-0.369329,-0.403357,-0.837197,-0.000956,0.000693,0.002404,-24.485229,-11.333199,1.900536,,,,,,,
1512177492.964580,-0.414914,0.415711,-3.110376,0.031504,0.041492,-0.007732,-0.368778,-0.403841,-0.837207,-0.008908,0.003847,0.008151,-24.110565,-11.407646,1.897316,,,,,,,
1512177492.984600,-0.413941,0.416360,-3.110231,0.025165,0.054311,-0.009908,-0.367858,-0.404434,-0.837325,-0.001817,-0.002395,0.010085,-24.258194,-10.882866,1.898827,,,,,,,
1512177493.004589,-0.412623,0.416745,-3.110632,0.012742,0.066081,-0.032438,-0.366691,-0.404786,-0.837667,-0.006066,0.003831,0.005270,-24.182678,-10.732750,1.598259,,,,,,,
1512177493.024578,-0.411019,0.417551,-3.110933,0.041457,0.081076,-0.026635,-0.365217,-0.405523,-0.837955,-0.003619,0.001150,0.004398,-24.482529,-10.733208,1.900810,,,,,,,
1512177493.044597,-0.409418,0.418508,-3.110927,0.048674,0.083194,-0.011598,-0.363720,-0.406398,-0.838182,0.006466,-0.003835,0.012117,-24.783539,-10.958656,1.903252,,,,,,,
1512177493.064586,-0.408229,0.419244,-3.110479,0.035548,0.057500,0.007311,-0.362605,-0.407070,-0.838339,0.003306,0.002712,0.002996,-24.410294,-11.333092,1.749886,,,,,,,
1512177493.084606,-0.407146,0.420057,-3.110101,0.053831,0.065023,-0.001992,-0.361565,-0.407813,-0.838427,-0.004295,0.002234,0.001757,-24.861618,-11.633766,1.828575,,,,,,,
1512177493.104595,-0.405969,0.420947,-3.109461,0.041827,0.073515,0.014919,-0.360435,-0.408625,-0.838518,0.006339,-0.014059,0.013948,-24.709396,-11.108543,1.527550,,,,,,,
1512177493.124614,-0.405047,0.420625,-3.108941,-0.036275,0.054135,0.030776,-0.359713,-0.408331,-0.838971,0.005328,-0.008005,0.016598,-24.033539,-10.957527,1.896873,,,,,,,
1512177493.144603,-0.403925,0.419731,-3.108898,-0.026317,0.055267,0.009607,-0.358915,-0.407515,-0.839709,-0.011462,0.003417,-0.004819,-24.784470,-11.108650,1.378181,,,,,,,
1512177493.164592,-0.402763,0.419773,-3.108940,0.011178,0.056414,-0.001573,-0.357933,-0.407553,-0.840110,0.004036,0.008093,0.001930,-24.710114,-11.258537,1.452477,,,,,,,
1512177493.184612,-0.401821,0.420095,-3.108572,0.037745,0.059644,0.003084,-0.357090,-0.407847,-0.840326,-0.007992,0.009608,-0.000220,-24.709442,-11.108543,1.452538,,,,,,,
1512177493.204601,-0.400600,0.421816,-3.108259,0.100068,0.067278,-0.025834,-0.355789,-0.409418,-0.840114,0.001647,0.001658,0.001918,-24.633682,-10.958427,1.601982,,,,,,,
1512177493.224620,-0.399650,0.423407,-3.107568,0.070585,0.060735,0.015289,-0.354737,-0.410869,-0.839850,0.004777,-0.007420,0.015097,-24.408539,-10.883095,1.225105,,,,,,,
1512177493.244609,-0.398878,0.424256,-3.106795,0.050573,0.053263,0.001118,-0.353952,-0.411643,-0.839802,-0.004843,0.004843,0.003483,-24.483124,-10.808205,1.375771,,,,,,,
1512177493.264629,-0.397781,0.425305,-3.106576,0.053904,0.063966,-0.006258,-0.352864,-0.412599,-0.839791,-0.001171,-0.008849,0.011559,-24.859482,-11.108772,1.378822,,,,,,,
1512177493.284618,-0.396449,0.425917,-3.106154,0.029277,0.087410,0.000927,-0.351647,-0.413156,-0.840028,-0.014274,0.002206,0.006760,-24.708755,-10.958549,1.452614,,,,,,,
1512177493.304607,-0.393780,0.427243,-3.106368,0.085710,0.163453,-0.055557,-0.349194,-0.414364,-0.840456,-0.035679,0.004863,0.003481,-24.711502,-11.558556,1.377342,,,,,,,
1512177493.324626,-0.389249,0.430196,-3.106841,0.148222,0.259755,-0.092696,-0.344916,-0.417049,-0.840894,-0.053201,0.015087,0.009321,-24.407455,-10.658089,1.375206,,,,,,,
1512177493.344615,-0.380749,0.435024,-3.107909,0.246585,0.511074,-0.161820,-0.337004,-0.421432,-0.841916,-0.084093,0.007934,0.030423,-24.634430,-11.033424,0.776939,,,,,,,
1512177493.364635,-0.367234,0.440995,-3.108979,0.236697,0.723576,-0.133506,-0.324686,-0.426840,-0.844030,-0.044638,-0.026514,0.075918,-24.709885,-11.108543,0.552559,,,,,,,
1512177493.384624,-0.350574,0.444377,-3.110273,0.098353,0.886813,-0.140273,-0.310082,-0.429895,-0.847962,-0.075767,-0.014380,0.060364,-24.261230,-11.332878,-0.126381,,,,,,,
1512177493.404644,-0.328204,0.448435,-3.114341,0.170708,1.126543,-0.314290,-0.290472,-0.433556,-0.853027,-0.092279,-0.010658,0.038192,-24.488419,-11.783211,-0.424675,,,,,,,
1512177493.424633,-0.302022,0.454085,-3.120445,0.163947,1.198177,-0.353584,-0.267308,-0.438640,-0.857986,-0.018306,-0.016697,0.035172,-24.339844,-12.007988,-1.251045,,,,,,,
1512177493.444622,-0.275654,0.459476,-3.125333,0.295063,1.272887,-0.220300,-0.243948,-0.443478,-0.862448,0.038519,-0.056705,0.043036,-24.264725,-11.857872,-2.376610,,,,,,,
1512177493.464641,-0.252895,0.468220,-3.127963,0.401017,0.931304,-0.262598,-0.223279,-0.451298,-0.863989,0.053372,0.055165,-0.066508,-24.266937,-12.307884,-2.751823,,,,,,,
1512177493.484630,-0.235304,0.477364,-3.131335,0.408985,0.766764,-0.236402,-0.207076,-0.459439,-0.863733,0.072478,0.012479,-0.030950,-24.042725,-12.457542,-2.978798,,,,,,,
1512177493.504650,-0.220746,0.485976,-3.133663,0.387614,0.604248,-0.176512,-0.193606,-0.467071,-0.862763,0.084201,0.024811,-0.052947,-23.895309,-12.982323,-3.430305,,,,,,,
1512177493.524639,-0.210164,0.494268,-3.134706,0.410879,0.449264,-0.107417,-0.183652,-0.474387,-0.860947,0.065320,0.029898,-0.044693,-24.041855,-12.232536,-3.278694,,,,,,,
1512177493.544658,-0.202752,0.503295,-3.134033,0.461859,0.346651,-0.036678,-0.176396,-0.482314,-0.858054,0.070027,0.007980,-0.016015,-23.670273,-12.906990,-4.032188,,,,,,,
1512177493.564647,-0.198773,0.512291,-3.131657,0.450949,0.203352,0.036224,-0.172116,-0.490175,-0.854461,0.045514,0.003542,0.012206,-23.669861,-12.831978,-3.882149,,,,,,,
1512177493.584636,-0.196437,0.519891,-3.128866,0.359961,0.178599,0.057205,-0.169388,-0.496786,-0.851182,0.031830,-0.015772,0.025529,-24.272003,-13.282890,-4.102257,,,,,,,
1512177493.604656,-0.195057,0.524789,-3.125627,0.221605,0.120611,0.105104,-0.167740,-0.501031,-0.849018,0.005097,-0.009346,0.021503,-23.895279,-12.907326,-4.030281,,,,,,,
1512177493.624645,-0.193947,0.528086,-3.123328,0.185491,0.113223,0.032063,-0.166478,-0.503881,-0.847578,-0.029094,-0.004527,0.005171,-23.819641,-12.757210,-4.105843,,,,,,,
1512177493.644664,-0.191658,0.531780,-3.122435,0.185975,0.130369,0.003345,-0.164182,-0.507068,-0.846124,-0.024554,0.009159,0.002862,-23.670349,-12.906990,-4.182198,,,,,,,
1512177493.664653,-0.189603,0.535028,-3.121213,0.151232,0.130246,0.042289,-0.162131,-0.509865,-0.844838,0.009086,-0.007072,0.011372,-23.745316,-12.907097,-4.106544,,,,,,,
1512177493.684673,-0.189128,0.536813,-3.118909,0.077773,0.039229,0.096342,-0.161558,-0.511400,-0.844019,0.023711,0.011079,0.004496,-23.669296,-12.681984,-4.107079,,,,,,,
1512177493.704662,-0.191349,0.538052,-3.116428,0.086295,-0.087862,0.090694,-0.163312,-0.512464,-0.843036,0.026563,0.010221,-0.004269,-23.746246,-13.132103,-3.956657,,,,,,,
1512177493.724651,-0.195568,0.539044,-3.113197,0.065109,-0.130732,0.144605,-0.166769,-0.513315,-0.841840,-0.004191,0.003214,0.000074,-23.973083,-13.507439,-4.254921,,,,,,,
1512177493.744670,-0.198601,0.539661,-3.110457,0.038469,-0.058015,0.082639,-0.169258,-0.513845,-0.841020,-0.019539,-0.008234,0.002351,-24.046204,-13.132545,-3.879097,,,,,,,
1512177493.764659,-0.200263,0.539758,-3.109242,0.006106,-0.055843,0.041670,-0.170647,-0.513928,-0.840689,-0.005211,-0.012820,0.016836,-24.194489,-12.757774,-3.802666,,,,,,,
1512177493.784679,-0.202371,0.539426,-3.108227,-0.010168,-0.103968,0.056190,-0.172453,-0.513644,-0.840494,0.022993,0.000597,0.011240,-24.193207,-12.457771,-3.952507,,,,,,,
1512177493.804668,-0.205958,0.538996,-3.106343,0.003863,-0.152115,0.108465,-0.175511,-0.513275,-0.840086,0.029134,0.013443,0.000914,-24.044296,-12.682549,-4.103889,,,,,,,
1512177493.824668,-0.210922,0.539095,-3.102933,0.048857,-0.159626,0.159194,-0.179669,-0.513360,-0.839155,0.017727,0.007653,-0.002474,-24.268143,-12.457878,-3.801888,,,,,,,
1512177493.844657,-0.216060,0.539380,-3.098956,0.044520,-0.144687,0.164514,-0.183946,-0.513604,-0.838078,-0.002272,-0.006782,0.006031,-24.268555,-12.532890,-3.951912,,,,,,,
1512177493.864646,-0.220218,0.538966,-3.095341,-0.015948,-0.102018,0.148863,-0.187476,-0.513249,-0.837513,-0.015543,-0.021099,0.020771,-24.268066,-12.457878,-3.651878,,,,,,,
1512177493.884666,-0.223262,0.537277,-3.092970,-0.077083,-0.098826,0.106411,-0.190216,-0.511799,-0.837783,-0.006409,-0.013012,0.017012,-24.418060,-12.458107,-3.650612,,,,,,,
1512177493.904655,-0.226362,0.535318,-3.091139,-0.077018,-0.116972,0.102086,-0.193037,-0.510114,-0.838164,0.006056,0.000456,0.008559,-24.492874,-12.458214,-3.274971,,,,,,,
1512177493.924675,-0.229258,0.533481,-3.089382,-0.061665,-0.063498,0.077972,-0.195676,-0.508533,-0.838513,-0.030490,0.013492,0.004407,-24.492569,-12.383217,-3.349937,,,,,,,
1512177493.944664,-0.229940,0.532454,-3.088523,-0.040675,0.007117,0.036946,-0.196367,-0.507649,-0.838887,-0.011900,-0.011561,0.014043,-24.792953,-12.458672,-3.422417,,,,,,,
1512177493.964683,-0.230025,0.531416,-3.087975,-0.056663,0.003889,0.036704,-0.196558,-0.506754,-0.839383,0.006739,-0.010259,0.019468,-24.716858,-12.233559,-3.272957,,,,,,,
1512177493.984672,-0.230896,0.530241,-3.087492,-0.041665,-0.054826,0.029253,-0.197425,-0.505741,-0.839791,0.013954,0.000981,0.002938,-24.790482,-11.933662,-3.197166,,,,,,,
1512177494.004661,-0.232915,0.529605,-3.086663,-0.014418,-0.083680,0.056199,-0.199195,-0.505192,-0.839703,0.008491,0.010213,-0.002841,-24.415588,-11.933113,-3.425362,,,,,,,
1512177494.024681,-0.234986,0.529333,-3.085031,0.009888,-0.043077,0.071619,-0.200965,-0.504958,-0.839422,-0.013375,0.004348,-0.003031,-24.565918,-12.008324,-3.424126,,,,,,,
1512177494.044670,-0.236207,0.529262,-3.083840,-0.000237,-0.025942,0.039548,-0.201999,-0.504896,-0.839212,-0.017407,-0.005770,0.009576,-24.641830,-12.233437,-3.198586,,,,,,,
1512177494.064689,-0.236708,0.529113,-3.083353,-0.006218,-0.017355,0.014973,-0.202437,-0.504768,-0.839183,-0.012071,-0.007591,0.007671,-24.491898,-12.233223,-3.349861,,,,,,,
1512177494.084678,-0.237036,0.528942,-3.083406,-0.010206,-0.024805,-0.002168,-0.202732,-0.504620,-0.839201,0.002171,0.004483,0.004530,-24.565369,-11.933327,-2.974083,,,,,,,
1512177494.104698,-0.238100,0.528651,-3.083066,-0.006575,-0.061186,0.035073,-0.203660,-0.504369,-0.839127,0.019715,0.004750,0.001054,-24.640778,-12.008430,-3.123482,,,,,,,
1512177494.124687,-0.240224,0.528737,-3.082032,0.025243,-0.080391,0.042925,-0.205431,-0.504443,-0.838651,0.007372,0.005053,-0.000369,-24.639694,-11.783440,-2.973381,,,,,,,
1512177494.144676,-0.242571,0.528908,-3.080603,0.016355,-0.077241,0.065195,-0.207378,-0.504591,-0.838083,-0.005696,-0.002153,0.008798,-24.715363,-11.933556,-2.972816,,,,,,,
1512177494.164695,-0.244146,0.528922,-3.079492,0.007378,-0.039794,0.030018,-0.208696,-0.504603,-0.837748,-0.013899,0.000773,0.009043,-24.715332,-11.933556,-2.897820,,,,,,,
1512177494.184684,-0.244793,0.528838,-3.079168,-0.007337,-0.022702,0.018137,-0.209249,-0.504531,-0.837654,-0.001277,-0.009080,0.017173,-24.941147,-12.083885,-3.195961,,,,,,,
1512177494.204704,-0.245520,0.528298,-3.078929,-0.029672,-0.029139,0.014593,-0.209923,-0.504064,-0.837766,0.005837,-0.003901,0.010572,-24.789612,-11.783653,-2.822105,,,,,,,
1512177494.224693,-0.246271,0.527500,-3.078607,-0.030991,-0.025964,0.030578,-0.210650,-0.503374,-0.837998,-0.000180,0.000048,0.005585,-24.939606,-11.783882,-2.820839,,,,,,,
1512177494.244712,-0.246997,0.527230,-3.078037,0.005435,-0.012008,0.019423,-0.211292,-0.503141,-0.837977,-0.007199,0.006910,-0.003805,-24.715958,-12.083549,-2.822884,,,,,,,
1512177494.264701,-0.247391,0.527496,-3.077449,0.016966,-0.006667,0.032405,-0.211590,-0.503371,-0.837763,0.006710,-0.007539,0.014201,-24.790283,-11.933662,-2.822182,,,,,,,
1512177494.284690,-0.248064,0.527472,-3.076585,0.004270,-0.010951,0.025808,-0.212156,-0.503351,-0.837632,-0.006502,-0.002417,0.006318,-24.640656,-12.008430,-2.898491,,,,,,,
1512177494.304710,-0.248146,0.527661,-3.076495,0.010143,0.008350,-0.006021,-0.212201,-0.503514,-0.837523,-0.015262,-0.004710,0.008742,-24.562546,-11.333321,-2.748817,,,,,,,
1512177494.324699,-0.247690,0.527715,-3.076595,-0.007977,0.028617,-0.005146,-0.211813,-0.503560,-0.837593,-0.007914,-0.003215,0.013069,-24.713638,-11.558556,-2.897636,,,,,,,
1512177494.344719,-0.246739,0.527245,-3.077046,-0.033420,0.038203,-0.014013,-0.211074,-0.503154,-0.838024,-0.002045,-0.002385,0.011180,-24.414124,-11.708092,-2.525261,,,,,,,
1512177494.364708,-0.245908,0.526892,-3.077443,-0.015353,0.026479,-0.010591,-0.210421,-0.502850,-0.838371,0.004045,0.000027,0.001167,-24.713821,-11.633553,-2.597679,,,,,,,
1512177494.384727,-0.245829,0.526629,-3.077325,-0.007286,-0.000266,0.016084,-0.210387,-0.502622,-0.838516,0.006453,0.006635,0.000869,-24.713867,-11.633553,-2.672691,,,,,,,
1512177494.404716,-0.246021,0.526931,-3.077038,0.027061,-0.000188,0.001656,-0.210511,-0.502883,-0.838328,-0.002669,0.001525,-0.000692,-24.715027,-11.858559,-2.972771,,,,,,,
1512177494.424705,-0.245797,0.527350,-3.076976,0.012244,0.024375,-0.002734,-0.210272,-0.503245,-0.838171,-0.002634,-0.002782,0.013280,-24.713943,-11.633553,-2.822685,,,,,,,
1512177494.444725,-0.245674,0.527086,-3.076925,-0.028465,-0.008825,0.007219,-0.210200,-0.503017,-0.838325,0.014842,-0.007145,0.014427,-24.563492,-11.558327,-2.598915,,,,,,,
1512177494.464714,-0.246219,0.526150,-3.077005,-0.046645,-0.036633,0.008990,-0.210772,-0.502208,-0.838667,0.003710,0.007945,-0.001711,-24.489349,-11.708214,-2.974617,,,,,,,
1512177494.484733,-0.247316,0.525655,-3.076553,-0.005589,-0.049446,0.040458,-0.211753,-0.501780,-0.838676,0.006477,0.003382,-0.006798,-24.714615,-11.783546,-2.822746,,,,,,,
1512177494.504722,-0.249074,0.525453,-3.075388,0.004827,-0.063345,0.054419,-0.213252,-0.501605,-0.838401,0.009090,0.003177,0.000022,-24.865021,-11.858772,-2.971504,,,,,,,
1512177494.524742,-0.251274,0.525591,-3.074091,0.026103,-0.088954,0.055703,-0.215079,-0.501724,-0.837863,0.001517,-0.006973,0.008807,-24.714081,-11.708549,-2.447716,,,,,,,
1512177494.544731,-0.253637,0.525381,-3.072760,-0.017740,-0.083700,0.063613,-0.217085,-0.501543,-0.837454,0.008466,-0.008650,0.019934,-24.938446,-11.558891,-2.520729,,,,,,,
1512177494.564720,-0.256294,0.523709,-3.071280,-0.089614,-0.107358,0.090209,-0.219521,-0.500096,-0.837684,0.010674,-0.012051,0.019172,-24.562027,-11.258324,-2.373787,,,,,,,
1512177494.584739,-0.259020,0.521269,-3.070297,-0.110521,-0.118024,0.064282,-0.222116,-0.497981,-0.838260,0.006173,0.002711,0.005054,-24.937805,-11.408882,-2.595665,,,,,,,
1512177494.604728,-0.261808,0.519018,-3.069392,-0.092539,-0.114808,0.073083,-0.224742,-0.496027,-0.838718,-0.009664,0.005640,0.001087,-25.162369,-11.334221,-2.368721,,,,,,,
1512177494.624748,-0.263932,0.517358,-3.068524,-0.058985,-0.069833,0.044943,-0.226737,-0.494586,-0.839032,-0.020272,0.008105,-0.003909,-24.712402,-11.333549,-2.447533,,,,,,,
1512177494.644737,-0.264896,0.516593,-3.068321,-0.024291,-0.030193,0.011469,-0.227645,-0.493920,-0.839178,-0.017426,-0.000907,0.013052,-24.936981,-11.258873,-2.295601,,,,,,,
1512177494.664756,-0.265549,0.516091,-3.068061,-0.027779,-0.034508,0.028459,-0.228257,-0.493484,-0.839269,0.010423,-0.007431,0.017461,-25.009735,-10.734001,-2.519722,,,,,,,
1512177494.684745,-0.266658,0.515027,-3.067390,-0.042970,-0.039904,0.044210,-0.229326,-0.492558,-0.839521,-0.000563,0.002156,0.008772,-24.938370,-11.558891,-2.370735,,,,,,,
1512177494.704734,-0.267670,0.514487,-3.066932,-0.009458,-0.035520,0.016997,-0.230247,-0.492088,-0.839545,-0.003167,0.000969,0.000952,-24.862930,-11.483772,-2.146339,,,,,,,
1512177494.724754,-0.268514,0.514095,-3.066370,-0.019447,-0.021698,0.041419,-0.231006,-0.491747,-0.839536,0.004001,-0.008192,0.011991,-24.862656,-11.408775,-2.296303,,,,,,,
1512177494.744743,-0.269721,0.513264,-3.065140,-0.032679,-0.039932,0.066747,-0.232128,-0.491023,-0.839651,0.010631,0.001857,0.002462,-25.085495,-10.959099,-1.994179,,,,,,,
1512177494.764762,-0.271573,0.512488,-3.064002,-0.013357,-0.077267,0.057304,-0.233784,-0.490347,-0.839586,0.001881,0.007285,-0.003111,-25.161346,-11.109215,-2.368614,,,,,,,
1512177494.784751,-0.273821,0.512336,-3.062700,0.011174,-0.079363,0.056587,-0.235692,-0.490215,-0.839130,0.002095,0.004467,-0.004330,-25.085861,-11.034111,-2.069221,,,,,,,
1512177494.804737,-0.276120,0.512120,-3.061459,0.003762,-0.088980,0.053249,-0.237649,-0.490027,-0.838687,0.003259,0.002081,-0.000165,-25.160446,-10.959221,-1.918541,,,,,,,
1512177494.824726,-0.278182,0.512392,-3.060619,0.033062,-0.081401,0.021715,-0.239341,-0.490264,-0.838067,-0.009651,0.001082,-0.002478,-24.936203,-11.108879,-2.070518,,,,,,,
1512177494.844715,-0.280076,0.512893,-3.059980,0.024382,-0.080363,0.031189,-0.240860,-0.490700,-0.837377,0.005279,-0.003883,0.012868,-25.161469,-11.184227,-1.918648,,,,,,,
1512177494.864735,-0.282499,0.512713,-3.058783,-0.000564,-0.100744,0.056343,-0.242913,-0.490543,-0.836875,0.007104,0.002552,0.010429,-24.935043,-10.883873,-1.770424,,,,,,,
1512177494.884724,-0.285326,0.512464,-3.057633,0.004851,-0.111404,0.051056,-0.245312,-0.490327,-0.836302,0.003719,-0.001312,0.005614,-25.159775,-10.809227,-1.918480,,,,,,,
1512177494.904743,-0.288233,0.512027,-3.056238,-0.016868,-0.113627,0.074183,-0.247803,-0.489946,-0.835791,0.011795,-0.009993,0.007376,-25.161469,-11.184227,-1.918648,,,,,,,
1512177494.924732,-0.291400,0.510881,-3.054811,-0.040278,-0.131816,0.070582,-0.250610,-0.488946,-0.835540,-0.001862,0.010247,-0.001146,-25.085556,-11.034111,-1.469215,,,,,,,
1512177494.944752,-0.294427,0.510440,-3.053629,0.010099,-0.116749,0.055376,-0.253201,-0.488561,-0.834983,-0.002003,-0.001124,0.002372,-25.383499,-10.584557,-1.391457,,,,,,,
1512177494.964741,-0.297347,0.509828,-3.052112,-0.035247,-0.109414,0.089922,-0.255725,-0.488027,-0.834526,0.010455,-0.008540,0.021553,-25.009888,-10.883995,-1.469780,,,,,,,
1512177494.984730,-0.300639,0.507575,-3.050187,-0.111569,-0.128833,0.127126,-0.258796,-0.486059,-0.834728,0.020057,-0.015879,0.025753,-25.233841,-10.659325,-1.392769,,,,,,,
1512177495.004749,-0.304452,0.503873,-3.048165,-0.168303,-0.147100,0.141169,-0.262515,-0.482821,-0.835446,0.001513,-0.002760,0.014447,-25.233429,-10.584328,-1.242729,,,,,,,
1512177495.024738,-0.307560,0.500084,-3.046685,-0.148447,-0.096789,0.103254,-0.265662,-0.479499,-0.836364,-0.026071,0.009070,0.000533,-25.383728,-10.659554,-1.166496,,,,,,,
1512177495.044758,-0.308888,0.497835,-3.046146,-0.076802,-0.023895,0.028855,-0.267099,-0.477524,-0.837035,-0.043417,0.014145,0.001891,-25.383957,-10.734550,-0.941536,,,,,,,
1512177495.064747,-0.308490,0.496908,-3.046428,-0.042104,0.023223,-0.004594,-0.266901,-0.476709,-0.837563,-0.018194,-0.009130,0.014718,-25.158722,-10.659218,-1.168404,,,,,,,
1512177495.084766,-0.307985,0.495667,-3.046805,-0.090357,0.003891,0.011698,-0.266657,-0.475619,-0.838260,0.015177,-0.008481,0.016681,-25.381287,-10.134544,-1.016258,,,,,,,
1512177495.104755,-0.308301,0.493412,-3.046988,-0.108809,-0.034631,0.029418,-0.267246,-0.473634,-0.839196,0.009037,0.003495,-0.004630,-25.308609,-10.659447,-0.942131,,,,,,,
1512177495.124744,-0.309244,0.491899,-3.047019,-0.044591,-0.045177,0.014325,-0.268256,-0.472301,-0.839625,-0.002252,0.011211,-0.013646,-25.307297,-10.359444,-1.017006,,,,,,,
1512177495.144764,-0.310194,0.491617,-3.046772,0.006599,-0.036556,0.012961,-0.269093,-0.472052,-0.839497,-0.006648,0.006781,-0.006313,-25.308090,-10.509438,-1.242058,,,,,,,
1512177495.164753,-0.311058,0.492001,-3.046449,0.017337,-0.036533,0.007785,-0.269764,-0.472390,-0.839092,0.002277,-0.000495,0.012157,-25.608093,-10.509895,-1.239510,,,,,,,
1512177495.184772,-0.311911,0.491753,-3.046222,-0.020192,-0.043022,0.021079,-0.270514,-0.472172,-0.838973,0.003684,-0.007060,0.016676,-25.458389,-10.584663,-1.165825,,,,,,,
1512177495.204761,-0.312997,0.490868,-3.045888,-0.046994,-0.049495,0.029194,-0.271554,-0.471392,-0.839076,0.005334,-0.002943,0.008509,-25.307556,-10.434441,-0.867043,,,,,,,
1512177495.224781,-0.314143,0.489590,-3.045473,-0.054674,-0.047393,0.042951,-0.272701,-0.470264,-0.839336,-0.002994,-0.002117,0.006923,-25.157486,-10.434212,-0.718315,,,,,,,
1512177495.244770,-0.315136,0.488737,-3.045025,-0.021254,-0.031276,0.021103,-0.273659,-0.469511,-0.839446,-0.010276,0.004454,0.003737,-25.231476,-10.209328,-0.717567,,,,,,,
1512177495.264759,-0.315585,0.488358,-3.044687,-0.018044,-0.008834,0.022298,-0.274092,-0.469176,-0.839492,-0.003618,-0.001267,0.010696,-25.007568,-10.433998,-0.869591,,,,,,,
1512177495.284779,-0.315822,0.487670,-3.044443,-0.039370,-0.004601,0.022000,-0.274390,-0.468569,-0.839734,0.003959,-0.008711,0.013974,-25.307632,-10.434441,-1.017036,,,,,,,
1512177495.304768,-0.316112,0.486396,-3.044327,-0.066093,-0.016399,0.025836,-0.274820,-0.467443,-0.840221,0.001367,-0.000773,0.004680,-25.007294,-10.358986,-1.019554,,,,,,,
1512177495.324787,-0.316633,0.485356,-3.044332,-0.034828,-0.025924,0.003867,-0.275409,-0.466523,-0.840539,-0.004254,0.004182,-0.003867,-25.232269,-10.359322,-0.942635,,,,,,,
1512177495.344776,-0.317094,0.484963,-3.044482,-0.018797,-0.022688,0.001980,-0.275853,-0.466175,-0.840586,0.001988,0.000645,0.000163,-25.156174,-10.134209,-0.793175,,,,,,,
1512177495.364796,-0.317578,0.484575,-3.044384,-0.021036,-0.024840,0.008337,-0.276316,-0.465833,-0.840624,-0.002965,-0.011874,-0.011823,-25.082108,-10.359108,-0.643913,,,,,,,
1512177495.384785,-0.317820,0.484476,-3.045041,-0.009432,-0.026847,-0.049070,-0.276534,-0.465745,-0.840601,-0.007798,-0.027084,-0.016088,-25.307526,-10.434441,-0.792046,,,,,,,
1512177495.404774,-0.317308,0.484763,-3.046933,-0.019198,-0.009665,-0.102454,-0.276062,-0.465999,-0.840616,0.005508,-0.018040,-0.008780,-25.383133,-10.584557,-0.641472,,,,,,,
1512177495.424793,-0.315805,0.484733,-3.049290,-0.035493,0.043680,-0.081183,-0.274803,-0.465972,-0.841043,-0.025704,0.015837,-0.011709,-25.157532,-10.434212,-0.793312,,,,,,,
1512177495.444782,-0.314606,0.485122,-3.049493,0.061883,0.047888,0.025781,-0.273738,-0.466317,-0.841199,-0.053640,0.048760,0.022169,-25.231293,-10.134315,-1.017540,,,,,,,
1512177495.464802,-0.315763,0.487216,-3.047078,0.152395,-0.034355,0.092903,-0.274407,-0.468167,-0.839952,-0.041556,0.025357,0.072939,-25.157715,-10.434212,-1.168312,,,,,,,
1512177495.484791,-0.318271,0.489001,-3.043962,0.097945,-0.046197,0.097404,-0.276251,-0.469744,-0.838466,-0.034586,-0.010206,0.087810,-25.381699,-10.209557,-1.166283,,,,,,,
1512177495.504810,-0.318562,0.488700,-3.042948,-0.063592,0.042398,0.006890,-0.276539,-0.469479,-0.838520,0.035786,-0.058628,0.049930,-25.232712,-10.434334,-1.167671,,,,,,,
1512177495.524799,-0.316691,0.486395,-3.045251,-0.164181,0.024290,-0.101240,-0.275306,-0.467442,-0.840062,0.110633,-0.081997,0.019521,-25.235229,-10.884331,-2.142876,,,,,,,
1512177495.544788,-0.316462,0.484540,-3.048861,-0.104179,-0.128316,-0.126485,-0.275383,-0.465801,-0.840948,0.119392,-0.074772,-0.005503,-25.461121,-11.034676,-2.591026,,,,,,,
1512177495.564808,-0.320117,0.484774,-3.050630,0.029653,-0.259675,-0.038653,-0.278420,-0.466009,-0.839832,0.072426,-0.043131,-0.006146,-25.385345,-10.884560,-2.366600,,,,,,,
1512177495.584797,-0.326110,0.486553,-3.049353,0.131368,-0.268263,0.064069,-0.283182,-0.467582,-0.837362,0.006128,-0.017999,0.014638,-25.086166,-11.109108,-1.994255,,,,,,,
1512177495.604816,-0.332175,0.489306,-3.046245,0.179927,-0.209502,0.095892,-0.287835,-0.470013,-0.834409,-0.066169,-0.028842,0.023359,-25.385071,-10.884560,-1.841591,,,,,,,
1512177495.624805,-0.335803,0.491636,-3.043589,0.099415,-0.078186,0.071730,-0.290499,-0.472069,-0.832323,-0.079832,-0.037376,0.052660,-25.384995,-10.884560,-1.691597,,,,,,,
1512177495.644825,-0.336164,0.491407,-3.042533,-0.054597,0.030588,0.042157,-0.290835,-0.471867,-0.832320,-0.031110,-0.020717,0.059294,-25.158951,-10.659218,-1.618401,,,,,,,
1512177495.664814,-0.335242,0.489553,-3.043102,-0.106966,0.009260,-0.015175,-0.290355,-0.470232,-0.833412,0.015117,-0.014647,0.018761,-25.085068,-10.884102,-1.844139,,,,,,,
1512177495.684803,-0.335868,0.488449,-3.044231,-0.038626,-0.096365,-0.027346,-0.291047,-0.469257,-0.833720,0.018297,-0.027722,-0.015249,-25.085037,-10.884102,-1.769142,,,,,,,
1512177495.704822,-0.339301,0.489330,-3.043962,0.083329,-0.183840,0.007164,-0.293770,-0.470035,-0.832326,0.015053,-0.036450,-0.024058,-25.308990,-10.659447,-1.692131,,,,,,,
1512177495.724811,-0.343568,0.491623,-3.042663,0.126932,-0.160283,0.015343,-0.296955,-0.472057,-0.830048,0.021839,-0.046971,0.009751,-25.011536,-11.258995,-1.394966,,,,,,,
1512177495.744831,-0.346760,0.493386,-3.041493,0.073605,-0.112305,0.019000,-0.299320,-0.473611,-0.828312,0.025409,-0.046958,0.040424,-25.383957,-10.659554,-1.616493,,,,,,,
1512177495.764820,-0.348450,0.494005,-3.040983,0.015145,-0.053631,0.010893,-0.300619,-0.474156,-0.827529,0.007757,-0.048168,0.051757,-25.160339,-10.959221,-1.693535,,,,,,,
1512177495.784840,-0.348472,0.493650,-3.041051,-0.041158,0.032821,0.002915,-0.300694,-0.473843,-0.827681,-0.005870,-0.044071,0.039274,-25.609894,-10.884895,-1.464684,,,,,,,
1512177495.804829,-0.346546,0.492543,-3.041375,-0.067883,0.108608,0.011321,-0.299278,-0.472868,-0.828751,0.000129,-0.046693,0.017807,-25.386353,-11.184563,-1.691734,,,,,,,
1512177495.824809,-0.344173,0.491527,-3.041762,-0.051736,0.097974,0.001926,-0.297473,-0.471973,-0.829911,0.012377,-0.028027,0.007538,-25.235931,-11.109337,-1.542976,,,,,,,
1512177495.844828,-0.342862,0.491056,-3.041606,-0.013906,0.050965,0.032157,-0.296459,-0.471557,-0.830509,0.021053,-0.014771,0.010990,-25.386658,-11.259560,-1.616768,,,,,,,
1512177495.864817,-0.342929,0.490864,-3.040741,-0.001222,0.009321,0.037530,-0.296545,-0.471388,-0.830575,0.015295,-0.009325,0.010476,-25.311386,-11.184441,-1.767372,,,,,,,
1512177495.884837,-0.342996,0.490798,-3.040239,-0.001942,0.009359,0.016197,-0.296611,-0.471330,-0.830584,0.001430,-0.024535,0.013903,-25.160782,-11.034218,-1.918587,,,,,,,
1512177495.904826,-0.342942,0.490642,-3.040257,-0.021830,-0.003443,-0.006523,-0.296591,-0.471192,-0.830669,0.007284,-0.033935,0.012600,-25.162781,-11.484230,-1.843788,,,,,,,
1512177495.924845,-0.343123,0.490350,-3.040761,-0.017504,-0.037608,-0.011909,-0.296788,-0.470935,-0.830745,0.013554,-0.039319,0.014232,-25.461761,-11.259666,-1.841133,,,,,,,
1512177495.944834,-0.344060,0.490599,-3.041085,0.018873,-0.061042,-0.022129,-0.297527,-0.471154,-0.830356,0.010860,-0.026908,0.014530,-25.236053,-11.109337,-1.767982,,,,,,,
1512177495.964823,-0.344992,0.491267,-3.041245,0.022920,-0.040762,-0.007071,-0.298193,-0.471743,-0.829782,0.005896,-0.035154,0.032373,-25.387741,-11.484566,-1.766884,,,,,,,
1512177495.984843,-0.345496,0.491502,-3.041237,-0.006919,-0.014104,-0.006344,-0.298574,-0.471950,-0.829528,0.004751,-0.039112,0.036223,-25.236008,-11.109337,-1.692970,,,,,,,
1512177496.004832,-0.344959,0.490915,-3.041788,-0.061131,0.031762,-0.013365,-0.298222,-0.471433,-0.829948,0.000325,-0.039126,0.031715,-25.386429,-11.184563,-1.841728,,,,,,,
1512177496.024851,-0.343474,0.489836,-3.042915,-0.074584,0.056355,-0.036929,-0.297161,-0.470481,-0.830869,0.008479,-0.029305,0.019147,-25.088303,-11.634102,-1.544502,,,,,,,
1512177496.044840,-0.341888,0.488669,-3.043993,-0.070767,0.049898,-0.010245,-0.296026,-0.469451,-0.831856,0.017645,-0.022019,0.016411,-25.461395,-11.184669,-1.766106,,,,,,,
1512177496.064860,-0.341325,0.488016,-3.044149,-0.021017,0.012549,0.009536,-0.295661,-0.468874,-0.832311,0.024726,-0.022077,0.008230,-25.239197,-11.784340,-1.993294,,,,,,,
1512177496.084849,-0.341653,0.487954,-3.043932,0.001261,-0.018409,0.014012,-0.295943,-0.468820,-0.832241,0.013503,-0.022879,0.010647,-25.386719,-11.259560,-1.766777,,,,,,,
1512177496.104838,-0.342520,0.488216,-3.043407,0.019313,-0.032277,0.017423,-0.296623,-0.469051,-0.831869,0.009743,-0.025838,0.014593,-25.313263,-11.559456,-2.142555,,,,,,,
1512177496.124857,-0.343219,0.488557,-3.042976,0.019365,-0.023722,0.015324,-0.297151,-0.469352,-0.831511,-0.003783,-0.036797,0.024702,-25.314728,-11.934456,-1.692711,,,,,,,
1512177496.144846,-0.343437,0.488952,-3.042999,0.010313,-0.006580,-0.016729,-0.297270,-0.469701,-0.831271,0.008406,-0.049144,0.032916,-25.165131,-12.009224,-1.844032,,,,,,,
1512177496.164866,-0.343241,0.488763,-3.043540,-0.035583,-0.009859,-0.013140,-0.297137,-0.469534,-0.831413,0.012774,-0.050562,0.041405,-25.765137,-12.010124,-1.838936,,,,,,,
1512177496.184855,-0.343509,0.488242,-3.044231,-0.034392,-0.039753,-0.022824,-0.297442,-0.469074,-0.831564,0.023272,-0.048535,0.028082,-25.166077,-12.234230,-1.694130,,,,,,,
1512177496.204874,-0.344501,0.488028,-3.044601,-0.007057,-0.073936,-0.001225,-0.298301,-0.468885,-0.831363,0.022223,-0.052126,0.025424,-25.391083,-12.234566,-1.692223,,,,,,,
1512177496.224864,-0.346111,0.488438,-3.044482,0.021692,-0.071758,0.001332,-0.299573,-0.469247,-0.830700,0.011579,-0.065925,0.024060,-25.016006,-12.234001,-1.545418,,,,,,,
1512177496.244853,-0.347256,0.488898,-3.044494,0.007101,-0.047176,-0.017984,-0.300451,-0.469653,-0.830154,0.004187,-0.070691,0.037994,-25.391754,-12.384560,-1.692284,,,,,,,
1512177496.264872,-0.347351,0.489092,-3.045432,-0.026546,-0.021537,-0.045034,-0.300499,-0.469825,-0.830039,0.010002,-0.081765,0.043800,-25.164841,-11.934227,-1.918999,,,,,,,
1512177496.284861,-0.347359,0.488678,-3.046786,-0.053138,-0.038662,-0.049744,-0.300572,-0.469459,-0.830220,0.025166,-0.075036,0.044957,-25.167877,-12.609230,-1.919304,,,,,,,
1512177496.304881,-0.347939,0.488260,-3.048015,-0.039654,-0.072863,-0.028345,-0.301120,-0.469090,-0.830230,0.033099,-0.075634,0.040939,-25.166672,-12.384224,-1.544212,,,,,,,
1512177496.324870,-0.349864,0.488014,-3.048519,-0.015470,-0.124132,-0.010048,-0.302757,-0.468873,-0.829757,0.035591,-0.080718,0.032195,-25.240662,-12.159340,-1.543465,,,,,,,
1512177496.344889,-0.352674,0.488408,-3.048628,0.016518,-0.145446,-0.011792,-0.305024,-0.469221,-0.828729,0.028809,-0.085009,0.033212,-25.241257,-12.309334,-1.393532,,,,,,,
1512177496.364878,-0.355455,0.489428,-3.048849,0.044468,-0.143242,-0.026306,-0.307160,-0.470121,-0.827429,0.035081,-0.101489,0.049719,-25.166672,-12.384224,-1.544212,,,,,,,
1512177496.384867,-0.358440,0.490546,-3.048980,0.035698,-0.164647,-0.012649,-0.309445,-0.471107,-0.826016,0.042035,-0.113213,0.062008,-25.316971,-12.459450,-1.467964,,,,,,,
1512177496.404887,-0.361945,0.491469,-3.048792,0.036457,-0.178566,0.005437,-0.312183,-0.471922,-0.824519,0.046604,-0.129748,0.069041,-25.546143,-13.359795,-1.691460,,,,,,,
1512177496.424876,-0.365710,0.492326,-3.048430,0.038678,-0.178552,0.000140,-0.315141,-0.472677,-0.822960,0.039048,-0.139017,0.069496,-24.866867,-12.458778,-1.246788,,,,,,,
1512177496.444895,-0.368883,0.493388,-3.048357,0.035754,-0.145412,-0.014712,-0.317569,-0.473612,-0.821487,0.034122,-0.147863,0.071060,-24.791794,-12.458672,-1.097420,,,,,,,
1512177496.464884,-0.371147,0.494288,-3.048454,0.016477,-0.105932,-0.007391,-0.319273,-0.474405,-0.820369,0.046690,-0.164405,0.077632,-25.092758,-12.684120,-1.019981,,,,,,,
1512177496.484904,-0.373122,0.494703,-3.048483,-0.001764,-0.102770,-0.000182,-0.320821,-0.474770,-0.819553,0.055120,-0.164024,0.072788,-25.392090,-12.534569,-1.017372,,,,,,,
1512177496.504893,-0.375186,0.495312,-3.048573,0.019735,-0.112330,-0.011631,-0.322406,-0.475306,-0.818620,0.059894,-0.159338,0.071183,-24.867798,-12.683784,-1.096886,,,,,,,
1512177496.524882,-0.377294,0.496265,-3.048534,0.028109,-0.102723,-0.001882,-0.323964,-0.476145,-0.817517,0.061604,-0.160467,0.075924,-24.942429,-12.608894,-1.021233,,,,,,,
1512177496.544901,-0.379240,0.497075,-3.048115,0.026746,-0.081398,0.017362,-0.325412,-0.476857,-0.816526,0.062518,-0.166347,0.078077,-25.091110,-12.309120,-1.094810,,,,,,,
1512177496.564890,-0.380983,0.497648,-3.047337,0.020073,-0.066491,0.034372,-0.326732,-0.477360,-0.815704,0.050457,-0.172680,0.076309,-25.242355,-12.609337,-0.868675,,,,,,,
1512177496.584910,-0.382227,0.498225,-3.046578,0.021306,-0.034425,0.025973,-0.327644,-0.477867,-0.815041,0.041634,-0.182182,0.074746,-24.943512,-12.833885,-1.171333,,,,,,,
1512177496.604899,-0.382604,0.498541,-3.046141,-0.005115,0.001879,0.013991,-0.327895,-0.478145,-0.814777,0.041183,-0.177022,0.072041,-25.168030,-12.759224,-0.869377,,,,,,,
1512177496.624918,-0.382301,0.498577,-3.046188,-0.018736,0.014702,-0.000021,-0.327642,-0.478176,-0.814861,0.057027,-0.161854,0.070934,-24.942383,-12.608894,-0.946220,,,,,,,
1512177496.644907,-0.382064,0.498890,-3.046466,0.001673,-0.009814,-0.010471,-0.327393,-0.478451,-0.814799,0.084962,-0.155460,0.077174,-24.940994,-12.308891,-0.871086,,,,,,,
1512177496.664896,-0.382757,0.499274,-3.046287,-0.000964,-0.039781,0.019239,-0.327889,-0.478788,-0.814402,0.086861,-0.156847,0.080210,-24.717804,-12.683556,-1.098167,,,,,,,
1512177496.684916,-0.384005,0.499294,-3.045504,0.001802,-0.043036,0.044851,-0.328901,-0.478806,-0.813984,0.073790,-0.159271,0.076160,-24.943359,-12.833885,-0.871330,,,,,,,
1512177496.704905,-0.385175,0.499581,-3.044423,0.014567,-0.024864,0.047230,-0.329802,-0.479058,-0.813470,0.061812,-0.172203,0.074197,-24.941681,-12.458885,-0.871162,,,,,,,
1512177496.724925,-0.385765,0.499702,-3.043273,0.003808,0.005015,0.054641,-0.330260,-0.479164,-0.813222,0.048598,-0.179924,0.074941,-24.941528,-12.458885,-0.571159,,,,,,,
1512177496.744914,-0.385824,0.499708,-3.042328,-0.000178,0.020004,0.039715,-0.330307,-0.479169,-0.813200,0.046432,-0.178210,0.076353,-25.165970,-12.309227,-0.794182,,,,,,,
1512177496.764933,-0.385696,0.499713,-3.041742,-0.013932,0.013580,0.032027,-0.330202,-0.479174,-0.813240,0.061128,-0.168928,0.080528,-24.866943,-12.533775,-0.721825,,,,,,,
1512177496.784922,-0.385834,0.499588,-3.041206,-0.013986,-0.002451,0.034101,-0.330336,-0.479064,-0.813250,0.068145,-0.154146,0.076052,-24.641632,-12.458443,-0.798714,,,,,,,
1512177496.804911,-0.386079,0.499779,-3.040725,0.004460,-0.002380,0.015182,-0.330502,-0.479231,-0.813084,0.066616,-0.149828,0.075123,-25.242203,-12.609337,-0.568672,,,,,,,
1512177496.824913,-0.386068,0.500215,-3.040483,-0.001914,0.008292,0.014060,-0.330414,-0.479614,-0.812894,0.077224,-0.156998,0.076795,-24.941635,-12.458885,-0.796165,,,,,,,
1512177496.844902,-0.386020,0.500134,-3.040088,-0.017116,0.009304,0.030900,-0.330389,-0.479543,-0.812946,0.075033,-0.156824,0.075107,-25.167236,-12.609230,-0.644310,,,,,,,
1512177496.864921,-0.386086,0.499925,-3.039481,-0.018392,0.007142,0.043667,-0.330481,-0.479360,-0.813017,0.071005,-0.151148,0.073667,-25.090744,-12.234108,-1.019783,,,,,,,
1512177496.884910,-0.386412,0.499791,-3.038531,0.000637,-0.002464,0.052436,-0.330770,-0.479242,-0.812968,0.062429,-0.150763,0.063243,-24.714905,-12.083549,-0.722893,,,,,,,
1512177496.904930,-0.386812,0.500366,-3.037431,0.037100,0.005097,0.040200,-0.330992,-0.479746,-0.812581,0.061735,-0.150487,0.059193,-24.940582,-12.233894,-0.721046,,,,,,,
1512177496.924919,-0.386841,0.501239,-3.036441,0.037261,0.026481,0.031749,-0.330857,-0.480513,-0.812183,0.071900,-0.145357,0.070896,-25.091263,-12.384117,-0.719841,,,,,,,
1512177496.944908,-0.386474,0.501959,-3.035581,0.023325,0.037131,0.036915,-0.330428,-0.481144,-0.811984,0.081099,-0.153042,0.078875,-24.790695,-12.233665,-0.947319,,,,,,,
1512177496.964927,-0.386134,0.502175,-3.034385,0.010013,0.048796,0.068743,-0.330113,-0.481333,-0.812000,0.074910,-0.153295,0.064670,-25.015549,-12.234001,-0.645424,,,,,,,
1512177496.984916,-0.385735,0.502067,-3.032443,0.013831,0.067973,0.096582,-0.329808,-0.481239,-0.812180,0.059437,-0.152642,0.052429,-25.014496,-12.008995,-0.570305,,,,,,,
1512177497.004936,-0.385295,0.502043,-3.030277,0.016952,0.074380,0.101982,-0.329455,-0.481217,-0.812335,0.049060,-0.145110,0.054386,-25.164581,-12.009224,-0.719032,,,,,,,
1512177497.024925,-0.384762,0.501861,-3.028040,0.013787,0.071168,0.098722,-0.329055,-0.481058,-0.812592,0.049132,-0.130865,0.054917,-25.538452,-11.784782,-0.490746,,,,,,,
1512177497.044944,-0.384383,0.502169,-3.026184,0.035607,0.048835,0.068047,-0.328692,-0.481328,-0.812579,0.054079,-0.124507,0.058169,-25.391190,-12.384560,-0.567299,,,,,,,
1512177497.064933,-0.384553,0.502648,-3.024753,0.019773,0.009312,0.057022,-0.328743,-0.481748,-0.812310,0.072899,-0.122653,0.073540,-25.390549,-12.234566,-0.642235,,,,,,,
1512177497.084922,-0.385470,0.502686,-3.023384,0.005724,-0.029186,0.066277,-0.329481,-0.481781,-0.811991,0.066328,-0.130188,0.073343,-25.464920,-12.084679,-0.716515,,,,,,,
1512177497.104942,-0.386988,0.502562,-3.021912,-0.001855,-0.044166,0.072511,-0.330735,-0.481673,-0.811545,0.063035,-0.134920,0.067450,-25.164246,-11.934227,-0.719002,,,,,,,
1512177497.124931,-0.388676,0.502263,-3.020359,-0.001927,-0.054853,0.076739,-0.332160,-0.481410,-0.811119,0.066123,-0.132756,0.069740,-25.390060,-12.159569,-0.342186,,,,,,,
1512177497.144950,-0.390196,0.502431,-3.018878,0.028157,-0.035553,0.063383,-0.333362,-0.481558,-0.810538,0.054309,-0.131113,0.059211,-25.163483,-11.784218,-0.568932,,,,,,,
1512177497.164940,-0.390853,0.502927,-3.017450,0.023999,0.016788,0.059239,-0.333803,-0.481993,-0.810098,0.062029,-0.143129,0.062280,-25.389389,-12.009560,-0.342125,,,,,,,
1512177497.184959,-0.390688,0.503003,-3.016040,0.004703,0.044520,0.067587,-0.333655,-0.482059,-0.810119,0.077323,-0.143292,0.056701,-25.388718,-11.859566,-0.342049,,,,,,,
1512177497.204948,-0.390540,0.503034,-3.014529,0.018440,0.038115,0.074158,-0.333529,-0.482086,-0.810155,0.078525,-0.137375,0.049215,-25.313721,-11.859459,-0.342690,,,,,,,
1512177497.224937,-0.390725,0.503382,-3.012480,0.040527,0.038114,0.092602,-0.333616,-0.482391,-0.809938,0.071943,-0.143647,0.039384,-25.686432,-11.335014,-0.489265,,,,,,,
1512177497.244957,-0.391195,0.503582,-3.009873,0.031657,0.033792,0.113782,-0.333959,-0.482566,-0.809692,0.060995,-0.137871,0.043350,-25.613449,-11.784904,-0.490105,,,,,,,
1512177497.264946,-0.391706,0.503452,-3.007301,0.017773,0.033763,0.114644,-0.334397,-0.482452,-0.809579,0.045686,-0.129684,0.036675,-25.685974,-11.260002,-0.264229,,,,,,,
1512177497.284965,-0.391918,0.503371,-3.004942,0.023382,0.043421,0.098771,-0.334584,-0.482381,-0.809544,0.042729,-0.119990,0.035130,-25.987396,-11.560463,-0.411827,,,,,,,
1512177497.304954,-0.391910,0.503328,-3.002843,0.021452,0.047710,0.085961,-0.334585,-0.482343,-0.809566,0.041266,-0.107592,0.034420,-25.761353,-11.335121,-0.338631,,,,,,,
1512177497.324974,-0.392069,0.503802,-3.000911,0.047147,0.031742,0.078817,-0.334626,-0.482758,-0.809302,0.041673,-0.111587,0.041953,-25.835709,-11.185234,-0.412926,,,,,,,
1512177497.344963,-0.392468,0.504072,-2.998638,0.034080,0.032759,0.095689,-0.334899,-0.482995,-0.809048,0.038772,-0.100852,0.041912,-25.761322,-11.335121,-0.263634,,,,,,,
1512177497.364952,-0.392509,0.503908,-2.996491,0.017103,0.060514,0.092342,-0.334963,-0.482852,-0.809107,0.027971,-0.107587,0.035212,-26.058197,-10.660561,-0.110771,,,,,,,
1512177497.384971,-0.391931,0.503635,-2.994521,0.003313,0.073312,0.087919,-0.334546,-0.482612,-0.809422,0.020489,-0.096840,0.034703,-26.058197,-10.660561,-0.110771,,,,,,,
1512177497.404960,-0.391486,0.503673,-2.992856,0.030306,0.053106,0.066921,-0.334178,-0.482646,-0.809554,0.028712,-0.092687,0.046416,-25.984329,-10.885460,-0.336510,,,,,,,
1512177497.424980,-0.391288,0.503905,-2.991300,0.018661,0.034935,0.060290,-0.333975,-0.482848,-0.809517,0.047598,-0.094697,0.058128,-26.058609,-10.735573,-0.260796,,,,,,,
1512177497.444969,-0.391512,0.504267,-2.990026,0.025332,0.015756,0.043265,-0.334090,-0.483165,-0.809280,0.062286,-0.096333,0.061279,-25.834961,-11.035225,-0.262856,,,,,,,
1512177497.464988,-0.391678,0.504488,-2.988862,0.012397,0.024266,0.052703,-0.334183,-0.483360,-0.809126,0.076279,-0.101006,0.061094,-25.908279,-10.660347,-0.262047,,,,,,,
1512177497.484977,-0.391634,0.504410,-2.987140,0.010739,0.059439,0.090113,-0.334163,-0.483291,-0.809175,0.074489,-0.109345,0.049654,-26.058472,-10.660561,-0.635765,,,,,,,
1512177497.504997,-0.390993,0.504225,-2.984982,0.019151,0.095753,0.098889,-0.333677,-0.483129,-0.809473,0.069715,-0.112422,0.043069,-25.832565,-10.510231,-0.187599,,,,,,,
1512177497.524986,-0.389805,0.504153,-2.982675,0.028703,0.116055,0.102296,-0.332729,-0.483066,-0.809900,0.071727,-0.113446,0.041590,-25.981293,-10.210457,-0.336189,,,,,,,
1512177497.544975,-0.388581,0.504303,-2.980339,0.035110,0.105386,0.101286,-0.331710,-0.483197,-0.810240,0.069060,-0.111102,0.038008,-26.206406,-10.210793,-0.559273,,,,,,,
1512177497.564994,-0.387790,0.504556,-2.977893,0.040371,0.084024,0.104487,-0.331023,-0.483419,-0.810389,0.073393,-0.107478,0.044093,-26.282043,-10.360909,-0.483711,,,,,,,
1512177497.584983,-0.387474,0.504742,-2.975472,0.031843,0.063716,0.103225,-0.330733,-0.483581,-0.810410,0.065764,-0.107819,0.045701,-26.356064,-10.136009,-0.557976,,,,,,,
1512177497.605003,-0.387188,0.504875,-2.972855,0.032719,0.083991,0.116103,-0.330477,-0.483698,-0.810445,0.046450,-0.116476,0.033239,-26.281372,-10.210899,-0.483650,,,,,,,
1512177497.624992,-0.386223,0.504735,-2.970305,0.021078,0.114954,0.111775,-0.329719,-0.483575,-0.810827,0.042885,-0.118766,0.026998,-25.905579,-9.985344,-0.936729,,,,,,,
1512177497.645012,-0.384927,0.504674,-2.967878,0.024373,0.118177,0.106505,-0.328679,-0.483522,-0.811280,0.061071,-0.105635,0.028016,-25.754120,-9.685112,-0.712868,,,,,,,
1512177497.665001,-0.383548,0.504719,-2.965643,0.023513,0.114996,0.093689,-0.327552,-0.483562,-0.811713,0.081520,-0.104817,0.020758,-25.903442,-9.535332,-0.711525,,,,,,,
1512177497.684990,-0.382602,0.504654,-2.963647,0.013966,0.078672,0.089160,-0.326796,-0.483504,-0.812051,0.091887,-0.115342,0.011270,-25.828552,-9.535225,-0.937157,,,,,,,
1512177497.705009,-0.382514,0.504514,-2.961556,0.025580,0.032753,0.094502,-0.326750,-0.483382,-0.812143,0.104277,-0.096177,0.010126,-26.052917,-9.385551,-1.010185,,,,,,,
1512177497.724998,-0.383562,0.505426,-2.959065,0.099131,-0.008795,0.092222,-0.327436,-0.484180,-0.811391,0.095029,-0.095898,0.021886,-26.203110,-9.460777,-0.708931,,,,,,,
1512177497.745018,-0.385343,0.507076,-2.955756,0.130643,-0.007737,0.120398,-0.328579,-0.485623,-0.810065,0.077008,-0.094348,0.061896,-26.427460,-9.311119,-0.781960,,,,,,,
1512177497.765007,-0.386750,0.508584,-2.952094,0.105925,0.024244,0.134010,-0.329442,-0.486941,-0.808923,0.043920,-0.125028,0.066506,-26.425400,-8.861122,-0.706749,,,,,,,
1512177497.785026,-0.387003,0.509098,-2.948839,0.040019,0.083982,0.125803,-0.329552,-0.487390,-0.808607,0.017556,-0.131186,0.060408,-26.426529,-9.086113,-0.931847,,,,,,,
1512177497.805015,-0.385120,0.508393,-2.946710,-0.037261,0.172580,0.097273,-0.328158,-0.486774,-0.809544,0.017261,-0.120754,0.037022,-26.499954,-8.711235,-1.156029,,,,,,,
1512177497.824976,-0.381486,0.506751,-2.945691,-0.081614,0.205673,0.073292,-0.325511,-0.485340,-0.811472,0.048900,-0.112317,0.012476,-26.349503,-8.636009,-0.932274,,,,,,,
1512177497.844996,-0.378506,0.505207,-2.944837,-0.053887,0.135222,0.069185,-0.323368,-0.483988,-0.813134,0.077351,-0.087469,-0.010917,-26.498596,-8.411232,-1.155891,,,,,,,
1512177497.864985,-0.377719,0.504796,-2.943089,0.023361,0.050892,0.099860,-0.322802,-0.483629,-0.813573,0.089846,-0.080962,-0.019999,-26.348572,-8.411003,-1.082161,,,,,,,
1512177497.885004,-0.379278,0.505669,-2.940183,0.114897,-0.039775,0.104068,-0.323913,-0.484393,-0.812676,0.087051,-0.071988,0.010461,-26.723938,-8.486565,-1.154015,,,,,,,
1512177497.904993,-0.381747,0.507654,-2.936674,0.132827,-0.026955,0.116098,-0.325560,-0.486128,-0.810980,0.064116,-0.087679,0.038550,-26.799286,-8.561684,-1.153419,,,,,,,
1512177497.925013,-0.383043,0.508981,-2.933601,0.087332,0.029623,0.097511,-0.326369,-0.487288,-0.809959,0.042006,-0.116106,0.054908,-26.722549,-8.186562,-1.078880,,,,,,,
1512177497.945002,-0.382234,0.509312,-2.931541,0.014170,0.116080,0.078633,-0.325653,-0.487577,-0.810073,0.046540,-0.109942,0.046111,-26.799057,-8.486687,-1.378380,,,,,,,
1512177497.964991,-0.379547,0.508488,-2.930194,-0.026247,0.173709,0.076117,-0.323624,-0.486857,-0.811318,0.087082,-0.093999,0.036354,-26.871735,-7.961784,-1.452492,,,,,,,
1512177497.985010,-0.377322,0.508055,-2.928541,0.012985,0.124608,0.086107,-0.321896,-0.486479,-0.812232,0.118924,-0.079927,0.025397,-26.948868,-8.411903,-1.677071,,,,,,,
1512177498.004999,-0.376494,0.508160,-2.925998,0.043099,0.090374,0.132261,-0.321205,-0.486571,-0.812450,0.126106,-0.074678,0.020641,-26.948898,-8.411903,-1.752068,,,,,,,
1512177498.025019,-0.377100,0.508938,-2.922008,0.114066,0.050912,0.158740,-0.321557,-0.487250,-0.811903,0.105890,-0.076486,0.026579,-27.098907,-8.412132,-1.750801,,,,,,,
1512177498.045008,-0.377835,0.510441,-2.917663,0.123745,0.085119,0.155803,-0.321884,-0.488562,-0.810985,0.075256,-0.094766,0.042675,-27.173599,-8.337242,-1.825127,,,,,,,
1512177498.065027,-0.377009,0.511090,-2.913639,0.059799,0.144834,0.157215,-0.321096,-0.489128,-0.810956,0.060019,-0.095436,0.046567,-26.947372,-8.036903,-2.051888,,,,,,,
1512177498.085016,-0.375020,0.510898,-2.910560,0.021938,0.180088,0.128007,-0.319518,-0.488961,-0.811680,0.064909,-0.089713,0.038624,-27.397812,-8.112572,-2.273109,,,,,,,
1512177498.105005,-0.372715,0.510682,-2.908042,0.028762,0.145969,0.100269,-0.317684,-0.488772,-0.812513,0.090496,-0.068143,0.030912,-27.321548,-7.812462,-2.423607,,,,,,,
1512177498.125025,-0.371426,0.511026,-2.905813,0.043588,0.095785,0.104577,-0.316576,-0.489072,-0.812765,0.112383,-0.069521,0.026419,-27.399200,-8.412575,-2.348244,,,,,,,
1512177498.145014,-0.371573,0.511497,-2.902780,0.073114,0.033832,0.119708,-0.316612,-0.489484,-0.812503,0.111320,-0.068881,0.033924,-27.623718,-8.262917,-2.721260,,,,,,,
1512177498.165034,-0.372899,0.512744,-2.899295,0.106913,0.018894,0.138269,-0.317466,-0.490570,-0.811514,0.099006,-0.089081,0.049994,-27.701126,-8.788033,-2.795860,,,,,,,
1512177498.185023,-0.374137,0.513376,-2.895119,0.079601,0.041204,0.179528,-0.318357,-0.491121,-0.810832,0.093504,-0.093428,0.053096,-27.623306,-8.187920,-2.571220,,,,,,,
1512177498.205042,-0.374935,0.513702,-2.890847,0.073364,0.079667,0.172111,-0.318945,-0.491405,-0.810428,0.064032,-0.100667,0.026874,-27.322784,-8.037468,-2.873695,,,,,,,
1512177498.225031,-0.373874,0.513938,-2.887106,0.053562,0.155528,0.148636,-0.318043,-0.491610,-0.810658,0.084553,-0.096509,0.012349,-27.773117,-8.113136,-2.869911,,,,,,,
1512177498.245020,-0.372066,0.514074,-2.884171,0.035912,0.144878,0.119560,-0.316552,-0.491729,-0.811170,0.133523,-0.082917,0.012220,-27.849503,-8.413246,-2.944405,,,,,,,
1512177498.265040,-0.371011,0.514051,-2.881375,0.032540,0.093578,0.126791,-0.315701,-0.491709,-0.811514,0.157665,-0.062399,0.003485,-27.624176,-8.337914,-2.946281,,,,,,,
1512177498.285029,-0.371298,0.514497,-2.878133,0.078252,0.046638,0.132622,-0.315854,-0.492097,-0.811219,0.154996,-0.064193,-0.003433,-27.625000,-8.487923,-3.246361,,,,,,,
1512177498.305048,-0.372236,0.515205,-2.874049,0.091329,0.052976,0.180808,-0.316488,-0.492713,-0.810598,0.117559,-0.078744,-0.000529,-27.549957,-8.487801,-3.171989,,,,,,,
1512177498.325037,-0.373287,0.515785,-2.868905,0.105553,0.071069,0.223718,-0.317235,-0.493218,-0.809998,0.059804,-0.109031,-0.000396,-27.624588,-8.412910,-3.096321,,,,,,,
1512177498.345057,-0.373671,0.516280,-2.863419,0.098332,0.122351,0.210996,-0.317457,-0.493648,-0.809649,0.007521,-0.105976,0.005724,-27.699844,-8.488029,-2.945717,,,,,,,
1512177498.365046,-0.372629,0.516730,-2.859149,0.074696,0.151265,0.159587,-0.316533,-0.494040,-0.809772,-0.004161,-0.106622,0.023700,-27.926285,-8.788368,-3.168938,,,,,,,
1512177498.385035,-0.370747,0.516415,-2.855927,-0.002696,0.164014,0.133990,-0.315064,-0.493766,-0.810511,0.027909,-0.076379,0.029399,-27.998474,-8.188484,-2.943031,,,,,,,
1512177498.405054,-0.368188,0.515037,-2.854135,-0.060565,0.160811,0.087299,-0.313233,-0.492567,-0.811949,0.077333,-0.045030,0.010267,-27.923141,-8.113365,-2.943642,,,,,,,
1512177498.425043,-0.365979,0.513509,-2.853176,-0.061418,0.114907,0.072202,-0.311708,-0.491237,-0.813341,0.130266,-0.040883,-0.011824,-27.322403,-7.962456,-2.798668,,,,,,,
1512177498.445063,-0.364991,0.512093,-2.851368,-0.038809,0.087066,0.121469,-0.311153,-0.490003,-0.814297,0.154384,-0.049319,-0.045566,-27.397476,-7.962578,-2.948021,,,,,,,
1512177498.465052,-0.364906,0.511303,-2.848318,0.034302,0.076451,0.149148,-0.311222,-0.489314,-0.814685,0.160663,-0.060689,-0.067502,-27.249512,-8.412346,-2.949516,,,,,,,
1512177498.485071,-0.365565,0.511741,-2.843961,0.107231,0.065804,0.186412,-0.311682,-0.489696,-0.814279,0.166037,-0.079808,-0.069555,-27.247818,-8.037346,-2.949333,,,,,,,
1512177498.505060,-0.366990,0.512749,-2.838377,0.142728,0.051887,0.231654,-0.312665,-0.490575,-0.813373,0.151669,-0.089000,-0.054653,-27.396576,-7.737572,-3.172920,,,,,,,
1512177498.525049,-0.369042,0.514197,-2.832297,0.168465,0.031650,0.221295,-0.314076,-0.491836,-0.812067,0.135243,-0.079301,-0.021642,-27.847412,-7.963249,-2.794212,,,,,,,
1512177498.545069,-0.371212,0.515865,-2.826466,0.164385,0.027390,0.209493,-0.315540,-0.493287,-0.810618,0.110156,-0.071120,0.006709,-27.695007,-7.438026,-2.720238,,,,,,,
1512177498.565058,-0.372758,0.517237,-2.820997,0.133582,0.057262,0.203819,-0.316546,-0.494480,-0.809498,0.088701,-0.063152,0.023503,-27.996002,-7.663475,-2.717796,,,,,,,
1512177498.585078,-0.373710,0.518262,-2.816092,0.121262,0.056237,0.175923,-0.317131,-0.495371,-0.808724,0.082375,-0.066473,0.044289,-27.994324,-7.288475,-2.717628,,,,,,,
1512177498.605067,-0.374548,0.519168,-2.811863,0.091620,0.048738,0.162674,-0.317644,-0.496158,-0.808040,0.074846,-0.063778,0.058833,-28.068192,-7.063576,-2.491890,,,,,,,
1512177498.625086,-0.375134,0.519658,-2.808109,0.068560,0.058360,0.138918,-0.318028,-0.496583,-0.807628,0.060842,-0.061660,0.059169,-27.693207,-7.063011,-2.495079,,,,,,,
1512177498.645075,-0.374805,0.519955,-2.805257,0.034990,0.095756,0.107645,-0.317709,-0.496841,-0.807594,0.065649,-0.072632,0.058952,-28.068161,-7.063576,-2.416878,,,,,,,
1512177498.665064,-0.373513,0.519402,-2.803028,-0.018288,0.124519,0.108042,-0.316766,-0.496361,-0.808260,0.080590,-0.081352,0.041582,-27.842117,-6.838234,-2.343697,,,,,,,
1512177498.685084,-0.371793,0.518109,-2.800769,-0.039980,0.144734,0.131250,-0.315608,-0.495238,-0.809401,0.091716,-0.082841,0.005171,-27.616745,-6.762901,-2.270576,,,,,,,
1512177498.705073,-0.370202,0.516780,-2.798045,-0.011442,0.142615,0.146583,-0.314557,-0.494083,-0.810515,0.105939,-0.080013,-0.020250,-27.842194,-6.838234,-2.493690,,,,,,,
1512177498.725092,-0.369752,0.516220,-2.793915,0.039760,0.108386,0.206902,-0.314292,-0.493597,-0.810914,0.108894,-0.089472,-0.038573,-27.840622,-6.463234,-2.718513,,,,,,,
1512177498.745081,-0.370362,0.515929,-2.788901,0.068344,0.082772,0.217888,-0.314840,-0.493343,-0.810856,0.098439,-0.065343,-0.038280,-27.840240,-6.388237,-2.643486,,,,,,,
1512177498.765101,-0.371016,0.516375,-2.783736,0.103880,0.091417,0.197114,-0.315290,-0.493731,-0.810445,0.100919,-0.055738,-0.011851,-27.614563,-6.237892,-2.645332,,,,,,,
1512177498.785090,-0.370904,0.516912,-2.779232,0.064861,0.127717,0.172151,-0.315102,-0.494198,-0.810234,0.111733,-0.063847,0.002220,-27.614532,-6.237892,-2.570320,,,,,,,
1512177498.805079,-0.369353,0.516363,-2.775714,0.011922,0.165065,0.152327,-0.313944,-0.493720,-0.810974,0.119135,-0.063088,0.000656,-27.540726,-6.462791,-2.946053,,,,,,,
1512177498.825065,-0.367581,0.515795,-2.772429,0.022559,0.154399,0.153511,-0.312607,-0.493226,-0.811791,0.135513,-0.057448,-0.009681,-28.063507,-6.013573,-2.566399,,,,,,,
1512177498.845054,-0.366379,0.515392,-2.768516,0.059316,0.140501,0.185975,-0.311702,-0.492876,-0.812351,0.136470,-0.046583,-0.003964,-27.688263,-5.938011,-2.719551,,,,,,,
1512177498.865074,-0.366819,0.516017,-2.763308,0.134423,0.068990,0.218800,-0.311949,-0.493420,-0.811926,0.116544,-0.043445,0.023550,-27.837875,-5.863228,-2.643242,,,,,,,
1512177498.885063,-0.368651,0.517674,-2.757476,0.160070,0.030582,0.212640,-0.313141,-0.494860,-0.810589,0.110931,-0.037000,0.067654,-28.286926,-5.638908,-2.789314,,,,,,,
1512177498.905082,-0.370396,0.518867,-2.752139,0.118811,0.043373,0.193963,-0.314341,-0.495896,-0.809491,0.105066,-0.032149,0.098599,-28.211258,-5.488792,-2.789879,,,,,,,
1512177498.925071,-0.370432,0.518940,-2.748129,0.020365,0.123412,0.155503,-0.314357,-0.495960,-0.809446,0.105876,-0.052777,0.079298,-28.286667,-5.563911,-2.939262,,,,,,,
1512177498.945060,-0.367583,0.517021,-2.745235,-0.077532,0.249324,0.151327,-0.312391,-0.494293,-0.811225,0.122556,-0.064286,0.025580,-28.135284,-5.263680,-2.865410,,,,,,,
1512177498.965080,-0.363317,0.514615,-2.742751,-0.065826,0.277108,0.153724,-0.309349,-0.492200,-0.813659,0.156257,-0.049640,-0.015457,-28.058670,-4.888573,-3.015877,,,,,,,
1512177498.985069,-0.359671,0.512948,-2.738926,0.008878,0.271765,0.213422,-0.306669,-0.490748,-0.815548,0.155881,-0.056356,-0.052021,-28.060883,-5.338570,-3.391090,,,,,,,
1512177499.005088,-0.357186,0.512479,-2.732981,0.090968,0.260009,0.276398,-0.304722,-0.490340,-0.816524,0.119266,-0.077959,-0.078664,-27.985474,-5.263451,-3.241692,,,,,,,
1512177499.025077,-0.355142,0.512944,-2.726172,0.121910,0.262202,0.275792,-0.302972,-0.490744,-0.816931,0.104394,-0.084146,-0.080423,-28.208176,-4.738792,-3.389534,,,,,,,
