timestamp(unix),attitude_roll(radians),attitude_pitch(radians),attitude_yaw(radians),rotation_rate_x(radians/s),rotation_rate_y(radians/s),rotation_rate_z(radians/s),gravity_x(G),gravity_y(G),gravity_z(G),user_acc_x(G),user_acc_y(G),user_acc_z(G),magnetic_field_x(microteslas),magnetic_field_y(microteslas),magnetic_field_z(microteslas),latitude(degree),longitude(degree),altitude(meter),speed(m/s),course(degree),timestamp(unix),User Mark
1512177635.696290,0.399638,0.911787,-2.968341,-0.045548,-0.135932,0.006546,0.238250,-0.790599,-0.564083,-0.008407,-0.000157,0.029781,-29.474854,-15.915688,-36.159355,,,,,,,
1512177635.716279,0.396664,0.910184,-2.967896,-0.081135,-0.111334,-0.031191,0.237061,-0.789617,-0.565957,-0.029037,0.017659,0.022805,-29.701508,-16.291023,-36.082619,,,,,,,
1512177635.736299,0.395711,0.908772,-2.968251,-0.044832,-0.035440,-0.031469,0.236950,-0.788750,-0.567211,-0.015438,0.012459,0.003811,-29.472458,-15.390694,-36.084114,,,,,,,
1512177635.756288,0.395697,0.908430,-2.968523,-0.002588,-0.006587,-0.006239,0.237047,-0.788539,-0.567463,-0.000032,0.007411,-0.005931,-29.626663,-16.290916,-36.383247,,,,,,,
1512177635.776307,0.395489,0.908680,-2.968620,0.013207,-0.025813,0.004583,0.236852,-0.788693,-0.567331,0.010462,-0.007556,-0.009086,-29.474823,-15.915688,-36.084358,,,,,,,
1512177635.796296,0.394500,0.908857,-2.968438,-0.002787,-0.047189,0.005350,0.236238,-0.788802,-0.567436,0.001692,-0.003084,-0.000847,-29.476776,-16.365700,-35.934563,,,,,,,
1512177635.816316,0.393244,0.908625,-2.968168,-0.015548,-0.056824,0.001929,0.235595,-0.788659,-0.567901,0.000871,0.000924,-0.001130,-29.926285,-16.216362,-36.305656,,,,,,,
1512177635.836305,0.391753,0.908463,-2.967910,-0.006020,-0.064297,0.005237,0.234797,-0.788559,-0.568370,-0.004023,0.001297,0.005596,-29.251892,-16.365364,-36.161476,,,,,,,
1512177635.856294,0.390698,0.908329,-2.967735,-0.010267,-0.032254,0.006356,0.234237,-0.788477,-0.568715,-0.004287,0.005838,0.011525,-29.251587,-16.290352,-36.236443,,,,,,,
1512177635.876313,0.389560,0.908234,-2.967181,-0.010482,-0.044034,0.018035,0.233618,-0.788419,-0.569050,-0.001303,0.003125,0.001179,-29.702530,-16.516029,-36.082710,,,,,,,
1512177635.896302,0.388201,0.908148,-2.966581,-0.012520,-0.038685,0.012695,0.232870,-0.788366,-0.569430,-0.012121,0.000112,0.007952,-29.552979,-16.590813,-36.309029,,,,,,,
1512177635.916322,0.387640,0.908006,-2.966366,-0.009078,-0.015146,0.000038,0.232593,-0.788279,-0.569664,-0.001087,0.001505,0.006173,-29.929443,-16.966377,-35.856010,,,,,,,
1512177635.936295,0.386855,0.907836,-2.966247,-0.013449,-0.049350,0.004116,0.232197,-0.788174,-0.569971,0.012127,-0.002232,-0.002096,-29.548584,-15.690804,-35.633614,,,,,,,
1512177635.956313,0.385347,0.907590,-2.965933,-0.015580,-0.063241,0.002970,0.231410,-0.788022,-0.570500,-0.002833,-0.002657,0.007924,-29.548691,-15.690804,-35.858604,,,,,,,
1512177635.976302,0.384249,0.907383,-2.965480,-0.012489,-0.025863,0.011675,0.230844,-0.787895,-0.570905,-0.007913,0.003059,0.010923,-29.550430,-16.065804,-35.933784,,,,,,,
1512177635.996291,0.383442,0.907392,-2.964853,-0.009422,-0.010921,0.020299,0.230381,-0.787901,-0.571084,-0.012058,0.009657,0.008371,-29.549377,-15.840797,-35.858681,,,,,,,
1512177636.016311,0.382790,0.907215,-2.964301,-0.019916,-0.013057,0.009476,0.230061,-0.787791,-0.571364,-0.000279,0.005901,0.009062,-29.928680,-16.741371,-36.380913,,,,,,,
1512177636.036300,0.381852,0.906607,-2.963666,-0.047548,-0.024831,0.004775,0.229703,-0.787417,-0.572024,-0.001630,-0.001554,0.010409,-29.773926,-15.766136,-35.631737,,,,,,,
1512177636.056320,0.380915,0.905496,-2.962966,-0.061290,-0.019503,-0.002871,0.229492,-0.786732,-0.573051,-0.002029,0.002659,0.002921,-29.697342,-15.391029,-35.857201,,,,,,,
1512177636.076309,0.379809,0.904570,-2.962185,-0.044426,-0.022702,0.009090,0.229128,-0.786159,-0.573981,0.000318,0.002819,0.002417,-30.072647,-15.466591,-35.779045,,,,,,,
1512177636.096298,0.378936,0.904035,-2.961302,-0.031746,-0.002403,0.016807,0.228782,-0.785829,-0.574571,-0.001823,0.003465,0.005647,-29.924377,-15.841362,-35.855492,,,,,,,
1512177636.116318,0.378248,0.903574,-2.960607,-0.033717,-0.018409,0.006061,0.228521,-0.785544,-0.575064,-0.003896,-0.000955,-0.000726,-29.925049,-15.991371,-35.855568,,,,,,,
1512177636.136307,0.377353,0.902776,-2.960053,-0.051779,-0.016293,0.002609,0.228237,-0.785049,-0.575852,-0.007366,0.001449,0.006348,-30.301590,-16.291924,-36.227516,,,,,,,
1512177636.156327,0.376613,0.902090,-2.959143,-0.032770,-0.003465,0.014658,0.228009,-0.784624,-0.576521,-0.006405,0.007174,-0.009035,-29.697571,-15.466026,-35.632240,,,,,,,
1512177636.176316,0.376011,0.901791,-2.958426,-0.017844,-0.001304,0.014883,0.227748,-0.784439,-0.576876,-0.015590,0.005768,-0.012250,-29.847351,-15.391243,-35.855919,,,,,,,
1512177636.196334,0.376421,0.901930,-2.958018,0.017436,0.061776,0.011347,0.227944,-0.784525,-0.576681,-0.032647,0.024668,-0.026560,-29.846451,-15.166252,-36.080818,,,,,,,
1512177636.216323,0.379916,0.903336,-2.959201,0.134388,0.183809,-0.028110,0.229549,-0.785396,-0.574856,-0.078441,0.073421,-0.057758,-29.846222,-15.166252,-35.630821,,,,,,,
1512177636.236312,0.390658,0.908848,-2.964191,0.440723,0.431054,-0.038801,0.234059,-0.788796,-0.568346,-0.048878,0.075982,-0.108061,-29.547577,-15.465797,-35.633507,,,,,,,
1512177636.256332,0.407669,0.920696,-2.973106,0.763288,0.531892,-0.007128,0.239970,-0.796023,-0.555663,-0.017146,0.035876,-0.109743,-29.250351,-16.065361,-35.786339,,,,,,,
1512177636.276321,0.427413,0.936186,-2.984408,0.884778,0.504306,-0.005461,0.245753,-0.805303,-0.539530,0.010473,0.008885,-0.061834,-28.802414,-16.514687,-35.865364,,,,,,,
1512177636.296340,0.445725,0.950873,-2.997224,0.786287,0.341880,-0.053295,0.250464,-0.813923,-0.524211,0.013009,-0.003735,0.023280,-28.130035,-17.113670,-35.721382,,,,,,,
1512177636.316329,0.459967,0.961546,-3.009209,0.561828,0.186718,-0.090136,0.254034,-0.820077,-0.512777,0.021662,-0.043219,0.106237,-27.760117,-18.238121,-35.725090,,,,,,,
1512177636.336349,0.468379,0.967001,-3.019150,0.243944,-0.137168,-0.222728,0.256314,-0.823187,-0.506622,0.012957,0.054968,0.132996,-27.760452,-18.313118,-35.725121,,,,,,,
1512177636.356339,0.474751,0.965478,-3.029133,-0.019135,-0.103366,-0.236019,0.260110,-0.822321,-0.506093,0.041602,-0.101904,0.170018,-27.464005,-19.137672,-35.428062,,,,,,,
1512177636.376328,0.472421,0.962080,-3.028659,-0.209645,-0.103058,0.004286,0.260201,-0.820383,-0.509184,0.065071,-0.068152,0.066129,-27.767426,-19.888130,-35.500847,,,,,,,
1512177636.396346,0.468194,0.958596,-3.026556,-0.141377,-0.098551,-0.062938,0.259334,-0.818385,-0.512827,-0.000637,0.032756,-0.012000,-27.161682,-18.612221,-35.505363,,,,,,,
1512177636.416335,0.471281,0.958187,-3.030019,0.136582,0.077136,-0.102008,0.261068,-0.818150,-0.512322,-0.006124,0.044774,-0.037636,-27.087662,-18.837105,-35.431099,,,,,,,
1512177636.436355,0.480315,0.963376,-3.036498,0.371892,0.224730,-0.012801,0.263721,-0.821123,-0.506170,0.007230,0.024126,-0.054041,-27.238327,-18.987343,-35.429893,,,,,,,
1512177636.456344,0.490663,0.970865,-3.043511,0.415464,0.213034,-0.004747,0.266039,-0.825374,-0.497976,-0.006883,0.014599,-0.023478,-27.090988,-19.587120,-35.356453,,,,,,,
1512177636.476363,0.500388,0.977206,-3.050566,0.345515,0.186277,-0.030370,0.268352,-0.828938,-0.490763,-0.000683,-0.005153,0.018855,-26.868027,-20.036781,-35.358574,,,,,,,
1512177636.496352,0.508342,0.982050,-3.056127,0.256555,0.164719,-0.002953,0.270290,-0.831637,-0.485100,0.006565,-0.032285,0.035713,-26.493057,-20.036217,-35.436760,,,,,,,
1512177636.516341,0.513475,0.984964,-3.059132,0.132910,0.106853,-0.007078,0.271585,-0.833252,-0.481593,0.004386,-0.018966,0.041209,-26.493729,-20.186226,-35.436821,,,,,,,
1512177636.536361,0.516149,0.985890,-3.060834,0.044542,0.045850,-0.017100,0.272491,-0.833764,-0.480195,-0.004943,-0.017723,0.033112,-26.268661,-20.185890,-35.288750,,,,,,,
1512177636.556350,0.517903,0.986245,-3.062214,0.036208,0.028768,-0.030074,0.273186,-0.833960,-0.479458,-0.012642,0.002783,0.011349,-26.569672,-20.411339,-35.286293,,,,,,,
1512177636.576370,0.521116,0.986944,-3.064387,0.073780,0.086540,-0.042118,0.274435,-0.834345,-0.478072,-0.014395,0.022486,-0.006104,-26.117569,-19.960655,-35.139915,,,,,,,
1512177636.596359,0.525676,0.988013,-3.067784,0.062133,0.065165,-0.048761,0.276164,-0.834934,-0.476044,0.009160,-0.016583,0.045075,-26.118698,-20.185661,-35.365013,,,,,,,
1512177636.616379,0.525912,0.986709,-3.068043,-0.116143,-0.048352,-0.038944,0.276823,-0.834216,-0.476921,0.050371,-0.022031,0.002998,-25.894073,-20.260323,-35.441963,,,,,,,
1512177636.636368,0.523102,0.984372,-3.066602,-0.099590,-0.078295,-0.010025,0.276455,-0.832925,-0.479383,0.029332,0.000192,-0.030397,-26.568726,-20.186333,-35.436195,,,,,,,
1512177636.656356,0.521871,0.984448,-3.065956,0.052195,-0.002305,0.034016,0.275833,-0.832967,-0.479668,0.006485,-0.004924,-0.025627,-26.344330,-20.335991,-35.288185,,,,,,,
1512177636.676376,0.522913,0.986972,-3.065923,0.121986,0.074639,0.072608,0.275282,-0.834360,-0.477558,-0.004805,0.002207,0.013005,-26.569077,-20.261330,-35.436226,,,,,,,
1512177636.696365,0.524148,0.989443,-3.066177,0.079687,0.018002,0.048342,0.274839,-0.835720,-0.475431,0.007113,-0.014331,0.042463,-26.495377,-20.561226,-35.361992,,,,,,,
1512177636.716384,0.521792,0.988811,-3.064951,-0.137067,-0.141391,-0.003326,0.273981,-0.835373,-0.476535,0.019659,-0.023773,0.075885,-26.269073,-20.260887,-35.438774,,,,,,,
1512177636.736373,0.512083,0.982708,-3.059899,-0.439436,-0.359696,-0.037249,0.271834,-0.832003,-0.483608,0.026673,-0.039549,0.068646,-26.716599,-19.736565,-35.209709,,,,,,,
1512177636.756393,0.496246,0.972624,-3.051506,-0.602607,-0.469962,-0.037861,0.268123,-0.826366,-0.495205,0.002126,-0.024616,0.046215,-26.716599,-19.736565,-35.209709,,,,,,,
1512177636.776382,0.480309,0.961524,-3.043044,-0.594799,-0.422921,-0.057845,0.264420,-0.820064,-0.507520,-0.030777,0.015545,0.012219,-27.012848,-18.911995,-35.131783,,,,,,,
1512177636.796371,0.469197,0.951968,-3.037319,-0.455793,-0.267783,-0.075545,0.262295,-0.814559,-0.517392,-0.031338,0.039199,-0.026370,-27.692947,-19.963020,-35.876518,,,,,,,
1512177636.816391,0.463049,0.945381,-3.034429,-0.280990,-0.146821,-0.067259,0.261501,-0.810720,-0.523785,-0.017650,0.038137,-0.050221,-27.985245,-18.313454,-35.348213,,,,,,,
1512177636.836380,0.460343,0.941670,-3.033458,-0.150072,-0.086836,-0.052363,0.261417,-0.808542,-0.527182,-0.010959,0.021524,-0.032358,-27.984497,-18.163460,-35.198143,,,,,,,
1512177636.856400,0.458126,0.938887,-3.032760,-0.142762,-0.091118,-0.043745,0.261242,-0.806901,-0.529777,0.007435,0.004518,-0.024880,-27.910507,-18.388344,-35.198891,,,,,,,
1512177636.876389,0.453855,0.934999,-3.030983,-0.190729,-0.141385,-0.045678,0.260350,-0.804599,-0.533703,0.007320,-0.020536,-0.002247,-28.136185,-18.538689,-35.197044,,,,,,,
1512177636.896407,0.450148,0.931549,-3.030497,-0.152108,-0.178681,-0.062305,0.259576,-0.802545,-0.537160,0.011939,-0.006736,0.003972,-28.358063,-17.864021,-35.044823,,,,,,,
1512177636.916396,0.445625,0.927869,-3.029366,-0.180150,-0.178769,-0.043527,0.258415,-0.800344,-0.540990,0.006325,-0.013804,0.004765,-28.885437,-18.389809,-35.040611,,,,,,,
1512177636.936375,0.441221,0.924581,-3.027800,-0.153829,-0.150988,-0.020655,0.257152,-0.798369,-0.544499,0.001011,-0.002321,-0.007640,-28.660400,-18.314476,-35.642479,,,,,,,
1512177636.956395,0.437729,0.922261,-3.026610,-0.102623,-0.111386,-0.020841,0.256034,-0.796969,-0.547070,-0.010505,0.011889,-0.008411,-28.957428,-17.714912,-35.114647,,,,,,,
1512177636.976384,0.436061,0.920639,-3.026454,-0.068283,-0.063247,-0.032972,0.255666,-0.795989,-0.548667,-0.016286,0.018904,0.012336,-28.957428,-17.714912,-35.114647,,,,,,,
1512177636.996404,0.434770,0.918788,-3.026641,-0.099894,-0.093158,-0.056988,0.255578,-0.794867,-0.550332,0.004081,0.011954,0.010430,-29.031128,-17.415031,-35.188881,,,,,,,
1512177637.016393,0.432148,0.915778,-3.027200,-0.152785,-0.185041,-0.085789,0.255135,-0.793037,-0.553170,0.010963,-0.007714,0.024056,-28.731766,-17.564583,-35.116493,,,,,,,
1512177637.036382,0.427718,0.911648,-3.026797,-0.213851,-0.217218,-0.069731,0.254039,-0.790514,-0.557270,0.007604,-0.012647,0.016880,-29.182129,-17.640251,-35.187706,,,,,,,
1512177637.056401,0.421792,0.906845,-3.025358,-0.250321,-0.261088,-0.057617,0.252283,-0.787563,-0.562224,0.015997,-0.011097,-0.014345,-29.105453,-17.265129,-35.188164,,,,,,,
1512177637.076390,0.414761,0.901474,-3.023341,-0.282509,-0.268645,-0.046387,0.250025,-0.784242,-0.567847,0.004324,-0.012496,-0.006021,-29.329208,-17.040474,-34.736153,,,,,,,
1512177637.096410,0.408346,0.896585,-3.021166,-0.233817,-0.205592,-0.022007,0.247897,-0.781200,-0.572951,-0.010302,0.002284,-0.006272,-29.779617,-17.116158,-34.882362,,,,,,,
1512177637.116399,0.403710,0.893615,-3.019531,-0.117775,-0.164847,-0.010590,0.246148,-0.779342,-0.576225,-0.015695,0.014358,-0.014534,-29.928192,-16.816368,-34.730949,,,,,,,
1512177637.136418,0.400319,0.891728,-3.019144,-0.086439,-0.160475,-0.035706,0.244765,-0.778159,-0.578410,-0.005187,0.009299,-0.018545,-30.152069,-16.591713,-34.503944,,,,,,,
1512177637.156407,0.396122,0.889746,-3.018964,-0.110186,-0.229973,-0.021367,0.242930,-0.776912,-0.580854,0.012044,-0.016301,-0.034167,-30.226730,-16.516823,-34.503258,,,,,,,
1512177637.176396,0.389861,0.887138,-3.017608,-0.152952,-0.271708,-0.015735,0.240058,-0.775267,-0.584236,0.008874,-0.008943,-0.018440,-30.151657,-16.516701,-34.353905,,,,,,,
1512177637.196416,0.382946,0.883556,-3.016950,-0.184174,-0.345364,-0.065483,0.237049,-0.773000,-0.588454,0.002148,0.002889,-0.000230,-30.375732,-16.292046,-34.501884,,,,,,,
1512177637.216405,0.375168,0.878857,-3.016660,-0.236221,-0.394553,-0.079200,0.233793,-0.770010,-0.593653,-0.011854,-0.010065,-0.013586,-30.824570,-16.067726,-34.197960,,,,,,,
1512177637.236424,0.367587,0.876234,-3.022470,-0.007073,-0.574337,-0.279058,0.230011,-0.768334,-0.597291,0.036057,0.072655,0.017427,-31.200500,-16.293282,-34.044868,,,,,,,
1512177637.256413,0.361556,0.871758,-3.026363,-0.219319,-0.457437,-0.137808,0.227618,-0.765462,-0.601878,0.018354,-0.004360,0.000636,-31.424683,-16.143608,-33.742897,,,,,,,
1512177637.276433,0.351768,0.866551,-3.026258,-0.266004,-0.486445,-0.087412,0.223087,-0.762100,-0.607811,-0.006595,0.028625,0.003959,-31.575577,-16.368843,-33.516716,,,,,,,
1512177637.296422,0.342162,0.860123,-3.028137,-0.282873,-0.626116,-0.235260,0.218877,-0.757923,-0.614527,-0.149571,-0.000835,-0.069875,-31.948135,-15.844398,-33.363304,,,,,,,
1512177637.316411,0.335288,0.853684,-3.038028,-0.243296,-0.665178,-0.439507,0.216249,-0.753707,-0.620613,-0.016924,0.058226,0.038231,-32.249985,-16.294853,-32.985954,,,,,,,
1512177637.336430,0.328694,0.844688,-3.045041,-0.375038,-0.557697,-0.331234,0.214332,-0.747764,-0.628418,-0.069481,0.005119,0.055816,-32.849487,-16.220757,-32.680824,,,,,,,
1512177637.356419,0.323270,0.834674,-3.052358,-0.412191,-0.556413,-0.470357,0.213289,-0.741077,-0.636640,-0.083086,0.076801,0.045652,-32.924271,-16.220863,-32.230186,,,,,,,
1512177637.376439,0.321131,0.822044,-3.064073,-0.498061,-0.522060,-0.628196,0.214864,-0.732538,-0.645925,-0.083013,0.058619,0.011846,-33.073441,-16.071083,-31.928841,,,,,,,
1512177637.396428,0.320530,0.809243,-3.076729,-0.477530,-0.552026,-0.581094,0.217412,-0.723765,-0.654900,-0.038365,0.047969,-0.083900,-33.148666,-16.146202,-31.703239,,,,,,,
1512177637.416447,0.314118,0.797299,-3.090011,-0.409858,-0.991787,-0.697843,0.215865,-0.715472,-0.664455,-0.047972,0.007495,-0.092350,-33.749191,-16.297096,-31.398216,,,,,,,
1512177637.436436,0.304946,0.783572,-3.107665,-0.549403,-1.141267,-0.841105,0.212690,-0.705815,-0.675712,-0.029661,-0.001980,-0.051140,-33.749496,-16.447105,-30.648277,,,,,,,
1512177637.456425,0.292540,0.764342,-3.125982,-0.820071,-1.282402,-0.984106,0.208167,-0.692062,-0.691169,-0.128654,0.048859,0.051673,-34.798035,-16.298683,-29.064293,,,,,,,
1512177637.476445,0.285825,0.740162,3.134451,-0.930428,-0.953024,-1.257469,0.208180,-0.674408,-0.708403,-0.322361,0.065063,0.125318,-34.797729,-16.298668,-28.464302,,,,,,,
1512177637.496434,0.287307,0.714154,3.100877,-0.876315,-1.201887,-1.771392,0.214128,-0.654978,-0.724673,-0.306169,0.085078,0.000247,-34.349121,-16.672997,-27.868309,,,,,,,
1512177637.516454,0.282255,0.686196,3.056602,-0.870342,-1.938273,-2.104343,0.215482,-0.633599,-0.743047,-0.365033,0.137841,0.108907,-34.653809,-17.873466,-26.441307,,,,,,,
1512177637.536443,0.292611,0.662472,3.002245,-0.228817,-0.629895,-2.608604,0.227438,-0.615068,-0.754959,0.483149,0.052156,0.302154,-33.758499,-18.997124,-25.699486,,,,,,,
1512177637.556462,0.315498,0.653008,2.942237,0.474485,-0.468033,-1.806834,0.246451,-0.607579,-0.755056,0.642328,-0.512676,-0.022105,-32.790878,-20.720665,-24.958565,,,,,,,
1512177637.576451,0.336282,0.661780,2.931917,0.533637,0.914169,0.426894,0.260321,-0.614522,-0.744711,0.081400,-0.263835,0.056418,-32.189682,-20.419762,-25.263527,,,,,,,
1512177637.596440,0.344878,0.673402,2.940365,0.340638,0.604121,0.414491,0.264280,-0.623649,-0.735674,-0.133665,-0.012673,0.006152,-31.739822,-20.419090,-25.567345,,,,,,,
1512177637.616460,0.344228,0.679411,2.944810,0.196256,-0.319678,0.203435,0.262532,-0.628335,-0.732305,-0.103993,-0.037864,-0.131510,-31.589447,-20.343864,-25.493599,,,,,,,
1512177637.636449,0.326862,0.687536,2.946168,0.534354,-0.995244,0.161210,0.248129,-0.634635,-0.731894,0.125101,0.051291,-0.115487,-32.190689,-20.719765,-24.588661,,,,,,,
1512177637.656468,0.321671,0.706143,2.938545,1.322781,-0.275821,-0.034878,0.240551,-0.648904,-0.721843,0.123082,-0.010153,-0.290456,-32.416489,-20.945107,-24.136864,,,,,,,
1512177637.676457,0.319435,0.741055,2.919449,2.147224,-1.113916,-0.164440,0.231677,-0.675067,-0.700435,-0.031528,0.033450,-0.222600,-32.647217,-22.295448,-23.460579,,,,,,,
1512177637.696477,0.313283,0.784876,2.895195,2.441071,-0.950093,-0.132960,0.218032,-0.706737,-0.673040,0.112122,0.130596,-0.052744,-33.027466,-23.646019,-21.808022,,,,,,,
1512177637.716466,0.318775,0.831436,2.868502,2.503839,-0.641204,-0.174684,0.211175,-0.738900,-0.639867,0.058371,0.099175,-0.056773,-32.658661,-25.145470,-20.686913,,,,,,,
1512177637.736455,0.324598,0.875327,2.839731,2.226478,-0.992926,-0.244956,0.204351,-0.767753,-0.607284,0.020289,0.034813,-0.192994,-33.037979,-26.271034,-19.184242,,,,,,,
1512177637.756474,0.321296,0.906353,2.809135,1.490115,-1.445315,-0.542903,0.194726,-0.787260,-0.585065,-0.020456,-0.077913,0.117246,-33.042435,-27.396049,-17.984764,,,,,,,
1512177637.776463,0.320522,0.919325,2.779471,0.574954,-1.258531,-0.633334,0.191040,-0.795192,-0.575474,0.010742,-0.065297,0.188466,-33.423096,-28.746620,-17.157204,,,,,,,
1512177637.796483,0.303067,0.921845,2.763716,0.129668,-1.613482,-0.282826,0.180367,-0.796718,-0.576807,0.067298,-0.041661,0.153055,-33.198212,-28.896278,-16.034187,,,,,,,
1512177637.816472,0.279960,0.917288,2.759379,-0.478940,-0.967254,-0.192380,0.167994,-0.793956,-0.584303,0.012350,0.005229,0.098173,-33.572754,-28.896843,-15.131004,,,,,,,
1512177637.836491,0.263421,0.903982,2.753730,-0.747536,-1.097455,-0.460040,0.161044,-0.785796,-0.597150,0.000852,0.023253,0.168729,-33.571304,-28.596840,-14.905876,,,,,,,
1512177637.856480,0.252495,0.883371,2.747495,-1.033981,-0.624817,-0.392187,0.158523,-0.772882,-0.614428,-0.100814,0.023584,0.128115,-33.496979,-28.746727,-14.906578,,,,,,,
1512177637.876469,0.243648,0.859623,2.747877,-1.177628,-0.291070,-0.198017,0.157465,-0.757596,-0.633443,-0.051539,0.011319,0.039510,-33.871857,-28.672279,-15.353355,,,,,,,
1512177637.896489,0.234110,0.839529,2.751642,-0.850222,-0.425396,-0.083941,0.154917,-0.744329,-0.649595,0.030187,-0.001445,-0.020281,-33.348404,-28.971504,-15.732948,,,,,,,
1512177637.916478,0.222813,0.830083,2.755084,-0.276905,-0.372458,0.062075,0.149116,-0.737987,-0.658132,-0.033378,-0.034229,-0.001689,-33.644836,-28.221947,-15.355064,,,,,,,
1512177637.936480,0.214273,0.827096,2.757942,-0.168973,-0.303908,0.048950,0.143959,-0.735968,-0.661532,0.003044,-0.008142,-0.003354,-33.420395,-28.296608,-15.806999,,,,,,,
1512177637.956469,0.204161,0.821612,2.761890,-0.388160,-0.396176,0.083832,0.138078,-0.732245,-0.666896,0.010847,-0.008127,0.066356,-33.718826,-27.997063,-15.354332,,,,,,,
1512177637.976458,0.189903,0.813254,2.766416,-0.410389,-0.666418,0.061249,0.129706,-0.726527,-0.674784,-0.055686,-0.043813,0.032816,-33.868149,-27.847282,-15.352974,,,,,,,
1512177637.996476,0.172107,0.807199,2.768926,-0.276352,-0.917124,0.001553,0.118429,-0.722353,-0.681307,-0.026022,-0.102080,-0.075407,-34.016541,-27.547508,-14.826561,,,,,,,
1512177638.016465,0.149841,0.800890,2.768187,-0.369740,-1.267421,-0.105491,0.103909,-0.717976,-0.688267,-0.009762,0.023182,0.002171,-34.240677,-27.397850,-14.449577,,,,,,,
1512177638.036485,0.127047,0.788490,2.768847,-0.724123,-0.900468,-0.125342,0.089317,-0.709290,-0.699235,-0.114494,-0.097778,0.075379,-34.538803,-27.023293,-14.071861,,,,,,,
1512177638.056474,0.114489,0.776571,2.759424,-0.388116,-0.752964,-0.453637,0.081489,-0.700837,-0.708650,-0.035056,-0.055953,0.100618,-34.314774,-27.247948,-13.998878,,,,,,,
1512177638.076494,0.114361,0.771670,2.746402,-0.128969,-0.299553,-0.501607,0.081789,-0.697334,-0.712064,-0.110048,-0.102471,0.018506,-34.014206,-27.172508,-13.551399,,,,,,,
1512177638.096483,0.121693,0.768277,2.734336,-0.127336,0.088110,-0.452261,0.087295,-0.694897,-0.713790,-0.162963,-0.071536,0.027084,-33.791458,-27.622169,-14.003502,,,,,,,
1512177638.116472,0.136502,0.763872,2.721994,-0.210086,0.484295,-0.457412,0.098271,-0.691723,-0.715445,-0.132283,-0.123783,0.048331,-33.121185,-28.596153,-14.684700,,,,,,,
1512177638.136492,0.152054,0.758942,2.716078,-0.145151,0.501774,-0.063035,0.109900,-0.688154,-0.717193,-0.036337,-0.147372,-0.003053,-32.219940,-28.294807,-14.917213,,,,,,,
1512177638.156481,0.142811,0.758889,2.725835,-0.078951,-0.345449,0.600197,0.103272,-0.688115,-0.718214,0.024230,-0.096034,0.055158,-31.994751,-28.219475,-15.219093,,,,,,,
1512177638.176500,0.118062,0.760652,2.751210,0.056669,-0.227545,1.044988,0.085324,-0.689394,-0.719343,-0.013546,-0.094282,-0.044939,-32.519165,-28.070259,-15.364555,,,,,,,
1512177638.196489,0.107913,0.770690,2.772316,0.657087,0.374683,0.541937,0.077270,-0.696630,-0.713256,-0.243286,0.117101,0.012725,-32.891800,-27.545815,-15.361122,,,,,,,
1512177638.216509,0.110621,0.793693,2.771108,1.404826,-0.215636,-0.159277,0.077411,-0.712947,-0.696930,-0.194293,0.070507,-0.009979,-32.666458,-27.470482,-15.363014,,,,,,,
1512177638.236498,0.110971,0.827174,2.753308,1.890084,-0.788869,-0.523099,0.074968,-0.736021,-0.672794,-0.104754,0.094664,0.135318,-32.295547,-28.444923,-14.766640,,,,,,,
1512177638.256486,0.107750,0.864753,2.730713,1.915050,-1.167953,-0.568831,0.069776,-0.760935,-0.645064,0.041415,0.080149,0.196959,-31.848740,-29.269264,-13.720848,,,,,,,
1512177638.276505,0.098726,0.897351,2.705571,1.566247,-1.494151,-0.636850,0.061474,-0.781678,-0.620644,-0.016994,0.134568,0.245583,-31.553787,-30.543816,-12.374001,,,,,,,
1512177638.296494,0.091800,0.922935,2.680789,1.210626,-1.185961,-0.648392,0.055322,-0.797376,-0.600940,-0.016992,0.092115,0.342365,-30.806152,-31.217690,-11.030678,,,,,,,
1512177638.316514,0.092240,0.940495,2.659611,0.656796,-0.582584,-0.456028,0.054288,-0.807850,-0.586881,0.209780,-0.033489,0.269330,-30.282547,-31.666908,-9.760368,,,,,,,
1512177638.336504,0.092696,0.939382,2.645892,-0.383650,-0.510598,-0.388763,0.054639,-0.807194,-0.587751,0.134189,0.199619,0.254972,-29.308441,-31.890450,-9.543755,,,,,,,
1512177638.356523,0.090910,0.925923,2.638931,-0.716906,-0.306368,-0.210586,0.054570,-0.799176,-0.598613,0.079203,0.168851,0.090785,-28.409973,-32.264091,-9.251579,,,,,,,
1512177638.376512,0.091443,0.912626,2.632179,-0.596571,-0.190592,-0.326774,0.055855,-0.791113,-0.609113,0.025658,0.236441,-0.006594,-27.732849,-31.738075,-9.707069,,,,,,,
1512177638.396501,0.097334,0.900937,2.622840,-0.575224,-0.039952,-0.320609,0.060337,-0.783909,-0.617935,0.038754,0.248570,-0.015732,-26.306641,-31.435936,-10.019051,,,,,,,
1512177638.416521,0.103073,0.887607,2.620302,-0.688991,0.333109,0.003125,0.064952,-0.775563,-0.627918,0.102666,0.183980,0.057605,-25.032089,-31.509026,-10.254906,,,,,,,
1512177638.436510,0.102757,0.873776,2.629477,-0.745978,0.290789,0.287851,0.065847,-0.766758,-0.638549,0.167292,0.149281,0.009322,-24.504059,-30.833229,-10.259056,,,,,,,
1512177638.456530,0.097403,0.858271,2.639272,-0.837084,-0.061618,0.172307,0.063576,-0.756714,-0.650647,0.191948,0.176636,-0.087772,-23.827286,-30.382225,-10.789589,,,,,,,
1512177638.476519,0.085960,0.841742,2.643738,-0.804494,-0.607166,0.044020,0.057193,-0.745805,-0.663704,0.192609,0.161973,-0.130593,-22.847931,-29.405754,-10.872429,,,,,,,
1512177638.496537,0.066901,0.828649,2.648946,-0.590736,-0.758829,0.196901,0.045183,-0.737019,-0.674359,0.141875,0.167561,-0.129444,-21.341187,-27.978493,-10.209526,,,,,,,
1512177638.516526,0.047817,0.816785,2.660763,-0.667450,-0.384551,0.471069,0.032722,-0.728949,-0.683785,0.141061,0.147940,-0.097343,-20.964600,-27.677925,-9.762566,,,,,,,
1512177638.536515,0.029925,0.801412,2.678470,-0.871354,-0.229203,0.626436,0.020816,-0.718339,-0.695381,0.171232,0.099763,-0.082345,-21.186874,-27.078255,-9.685387,,,,,,,
1512177638.556535,0.010041,0.783147,2.697133,-0.906036,-0.426925,0.650829,0.007116,-0.705513,-0.708660,0.138651,0.070931,-0.118290,-20.281616,-25.951897,-9.317513,,,,,,,
1512177638.576524,-0.012755,0.765876,2.715703,-0.837126,-0.504966,0.734708,-0.009193,-0.693169,-0.720716,0.124275,0.089928,-0.156359,-20.277649,-25.126900,-8.792137,,,,,,,
1512177638.596544,-0.035012,0.747777,2.737256,-0.888729,-0.302158,0.770912,-0.025666,-0.680011,-0.732752,0.046876,-0.039640,-0.169363,-20.274643,-24.526894,-8.191856,,,,,,,
1512177638.616533,-0.049629,0.730454,2.753577,-0.786919,-0.092334,0.619606,-0.036952,-0.667208,-0.743954,-0.001851,-0.011946,-0.171482,-19.820740,-23.701210,-7.820305,,,,,,,
1512177638.636553,-0.062060,0.716425,2.771511,-0.586554,-0.021800,0.754943,-0.046773,-0.656693,-0.752706,0.052724,-0.066620,-0.155986,-20.043533,-23.251549,-7.443184,,,,,,,
1512177638.656542,-0.076729,0.704671,2.790503,-0.532931,-0.170143,0.728553,-0.058397,-0.647783,-0.759583,0.042665,-0.066603,-0.117294,-20.039062,-22.276543,-7.292732,,,,,,,
1512177638.676531,-0.087738,0.690810,2.803592,-0.743656,-0.067379,0.452944,-0.067536,-0.637162,-0.767765,0.014634,-0.036178,-0.134976,-20.337112,-21.901985,-6.765007,,,,,,,
1512177638.696549,-0.090537,0.673745,2.813099,-0.815793,0.312671,0.515054,-0.070658,-0.623917,-0.778289,0.015589,-0.032379,-0.205811,-19.884155,-21.301308,-6.243568,,,,,,,
1512177638.716538,-0.091783,0.659405,2.830001,-0.512548,0.520831,0.818667,-0.072439,-0.612647,-0.787030,-0.017771,0.009574,-0.212894,-20.333099,-21.076973,-6.164635,,,,,,,
1512177638.736558,-0.094141,0.653913,2.850324,-0.017676,0.469283,0.803273,-0.074610,-0.608297,-0.790194,-0.036153,-0.012263,-0.156735,-20.930847,-20.552879,-6.384300,,,,,,,
1512177638.756547,-0.096650,0.654446,2.868595,0.087670,0.401315,0.681965,-0.076561,-0.608720,-0.789682,0.007286,-0.027678,-0.065039,-21.454956,-20.403664,-5.929771,,,,,,,
1512177638.776567,-0.099284,0.653339,2.885056,-0.024721,0.330723,0.641713,-0.078708,-0.607841,-0.790148,0.028552,-0.001793,-0.024763,-21.601501,-19.653877,-5.778145,,,,,,,
1512177638.796556,-0.103375,0.651724,2.900574,-0.001778,0.235764,0.603337,-0.082041,-0.606558,-0.790795,0.003397,0.015448,-0.026985,-22.425308,-19.430122,-5.396034,,,,,,,
1512177638.816545,-0.108164,0.650545,2.915469,0.003563,0.212273,0.601199,-0.085905,-0.605620,-0.791103,-0.013857,0.004988,-0.032139,-22.272537,-18.829887,-5.247032,,,,,,,
1512177638.836565,-0.113763,0.649034,2.930643,-0.017966,0.143863,0.611314,-0.090436,-0.604417,-0.791518,-0.051608,-0.041579,-0.054384,-23.171967,-18.756233,-4.789345,,,,,,,
1512177638.856554,-0.120289,0.647987,2.945303,0.049914,0.131230,0.566409,-0.095675,-0.603582,-0.791539,-0.132398,-0.067133,-0.054057,-23.393707,-18.081566,-4.337120,,,,,,,
1512177638.876573,-0.126518,0.649191,2.960061,0.191740,0.135725,0.564216,-0.100512,-0.604542,-0.790206,-0.150984,-0.105572,-0.020982,-23.917068,-17.707359,-4.407494,,,,,,,
1512177638.896563,-0.133551,0.653700,2.972479,0.351686,-0.093409,0.421820,-0.105703,-0.608127,-0.786770,-0.108988,-0.083492,0.006634,-24.218262,-18.007805,-4.105080,,,,,,,
1512177638.916552,-0.145964,0.660972,2.983835,0.444102,-0.356997,0.364676,-0.114815,-0.613884,-0.781001,-0.107658,-0.049797,0.046092,-24.364960,-17.333031,-3.578484,,,,,,,
1512177638.936571,-0.157669,0.667934,2.992086,0.318953,-0.268215,0.198992,-0.123274,-0.619365,-0.775364,-0.111162,-0.056813,0.057774,-24.663879,-17.108482,-3.425850,,,,,,,
1512177638.956528,-0.160907,0.669087,2.994245,-0.081578,0.014644,0.001220,-0.125670,-0.620270,-0.774255,-0.087740,-0.056167,0.068445,-24.964554,-17.258919,-3.423363,,,,,,,
1512177638.976548,-0.158128,0.664904,2.992196,-0.265946,0.083927,-0.063039,-0.123925,-0.616984,-0.777157,-0.040992,-0.019796,0.039776,-24.888046,-16.958809,-3.123863,,,,,,,
1512177638.996537,-0.156254,0.660433,2.990845,-0.203493,0.040048,0.026195,-0.122897,-0.613459,-0.780105,0.005831,0.014155,0.004577,-24.738876,-17.108589,-3.425209,,,,,,,
1512177639.016556,-0.156999,0.657930,2.992822,-0.060170,0.037929,0.126340,-0.123717,-0.611480,-0.781527,0.025680,0.028823,-0.011701,-24.738129,-16.958580,-3.275139,,,,,,,
1512177639.036545,-0.159049,0.657399,2.997375,-0.002391,0.077432,0.179549,-0.125371,-0.611060,-0.781593,-0.010646,0.026114,0.016746,-24.662857,-16.883476,-3.425743,,,,,,,
1512177639.056534,-0.157979,0.656580,3.000580,-0.065010,0.193924,0.104426,-0.124613,-0.610412,-0.782220,-0.012838,0.001906,0.063837,-24.662079,-16.733467,-3.200661,,,,,,,
1512177639.076554,-0.155458,0.653240,3.002225,-0.209618,0.133934,0.078668,-0.122955,-0.607762,-0.784542,0.015564,-0.008067,0.077343,-24.587936,-16.883354,-3.576363,,,,,,,
1512177639.096543,-0.155245,0.647516,3.002538,-0.312607,-0.028522,0.045697,-0.123324,-0.603207,-0.787992,0.004336,-0.007648,0.042127,-24.737747,-16.883583,-3.200096,,,,,,,
1512177639.116562,-0.156781,0.640192,3.002549,-0.376075,-0.089567,0.077614,-0.125221,-0.597349,-0.792144,-0.017403,-0.016695,-0.048600,-24.738876,-17.108589,-3.425209,,,,,,,
1512177639.136551,-0.156985,0.633370,3.002871,-0.304939,0.080454,0.037655,-0.126017,-0.591864,-0.796125,-0.060751,-0.018228,-0.074785,-24.284042,-16.057899,-3.203545,,,,,,,
1512177639.156571,-0.153706,0.629594,3.001700,-0.141639,0.123586,-0.035515,-0.123747,-0.588816,-0.798737,-0.031008,-0.015859,-0.077499,-24.285233,-16.282906,-3.578636,,,,,,,
1512177639.176560,-0.152479,0.628832,3.001443,-0.005226,-0.011989,0.024621,-0.122835,-0.588201,-0.799331,0.024736,0.005467,-0.053086,-24.285202,-16.282906,-3.503639,,,,,,,
1512177639.196549,-0.156836,0.630390,3.003218,0.161132,-0.243636,0.074196,-0.126173,-0.589460,-0.797883,0.026548,0.024824,-0.067443,-24.360306,-16.283012,-3.728004,,,,,,,
1512177639.216568,-0.164110,0.635194,3.006765,0.303558,-0.224244,0.100846,-0.131509,-0.593334,-0.794141,0.010324,0.049556,-0.033008,-24.136093,-16.507683,-3.280022,,,,,,,
1512177639.236557,-0.170437,0.641342,3.011279,0.343552,-0.132386,0.136926,-0.135910,-0.598271,-0.789683,-0.009537,0.016499,0.020060,-24.358215,-15.908012,-2.902840,,,,,,,
1512177639.256577,-0.173892,0.646477,3.015214,0.238655,-0.020317,0.103816,-0.138104,-0.602378,-0.786172,0.002484,-0.010537,0.076089,-24.508179,-15.908241,-2.826561,,,,,,,
1512177639.276566,-0.175663,0.648195,3.017801,0.039665,-0.017376,0.081753,-0.139315,-0.603748,-0.784906,0.011859,-0.024319,0.082971,-24.209335,-16.207787,-2.454247,,,,,,,
1512177639.296585,-0.176495,0.646611,3.018791,-0.109603,-0.017475,0.018827,-0.140136,-0.602485,-0.785730,-0.026490,-0.015755,0.046900,-24.507767,-15.833244,-2.676537,,,,,,,
1512177639.316574,-0.174574,0.643984,3.016950,-0.155745,0.078798,-0.088115,-0.138900,-0.600386,-0.787554,-0.036378,0.005431,0.008181,-24.508408,-15.983238,-2.601601,,,,,,,
1512177639.336563,-0.171248,0.641416,3.014569,-0.141477,0.108651,-0.046226,-0.136542,-0.598331,-0.789528,0.000465,0.003696,-0.002860,-24.361206,-16.583015,-2.828148,,,,,,,
1512177639.356583,-0.168862,0.639011,3.014100,-0.120415,0.114931,0.034054,-0.134900,-0.596402,-0.791268,0.015225,-0.005298,-0.005012,-24.508102,-15.908241,-2.676567,,,,,,,
1512177639.376572,-0.167664,0.636867,3.015204,-0.096468,0.058291,0.066187,-0.134164,-0.594680,-0.792688,0.020853,-0.006227,-0.021261,-24.359192,-16.133018,-2.827950,,,,,,,
1512177639.396592,-0.168625,0.635663,3.016414,-0.029162,-0.036655,0.051903,-0.135047,-0.593711,-0.793264,0.006034,-0.006448,-0.029947,-24.433929,-16.058128,-2.977272,,,,,,,
1512177639.416581,-0.170474,0.635196,3.017550,-0.006725,-0.063315,0.047872,-0.136560,-0.593335,-0.793286,-0.003195,0.003415,-0.029605,-24.508881,-16.058235,-2.901634,,,,,,,
1512177639.436600,-0.171839,0.635562,3.018480,0.040537,-0.036493,0.028399,-0.137606,-0.593630,-0.792885,-0.014936,0.016604,-0.022636,-24.431229,-15.458122,-2.976982,,,,,,,
1512177639.456589,-0.172800,0.636842,3.019455,0.088405,-0.017214,0.034484,-0.138237,-0.594659,-0.792004,-0.007988,0.011255,-0.006611,-24.736435,-16.583580,-3.274956,,,,,,,
1512177639.476578,-0.174010,0.638426,3.020865,0.083852,-0.021523,0.052530,-0.139032,-0.595932,-0.790907,0.002221,0.007355,0.014830,-24.583206,-15.908348,-2.900917,,,,,,,
1512177639.496598,-0.175388,0.639354,3.022499,0.047581,-0.020513,0.054140,-0.140025,-0.596677,-0.790170,0.002925,-0.003390,0.017480,-24.733963,-16.058586,-3.049721,,,,,,,
1512177639.516587,-0.176896,0.639525,3.023583,0.002131,-0.054715,0.028843,-0.141199,-0.596815,-0.789857,0.000681,-0.007159,0.017839,-24.507721,-15.833244,-2.601524,,,,,,,
1512177639.536606,-0.177941,0.638852,3.023773,-0.043291,-0.035506,0.004800,-0.142095,-0.596274,-0.790104,-0.008265,0.001838,0.007725,-24.359940,-16.283012,-2.978004,,,,,,,
1512177639.556595,-0.178096,0.638113,3.023417,-0.031211,-0.008749,-0.016257,-0.142296,-0.595680,-0.790516,-0.013542,0.002236,-0.000972,-24.434784,-16.283134,-2.677376,,,,,,,
1512177639.576615,-0.177192,0.637905,3.022713,-0.010810,0.032954,-0.023279,-0.141603,-0.595514,-0.790766,0.002000,0.004022,0.005885,-24.433731,-16.058128,-2.602272,,,,,,,
1512177639.596604,-0.176804,0.637790,3.022604,-0.011383,0.002983,0.010725,-0.141308,-0.595421,-0.790889,0.009716,0.003929,0.007838,-24.282867,-15.832909,-2.903435,,,,,,,
1512177639.616593,-0.177102,0.637582,3.023084,0.000159,0.005112,0.021558,-0.141565,-0.595254,-0.790968,-0.003454,0.005014,-0.005937,-24.358475,-15.983009,-2.752876,,,,,,,
1512177639.636612,-0.177494,0.637705,3.023696,0.011829,-0.004488,0.024894,-0.141863,-0.595353,-0.790841,0.000734,0.001206,-0.005760,-24.506409,-15.533241,-2.676399,,,,,,,
1512177639.656601,-0.177621,0.637959,3.023937,0.019827,0.010541,-0.006920,-0.141936,-0.595558,-0.790673,-0.005128,-0.001046,-0.000190,-24.358398,-15.983009,-2.602882,,,,,,,
1512177639.676621,-0.177437,0.638388,3.023766,0.016611,-0.002287,-0.007014,-0.141745,-0.595902,-0.790448,0.007422,-0.001938,0.011243,-24.583099,-15.908348,-2.675926,,,,,,,
1512177639.696610,-0.177526,0.638401,3.023909,-0.009266,0.001918,0.011819,-0.141814,-0.595912,-0.790428,0.008696,-0.000722,0.012215,-24.431976,-15.683128,-2.452095,,,,,,,
1512177639.716599,-0.177620,0.638151,3.024165,-0.008244,0.004046,0.013971,-0.141915,-0.595712,-0.790561,0.008065,0.000543,0.012332,-24.582016,-15.683357,-2.525826,,,,,,,
1512177639.736618,-0.177760,0.637587,3.024722,-0.034143,0.018923,0.033903,-0.142085,-0.595258,-0.790872,0.003627,0.002042,0.011362,-24.731827,-15.608574,-2.824516,,,,,,,
1512177639.756607,-0.177578,0.636583,3.025244,-0.048907,0.025326,0.024116,-0.142047,-0.594451,-0.791486,-0.006070,-0.002656,0.005475,-24.657654,-15.833458,-2.450249,,,,,,,
1512177639.776627,-0.177130,0.635614,3.025164,-0.050586,0.017902,-0.003652,-0.141794,-0.593672,-0.792116,-0.016760,0.005110,0.003038,-24.507721,-15.833244,-2.601524,,,,,,,
1512177639.796616,-0.176146,0.634755,3.024553,-0.048200,0.036092,-0.018480,-0.141103,-0.592980,-0.792757,-0.005732,0.002480,0.002886,-24.507721,-15.833244,-2.601524,,,,,,,
1512177639.816635,-0.175354,0.633948,3.024042,-0.040878,0.019002,-0.009901,-0.140559,-0.592331,-0.793339,-0.001836,0.005737,-0.000835,-24.508209,-15.908241,-2.901558,,,,,,,
1512177639.836625,-0.174750,0.633563,3.023639,-0.014203,0.019044,-0.011648,-0.140119,-0.592020,-0.793649,0.004819,0.000314,-0.001639,-24.432053,-15.683128,-2.602104,,,,,,,
1512177639.856614,-0.174448,0.633459,3.023589,-0.007969,0.013694,-0.001982,-0.139891,-0.591936,-0.793751,-0.001116,-0.000273,0.005437,-24.506821,-15.608238,-2.826424,,,,,,,
1512177639.876633,-0.174081,0.633307,3.023415,-0.011050,0.009430,-0.009504,-0.139615,-0.591814,-0.793891,0.000302,0.000581,0.005836,-24.956421,-15.533913,-2.672569,,,,,,,
1512177639.896622,-0.173756,0.633011,3.023250,-0.018700,0.012593,0.001052,-0.139387,-0.591575,-0.794109,0.004224,0.007423,0.005886,-24.508362,-15.983238,-2.526604,,,,,,,
1512177639.916642,-0.173545,0.632751,3.023397,-0.002857,0.013673,0.010884,-0.139246,-0.591366,-0.794290,0.003458,0.005764,-0.000754,-24.582504,-15.758354,-2.825859,,,,,,,
1512177639.936631,-0.173743,0.632888,3.023932,0.009608,0.004040,0.030220,-0.139389,-0.591476,-0.794183,0.009567,0.000243,0.007257,-24.507797,-15.833244,-2.751534,,,,,,,
1512177639.956642,-0.174111,0.632735,3.024608,-0.005143,0.001907,0.020407,-0.139697,-0.591353,-0.794220,-0.001538,-0.002077,0.004914,-24.883591,-15.983803,-2.973412,,,,,,,
1512177639.976631,-0.174239,0.632467,3.024773,-0.021972,-0.001296,0.006293,-0.139826,-0.591137,-0.794359,0.004786,-0.002064,0.013673,-24.732132,-15.683571,-2.749550,,,,,,,
1512177639.996620,-0.174383,0.631517,3.025046,-0.052176,-0.002457,0.027170,-0.140038,-0.590370,-0.794891,0.007469,0.000343,0.012070,-24.882156,-15.683800,-2.823280,,,,,,,
1512177640.016640,-0.175043,0.630407,3.025663,-0.044869,-0.013148,0.035766,-0.140676,-0.589473,-0.795444,-0.003214,0.007030,0.003924,-24.506744,-15.608238,-2.676430,,,,,,,
1512177640.036629,-0.175677,0.629480,3.026631,-0.034473,-0.001410,0.053017,-0.141276,-0.588724,-0.795892,0.001613,0.001413,-0.000922,-24.282196,-15.682899,-2.903374,,,,,,,
1512177640.056648,-0.176494,0.628768,3.027623,-0.028957,-0.016330,0.041320,-0.142000,-0.588149,-0.796189,0.004457,0.000579,0.003784,-24.582581,-15.758354,-2.975853,,,,,,,
1512177640.076637,-0.177235,0.627984,3.028433,-0.040701,-0.013148,0.042226,-0.142671,-0.587514,-0.796537,0.006028,-0.004206,0.009748,-24.582504,-15.758354,-2.825859,,,,,,,
1512177640.096657,-0.178378,0.626719,3.029282,-0.071768,-0.045262,0.049123,-0.143714,-0.586491,-0.797104,0.011405,-0.001339,0.013062,-24.806870,-15.608681,-2.898872,,,,,,,
1512177640.116646,-0.179849,0.624741,3.030073,-0.086665,-0.045278,0.047843,-0.145093,-0.584888,-0.798032,-0.006671,0.005878,-0.005298,-24.806641,-15.608681,-2.448875,,,,,,,
1512177640.136635,-0.180971,0.623711,3.030961,-0.019435,-0.024874,0.044623,-0.146097,-0.584051,-0.798461,-0.005148,0.007986,-0.007051,-24.730026,-15.233574,-2.599342,,,,,,,
1512177640.156654,-0.182007,0.623688,3.032129,0.017772,-0.015216,0.051593,-0.146926,-0.584033,-0.798322,-0.002427,0.002093,-0.002780,-24.431152,-15.458122,-2.826988,,,,,,,
1512177640.176643,-0.183102,0.624030,3.033375,0.024312,-0.024804,0.042058,-0.147764,-0.584311,-0.797964,-0.002214,-0.000818,0.005606,-24.655731,-15.383461,-2.675056,,,,,,,
1512177640.196663,-0.184391,0.624118,3.034372,0.008359,-0.035502,0.039660,-0.148783,-0.584382,-0.797723,-0.003820,-0.000014,0.001671,-24.505707,-15.383232,-2.601326,,,,,,,
1512177640.216652,-0.185690,0.624247,3.035263,0.021375,-0.047201,0.025950,-0.149805,-0.584487,-0.797454,-0.003699,0.003524,-0.002991,-24.580368,-15.308357,-2.600655,,,,,,,
1512177640.236671,-0.186947,0.624704,3.035861,0.027902,-0.035434,0.017553,-0.150757,-0.584858,-0.797003,-0.005569,0.007526,0.005057,-24.805817,-15.383690,-2.823769,,,,,,,
1512177640.256660,-0.187972,0.625402,3.036424,0.048223,-0.043937,0.013555,-0.151498,-0.585423,-0.796447,0.003686,0.000035,0.006072,-24.804504,-15.083687,-2.898628,,,,,,,
1512177640.276649,-0.189688,0.626255,3.036928,0.041798,-0.077063,0.013346,-0.152771,-0.586114,-0.795695,0.004684,-0.000006,0.007762,-24.730743,-15.383568,-2.674416,,,,,,,
1512177640.296669,-0.191445,0.626940,3.037616,0.041604,-0.067470,0.026171,-0.154092,-0.586670,-0.795031,0.008477,0.003250,0.004458,-24.956375,-15.533913,-2.597572,,,,,,,
1512177640.316658,-0.193137,0.627556,3.038625,0.034982,-0.048280,0.041068,-0.155368,-0.587168,-0.794415,0.004092,0.003489,0.007641,-24.731339,-15.533577,-2.524483,,,,,,,
1512177640.336678,-0.194667,0.628055,3.039739,0.035071,-0.047200,0.035743,-0.156526,-0.587572,-0.793888,-0.002119,-0.002714,0.010411,-25.182495,-15.834251,-2.145805,,,,,,,
1512177640.356667,-0.195937,0.628339,3.040617,0.009523,-0.031213,0.034363,-0.157501,-0.587802,-0.793525,-0.005737,0.001910,0.008262,-24.955139,-15.308907,-2.147469,,,,,,,
1512177640.376686,-0.196922,0.628295,3.041442,0.005239,-0.029088,0.035373,-0.158289,-0.587766,-0.793395,-0.001242,-0.001284,0.004058,-24.880630,-15.383797,-2.448128,,,,,,,
1512177640.396675,-0.198137,0.628120,3.042329,-0.006634,-0.031262,0.043720,-0.159272,-0.587625,-0.793303,0.001603,0.003930,0.010084,-24.804916,-15.233681,-2.373711,,,,,,,
1512177640.416664,-0.199420,0.627669,3.043478,-0.007758,-0.033402,0.047964,-0.160342,-0.587260,-0.793358,-0.005444,0.004801,-0.001427,-25.031708,-15.609032,-2.596962,,,,,,,
1512177640.436684,-0.200571,0.627869,3.044481,0.027629,-0.021583,0.034653,-0.161232,-0.587421,-0.793058,-0.004845,0.003986,0.001920,-25.029495,-15.159019,-2.221764,,,,,,,
1512177640.456673,-0.201272,0.628199,3.045421,0.020211,-0.000223,0.033557,-0.161749,-0.587688,-0.792754,-0.002267,-0.002857,0.010162,-25.179688,-15.159248,-2.595482,,,,,,,
1512177640.476692,-0.201782,0.628185,3.046155,-0.009565,-0.006668,0.028839,-0.162156,-0.587677,-0.792680,0.004807,-0.003616,0.020173,-24.954468,-15.158913,-2.147392,,,,,,,
1512177640.496681,-0.202276,0.627375,3.046708,-0.045800,-0.012067,0.027226,-0.162643,-0.587022,-0.793065,0.003005,0.003068,0.011281,-25.027771,-14.784019,-2.146584,,,,,,,
1512177640.516701,-0.202859,0.626427,3.047136,-0.041528,-0.015260,0.027280,-0.163217,-0.586254,-0.793515,-0.002112,0.002575,0.001416,-24.878754,-15.008797,-2.072960,,,,,,,
1512177640.536690,-0.203407,0.625548,3.047721,-0.032009,-0.004570,0.032787,-0.163756,-0.585541,-0.793930,-0.007768,0.005539,-0.008011,-25.329086,-15.084465,-2.069176,,,,,,,
1512177640.556679,-0.203826,0.624910,3.048223,-0.034047,-0.012041,0.026333,-0.164164,-0.585024,-0.794227,-0.000417,0.000369,0.001151,-25.026428,-14.484016,-2.146446,,,,,,,
1512177640.576698,-0.204679,0.623951,3.049051,-0.050473,-0.026006,0.051631,-0.164955,-0.584246,-0.794636,0.001793,0.003009,0.003788,-24.953339,-14.933907,-1.922295,,,,,,,
1512177640.596687,-0.205634,0.623151,3.049641,-0.013603,-0.024800,0.014861,-0.165809,-0.583596,-0.794935,-0.011605,0.001138,-0.003938,-25.027771,-14.784019,-2.146584,,,,,,,
1512177640.616707,-0.205861,0.623423,3.049786,0.021808,-0.002291,0.001592,-0.165957,-0.583817,-0.794742,-0.000425,-0.000854,0.007252,-24.804764,-15.233681,-2.073708,,,,,,,
1512177640.636696,-0.206185,0.623559,3.050105,-0.000782,-0.011966,0.012956,-0.166199,-0.583928,-0.794610,0.002671,0.001683,0.012033,-24.953445,-14.933907,-2.147301,,,,,,,
1512177640.656685,-0.206373,0.623542,3.050255,0.002623,0.001951,0.001328,-0.166350,-0.583914,-0.794589,-0.001176,0.004141,0.002215,-25.329468,-15.159477,-2.144218,,,,,,,
1512177640.676704,-0.206425,0.623701,3.050360,0.008995,0.001956,0.002485,-0.166372,-0.584043,-0.794490,0.005102,0.000105,0.007319,-24.952469,-14.708900,-2.222191,,,,,,,
1512177640.696693,-0.206599,0.623588,3.050577,-0.007097,-0.002352,0.008634,-0.166524,-0.583952,-0.794525,-0.001277,0.005384,0.004089,-25.177933,-14.784248,-2.445305,,,,,,,
1512177640.716713,-0.206706,0.623615,3.050722,0.003654,-0.009804,0.002366,-0.166606,-0.583974,-0.794492,-0.001912,0.001271,0.002820,-25.179504,-15.159248,-2.220482,,,,,,,
1512177640.736702,-0.206925,0.623736,3.050838,0.004607,-0.004473,0.009862,-0.166766,-0.584072,-0.794386,0.001376,-0.000600,0.005690,-25.405258,-15.309593,-2.368645,,,,,,,
1512177640.756721,-0.207382,0.623788,3.051283,0.009766,-0.015168,0.019493,-0.167122,-0.584114,-0.794280,0.003457,0.004814,0.004393,-25.179459,-15.159248,-2.145485,,,,,,,
1512177640.776711,-0.207942,0.623874,3.051896,0.003240,-0.007716,0.027954,-0.167556,-0.584184,-0.794137,0.000900,0.003419,0.008356,-25.405518,-15.384590,-2.218681,,,,,,,
1512177640.796700,-0.208466,0.623670,3.052533,-0.009476,-0.010928,0.023496,-0.167998,-0.584018,-0.794166,-0.003999,0.001773,0.007560,-25.177780,-14.784248,-2.145317,,,,,,,
1512177640.816719,-0.208558,0.623319,3.052663,-0.018726,0.010458,0.003179,-0.168113,-0.583733,-0.794351,-0.010674,0.005395,0.005456,-25.027695,-14.784019,-1.996590,,,,,,,
1512177640.836708,-0.208145,0.622936,3.052676,-0.013437,0.020076,0.006489,-0.167831,-0.583422,-0.794639,-0.003159,0.001437,0.005363,-25.253784,-15.009361,-2.144783,,,,,,,
1512177640.856728,-0.208065,0.622654,3.052904,-0.013626,0.007235,0.017101,-0.167801,-0.583193,-0.794813,0.000946,-0.001966,0.006575,-25.178452,-14.934242,-2.145378,,,,,,,
1512177640.876717,-0.208403,0.622129,3.053444,-0.027737,-0.009905,0.031763,-0.168133,-0.582767,-0.795056,0.003720,0.000049,0.006619,-25.178482,-14.934242,-2.220375,,,,,,,
1512177640.896736,-0.208816,0.621509,3.053743,-0.024178,-0.000242,0.010528,-0.168537,-0.582263,-0.795340,-0.008038,0.006869,0.004767,-25.327820,-14.784477,-2.219032,,,,,,,
1512177640.916725,-0.208699,0.621013,3.053839,-0.018780,0.009383,0.006373,-0.168503,-0.581859,-0.795642,0.000656,-0.000126,0.008365,-25.253113,-14.859352,-2.144707,,,,,,,
1512177640.936714,-0.208742,0.620529,3.053902,-0.032720,-0.006663,0.011449,-0.168596,-0.581465,-0.795910,0.008257,0.003142,0.011441,-24.953445,-14.933907,-2.147301,,,,,,,
1512177640.956708,-0.209041,0.619761,3.054023,-0.031654,-0.014143,0.010370,-0.168926,-0.580841,-0.796296,-0.002857,0.001327,-0.004424,-25.105133,-15.309135,-2.146187,,,,,,,
1512177640.976697,-0.209302,0.619516,3.053941,-0.000483,-0.009794,-0.005155,-0.169164,-0.580641,-0.796392,-0.001399,0.004545,-0.004313,-25.178482,-14.934242,-2.220375,,,,,,,
1512177640.996716,-0.209417,0.619620,3.054051,0.006725,0.000869,0.010978,-0.169243,-0.580726,-0.796313,0.006569,0.003150,0.005480,-24.954239,-15.083900,-2.372368,,,,,,,
1512177641.016705,-0.209890,0.619846,3.054375,0.018471,-0.022615,0.007865,-0.169592,-0.580910,-0.796104,0.000372,-0.000328,0.002724,-25.329468,-15.159477,-2.144218,,,,,,,
1512177641.036725,-0.210358,0.620136,3.054705,0.010941,-0.003406,0.013154,-0.169929,-0.581146,-0.795860,0.000374,-0.000351,0.009056,-25.179794,-15.234245,-2.145515,,,,,,,
1512177641.056714,-0.210608,0.620000,3.055023,-0.012456,-0.001293,0.010694,-0.170145,-0.581035,-0.795895,-0.000448,0.001232,0.012478,-25.478683,-15.009697,-1.917870,,,,,,,
1512177641.076703,-0.210530,0.619595,3.055178,-0.015641,0.012582,0.009626,-0.170132,-0.580706,-0.796138,-0.004017,0.004091,0.006343,-25.404800,-15.234581,-2.143608,,,,,,,
1512177641.096722,-0.210543,0.619757,3.055340,0.021833,-0.000157,-0.000535,-0.170123,-0.580837,-0.796044,-0.002698,0.000576,-0.000556,-25.027771,-14.784019,-2.146584,,,,,,,
1512177641.116711,-0.210560,0.620154,3.055567,0.017447,0.008365,0.006892,-0.170088,-0.581161,-0.795816,0.002089,0.003097,0.002221,-25.330139,-15.309471,-2.144279,,,,,,,
1512177641.136731,-0.210739,0.620496,3.055903,0.016343,-0.006592,0.008958,-0.170189,-0.581439,-0.795591,0.004280,-0.001035,0.009321,-25.178452,-14.934242,-2.145378,,,,,,,
1512177641.156720,-0.211001,0.620521,3.056162,-0.003895,0.001926,0.008696,-0.170394,-0.581459,-0.795532,-0.000443,0.002388,0.012115,-24.801987,-14.633675,-1.923439,,,,,,,
1512177641.176739,-0.211098,0.620350,3.056306,-0.004913,-0.004478,0.005461,-0.170493,-0.581320,-0.795613,-0.003442,0.002737,0.008000,-25.179123,-15.084251,-2.145454,,,,,,,
1512177641.196728,-0.211112,0.620271,3.056472,-0.003943,0.011533,0.011926,-0.170513,-0.581256,-0.795655,-0.002201,0.002688,0.007340,-25.104507,-15.159126,-2.221123,,,,,,,
1512177641.216717,-0.211099,0.620185,3.056797,-0.000778,0.002985,0.013006,-0.170513,-0.581186,-0.795706,0.002483,-0.000555,0.004782,-25.404907,-15.234581,-2.368614,,,,,,,
1512177641.236737,-0.211162,0.620102,3.056926,-0.009186,0.004052,0.005424,-0.170574,-0.581118,-0.795743,-0.000371,0.006701,0.003079,-25.402435,-14.709587,-2.143364,,,,,,,
1512177641.256726,-0.211039,0.620097,3.057050,0.010040,0.008360,0.003586,-0.170476,-0.581114,-0.795766,0.000157,0.004042,-0.004939,-24.952515,-14.708900,-2.297188,,,,,,,
1512177641.276746,-0.211072,0.620477,3.057176,0.016429,0.001967,0.004727,-0.170456,-0.581423,-0.795545,0.003647,0.002627,0.003675,-24.952408,-14.708900,-2.072182,,,,,,,
1512177641.296735,-0.211320,0.620498,3.057439,-0.001836,-0.010901,0.011877,-0.170651,-0.581441,-0.795490,0.003292,-0.000057,0.008473,-25.177475,-14.709251,-2.220268,,,,,,,
1512177641.316754,-0.211737,0.620361,3.057629,-0.008208,-0.014108,0.010709,-0.170999,-0.581329,-0.795497,-0.003393,0.003982,0.005931,-25.253006,-14.859352,-1.919716,,,,,,,
1512177641.336743,-0.212028,0.620165,3.057909,0.000267,-0.003424,0.014065,-0.171255,-0.581170,-0.795559,-0.002131,0.000893,0.004055,-24.953339,-14.933907,-1.922295,,,,,,,
1512177641.356732,-0.212340,0.620277,3.058140,0.009987,-0.007663,0.006731,-0.171489,-0.581260,-0.795442,-0.001714,-0.000252,0.008088,-25.179459,-15.159248,-2.145485,,,,,,,
1512177641.376752,-0.212593,0.620309,3.058487,0.004509,-0.002354,0.015196,-0.171686,-0.581287,-0.795380,-0.000021,0.002719,0.005616,-25.179459,-15.159248,-2.145485,,,,,,,
1512177641.396741,-0.212766,0.620443,3.058668,0.004809,-0.001242,-0.001848,-0.171808,-0.581396,-0.795274,-0.002387,0.002081,0.008394,-25.177734,-14.784248,-2.070305,,,,,,,
1512177641.416760,-0.212620,0.620188,3.058777,-0.018908,0.012569,0.013843,-0.171723,-0.581188,-0.795444,0.006211,-0.002765,0.014789,-25.254120,-15.084358,-2.144814,,,,,,,
1512177641.436749,-0.212797,0.619652,3.059121,-0.022218,-0.000266,0.020147,-0.171929,-0.580752,-0.795718,0.002709,-0.000242,0.002581,-25.028000,-14.859016,-1.921623,,,,,,,
1512177641.456769,-0.212963,0.619030,3.059744,-0.026714,0.015722,0.035063,-0.172138,-0.580245,-0.796042,0.001225,-0.001481,0.001655,-25.178757,-15.009239,-2.070412,,,,,,,
1512177641.476758,-0.213270,0.618282,3.060405,-0.038415,0.001821,0.032712,-0.172474,-0.579636,-0.796414,-0.000499,0.000076,0.009549,-25.027771,-14.784019,-2.146584,,,,,,,
1512177641.496747,-0.213468,0.617023,3.060976,-0.070485,0.009240,0.038671,-0.172786,-0.578610,-0.797092,-0.000524,0.002453,0.016071,-25.027328,-14.709023,-1.921562,,,,,,,
1512177641.516766,-0.213749,0.615442,3.061433,-0.068197,-0.008899,0.027979,-0.173204,-0.577319,-0.797937,0.000780,0.000949,0.006707,-25.327332,-14.709465,-1.918999,,,,,,,
1512177641.536755,-0.214004,0.614089,3.061508,-0.056192,-0.009915,0.011092,-0.173573,-0.576214,-0.798655,-0.006984,0.003033,-0.002935,-25.401382,-14.484581,-2.068260,,,,,,,
1512177641.556775,-0.214003,0.613712,3.061480,-0.006926,-0.002333,-0.002025,-0.173619,-0.575906,-0.798867,-0.000179,0.002237,0.001534,-25.103119,-14.859138,-2.145988,,,,,,,
1512177641.576764,-0.214073,0.613438,3.061514,-0.020944,0.000828,0.007376,-0.173708,-0.575682,-0.799009,0.000338,-0.000932,0.005567,-25.102295,-14.709129,-1.845909,,,,,,,
1512177641.596753,-0.214168,0.613141,3.061582,-0.005920,-0.007680,0.001168,-0.173820,-0.575439,-0.799160,-0.004067,0.000061,-0.001408,-25.101395,-14.484123,-2.070808,,,,,,,
1512177641.616772,-0.214368,0.613130,3.061627,-0.003845,-0.007679,0.005466,-0.173981,-0.575430,-0.799131,0.005478,0.004919,0.006513,-25.328308,-14.934471,-1.844109,,,,,,,
1512177641.636761,-0.214717,0.612950,3.061888,-0.008234,-0.010912,0.011783,-0.174282,-0.575283,-0.799171,-0.001331,0.003536,0.009361,-25.403336,-14.934578,-1.918465,,,,,,,
1512177641.656781,-0.214873,0.612704,3.062022,-0.015642,0.001903,0.009590,-0.174437,-0.575081,-0.799283,-0.002351,0.005059,0.006772,-25.177475,-14.709251,-2.220268,,,,,,,
1512177641.676770,-0.214814,0.612426,3.062079,-0.012318,0.004061,0.002184,-0.174424,-0.574855,-0.799449,-0.000914,-0.000783,0.007197,-25.254059,-15.084358,-1.994820,,,,,,,
1512177641.696789,-0.214804,0.612089,3.062122,-0.015624,0.005109,0.008535,-0.174458,-0.574578,-0.799640,-0.003017,0.004312,0.003467,-25.103119,-14.859138,-2.145988,,,,,,,
1512177641.716778,-0.214912,0.611803,3.062450,-0.011524,-0.001313,0.018167,-0.174579,-0.574344,-0.799782,-0.000439,0.000186,0.003151,-25.326920,-14.634468,-1.768974,,,,,,,
1512177641.736768,-0.215061,0.611478,3.062658,-0.018834,0.002969,0.009549,-0.174738,-0.574078,-0.799938,-0.000830,0.002103,0.006710,-25.402664,-14.784584,-1.918404,,,,,,,
1512177641.756787,-0.215154,0.610867,3.062872,-0.031758,-0.004545,0.016796,-0.174887,-0.573578,-0.800264,-0.000361,0.001861,0.002413,-25.328339,-14.934471,-1.919106,,,,,,,
1512177641.776776,-0.215138,0.610365,3.062771,-0.018577,0.002998,-0.006440,-0.174936,-0.573166,-0.800548,-0.008337,0.007065,0.001125,-25.252594,-14.784355,-1.769676,,,,,,,
1512177641.796796,-0.214807,0.610115,3.062588,-0.011214,0.009407,0.000086,-0.174701,-0.572961,-0.800746,0.004306,-0.000952,0.004680,-25.176315,-14.484245,-1.920174,,,,,,,
1512177641.816785,-0.214731,0.609838,3.062637,-0.016702,0.002966,0.008509,-0.174674,-0.572735,-0.800914,0.003013,0.003933,0.007030,-25.252670,-14.784355,-1.919670,,,,,,,
1512177641.836804,-0.214783,0.609584,3.062728,-0.003864,-0.003418,0.005475,-0.174746,-0.572526,-0.801048,0.000705,-0.003096,0.004188,-25.179123,-15.084251,-2.145454,,,,,,,
1512177641.856793,-0.215111,0.609421,3.063003,-0.012593,-0.005587,0.018136,-0.175030,-0.572392,-0.801081,-0.001499,0.004079,0.006633,-25.328339,-14.934471,-1.919106,,,,,,,
1512177641.876782,-0.215195,0.609134,3.063170,-0.006977,0.000857,0.000113,-0.175132,-0.572157,-0.801227,-0.007165,-0.000536,0.002536,-25.477402,-14.709694,-2.067726,,,,,,,
1512177641.896802,-0.215069,0.609037,3.063000,-0.010102,0.006208,-0.003108,-0.175043,-0.572078,-0.801303,-0.000784,0.004008,0.009296,-25.478760,-15.009697,-2.067863,,,,,,,
1512177641.916791,-0.214892,0.608722,3.062935,-0.011177,0.006209,-0.002055,-0.174940,-0.571819,-0.801510,0.001646,0.000591,0.003689,-25.253372,-14.934364,-1.994743,,,,,,,
1512177641.936810,-0.214979,0.608738,3.062883,-0.000651,-0.008750,0.004438,-0.175007,-0.571833,-0.801486,0.007282,0.001581,0.005710,-25.476395,-14.484688,-2.067619,,,,,,,
1512177641.956786,-0.215200,0.608453,3.063112,-0.013519,0.004045,0.010696,-0.175219,-0.571599,-0.801607,-0.002897,-0.001094,-0.000182,-25.328262,-14.859474,-2.444069,,,,,,,
1512177641.976806,-0.215217,0.608269,3.063279,-0.012403,0.005120,0.007517,-0.175255,-0.571448,-0.801706,0.002892,0.003149,0.005854,-25.251694,-14.559349,-1.994576,,,,,,,
1512177641.996795,-0.215237,0.607892,3.063463,-0.014552,0.008317,0.008563,-0.175317,-0.571138,-0.801913,0.001260,0.002351,0.006046,-25.027740,-14.784019,-2.071587,,,,,,,
1512177642.016784,-0.215423,0.607736,3.063503,-0.005923,-0.014089,0.001146,-0.175485,-0.571010,-0.801968,-0.003928,0.004894,0.005032,-25.553497,-14.934807,-2.217186,,,,,,,
1512177642.036803,-0.215478,0.607576,3.063546,-0.012383,0.005116,0.005382,-0.175549,-0.570879,-0.802047,-0.002674,0.001344,0.007568,-25.402145,-14.634575,-2.218330,,,,,,,
1512177642.056792,-0.215432,0.607382,3.063488,-0.008991,-0.000194,-0.006313,-0.175536,-0.570720,-0.802163,-0.002885,0.003642,0.004754,-25.626465,-14.484917,-2.216347,,,,,,,
1512177642.076812,-0.215060,0.607110,3.063369,-0.017635,0.025414,0.002180,-0.175270,-0.570496,-0.802381,0.000710,0.002426,0.006742,-25.477814,-14.784691,-2.217766,,,,,,,
1512177642.096801,-0.214829,0.606776,3.063453,-0.014496,0.006183,0.004289,-0.175126,-0.570222,-0.802607,0.004212,0.000459,0.008005,-25.476425,-14.484688,-2.142632,,,,,,,
1512177642.116820,-0.214873,0.606382,3.063567,-0.016722,0.004037,0.010649,-0.175209,-0.569898,-0.802819,0.001259,0.005277,-0.000602,-25.327438,-14.709465,-2.144005,,,,,,,
1512177642.136809,-0.215089,0.606184,3.063753,-0.002817,-0.010893,0.006531,-0.175406,-0.569735,-0.802891,0.000510,0.004870,-0.002254,-25.251419,-14.484352,-2.144539,,,,,,,
1512177642.156798,-0.215288,0.606184,3.063823,0.003684,0.000882,0.001339,-0.175566,-0.569736,-0.802856,-0.001100,0.006320,0.001342,-25.401505,-14.484581,-2.293266,,,,,,,
1512177642.176818,-0.215448,0.606333,3.063972,0.007854,-0.013013,0.005612,-0.175677,-0.569858,-0.802745,0.001559,-0.000409,0.010280,-25.702408,-14.710030,-2.065819,,,,,,,
1512177642.196807,-0.215732,0.606197,3.064203,-0.016849,0.002953,0.018105,-0.175921,-0.569746,-0.802771,0.002459,0.003371,0.014944,-25.552444,-14.709801,-2.142097,,,,,,,
1512177642.216827,-0.215883,0.605521,3.064523,-0.024326,-0.004535,0.019038,-0.176124,-0.569191,-0.803120,-0.005715,-0.000099,0.005665,-25.779572,-15.160149,-2.365379,,,,,,,
1512177642.236816,-0.215978,0.605242,3.064547,-0.011263,0.004057,0.002197,-0.176235,-0.568961,-0.803259,-0.006306,0.004813,0.004095,-25.402100,-14.634575,-2.143333,,,,,,,
1512177642.256835,-0.215781,0.605081,3.064530,-0.006984,0.007268,0.001203,-0.176096,-0.568828,-0.803383,0.002070,-0.001179,0.005318,-25.478073,-14.859703,-2.067787,,,,,,,
1512177642.276824,-0.215753,0.604938,3.064566,-0.010243,0.002988,0.005408,-0.176091,-0.568711,-0.803467,0.000188,0.003358,0.000748,-25.175415,-14.259239,-2.145073,,,,,,,
1512177642.296813,-0.215673,0.604882,3.064631,0.003695,0.001948,0.000274,-0.176033,-0.568665,-0.803512,0.000664,0.002335,-0.002610,-25.326721,-14.559471,-2.068932,,,,,,,
1512177642.316833,-0.215730,0.605048,3.064572,0.009057,-0.000176,-0.001787,-0.176059,-0.568802,-0.803410,0.001331,0.010757,0.002430,-25.100861,-14.334129,-2.370735,,,,,,,
1512177642.336822,-0.215848,0.605398,3.064759,0.025930,-0.006580,0.009096,-0.176112,-0.569090,-0.803195,0.001567,0.001280,0.007067,-25.400864,-14.334572,-2.368187,,,,,,,
1512177642.356841,-0.216219,0.605736,3.065078,0.009916,-0.007679,0.009923,-0.176368,-0.569367,-0.802942,0.000236,0.000794,0.015069,-25.176682,-14.559242,-1.995201,,,,,,,
1512177642.376830,-0.216209,0.605592,3.065298,-0.011314,0.010465,0.006486,-0.176378,-0.569249,-0.803023,-0.004820,-0.002483,0.011413,-25.101395,-14.484123,-2.070808,,,,,,,
1512177642.396850,-0.215900,0.605303,3.065228,-0.017605,0.017942,0.000023,-0.176165,-0.569012,-0.803238,0.000369,0.000942,0.009522,-25.176315,-14.484245,-1.920174,,,,,,,
1512177642.416839,-0.215659,0.604825,3.065320,-0.021020,0.006162,0.012726,-0.176030,-0.568618,-0.803547,0.006489,-0.000398,-0.001263,-25.628754,-15.009926,-2.066582,,,,,,,
1512177642.436828,-0.215935,0.604731,3.065520,0.004637,-0.010886,0.006638,-0.176263,-0.568541,-0.803550,-0.000998,0.004423,-0.006249,-25.401535,-14.484581,-2.368263,,,,,,,
1512177642.456847,-0.216197,0.604942,3.065844,0.017359,-0.000189,0.012193,-0.176447,-0.568714,-0.803387,0.001551,-0.001033,-0.001759,-25.176468,-14.484245,-2.220177,,,,,,,
1512177642.476836,-0.216493,0.605402,3.066103,0.026099,-0.005495,-0.001561,-0.176629,-0.569093,-0.803079,-0.003760,-0.000197,0.006860,-25.176651,-14.559242,-1.920204,,,,,,,
1512177642.496856,-0.216475,0.605641,3.066164,0.005822,0.007295,0.001392,-0.176586,-0.569289,-0.802949,0.001415,-0.000749,0.016069,-25.475754,-14.334694,-2.142555,,,,,,,
1512177642.516845,-0.216497,0.605510,3.066155,-0.012266,-0.006618,-0.002119,-0.176619,-0.569181,-0.803018,-0.000963,0.002317,0.013666,-25.176346,-14.484245,-1.995171,,,,,,,
1512177642.536864,-0.216343,0.605212,3.065991,-0.013301,0.009406,-0.003144,-0.176532,-0.568936,-0.803211,-0.002118,-0.000095,0.004581,-25.177444,-14.709251,-2.145271,,,,,,,
1512177642.556853,-0.216244,0.605070,3.065932,-0.006938,-0.001265,-0.000954,-0.176470,-0.568820,-0.803307,0.003420,-0.000700,0.005257,-25.403564,-14.934578,-2.368462,,,,,,,
1512177642.576842,-0.216240,0.604852,3.065915,-0.010153,0.001932,0.000076,-0.176493,-0.568640,-0.803429,-0.001348,0.002310,-0.000297,-25.250641,-14.334358,-1.919472,,,,,,,
1512177642.596862,-0.216357,0.604957,3.065915,0.008014,-0.008715,-0.002895,-0.176574,-0.568726,-0.803350,0.004287,0.003114,0.002630,-25.176422,-14.484245,-2.145180,,,,,,,
1512177642.616851,-0.216580,0.604903,3.066085,-0.010345,-0.004505,0.010708,-0.176760,-0.568682,-0.803341,0.004153,0.001589,0.007976,-25.100677,-14.334129,-1.995735,,,,,,,
1512177642.636870,-0.216840,0.604744,3.066262,-0.002757,-0.009815,0.003339,-0.176988,-0.568552,-0.803383,-0.003600,0.004404,0.003273,-25.176727,-14.559242,-2.070198,,,,,,,
1512177642.656859,-0.216769,0.604695,3.066223,-0.002637,0.014764,-0.002971,-0.176938,-0.568511,-0.803423,-0.003467,0.003371,0.007692,-25.700455,-14.260033,-2.215599,,,,,,,
1512177642.676849,-0.216491,0.604558,3.066217,-0.008051,0.006197,0.001183,-0.176730,-0.568399,-0.803548,0.003833,-0.002112,0.010854,-25.176392,-14.484245,-2.070168,,,,,,,
1512177642.696868,-0.216424,0.604225,3.066266,-0.023103,0.006164,0.009496,-0.176718,-0.568124,-0.803745,-0.003901,0.000055,0.006549,-25.326996,-14.634468,-1.918968,,,,,,,
1512177642.716857,-0.216347,0.603960,3.066295,-0.001633,0.000873,0.000194,-0.176688,-0.567906,-0.803905,-0.005991,0.001821,-0.002812,-25.253448,-14.934364,-2.144737,,,,,,,
1512177642.736877,-0.216248,0.603898,3.066373,-0.006042,0.009389,0.008685,-0.176615,-0.567856,-0.803957,0.003352,0.005172,0.003237,-25.553421,-14.934807,-2.067192,,,,,,,
1512177642.756866,-0.216415,0.603874,3.066578,0.009975,-0.013008,0.006711,-0.176753,-0.567835,-0.803941,0.002818,0.003214,0.000032,-25.626984,-14.559914,-2.591377,,,,,,,
1512177642.776885,-0.216879,0.604245,3.066809,0.016379,-0.014062,0.006802,-0.177080,-0.568141,-0.803653,0.000399,0.002284,0.004093,-25.551834,-14.559807,-2.292030,,,,,,,
1512177642.796874,-0.217140,0.604348,3.067007,0.002537,-0.005540,0.005562,-0.177278,-0.568226,-0.803549,-0.003158,0.000889,0.009772,-25.251541,-14.484352,-2.369530,,,,,,,
1512177642.816863,-0.217173,0.604210,3.066948,-0.010129,0.001930,-0.002059,-0.177321,-0.568112,-0.803620,-0.004563,0.005902,0.008851,-25.176132,-14.409248,-2.220131,,,,,,,
1512177642.836883,-0.216862,0.604143,3.066800,0.003778,0.010499,-0.005028,-0.177079,-0.568057,-0.803713,0.002778,-0.000974,0.007830,-25.176758,-14.559242,-2.145210,,,,,,,
1512177642.856872,-0.216787,0.604103,3.066744,-0.011250,-0.001283,0.001112,-0.177024,-0.568024,-0.803748,0.000755,-0.000290,0.008323,-25.176422,-14.484245,-2.145180,,,,,,,
1512177642.876891,-0.216685,0.603746,3.066738,-0.015515,0.006192,0.002145,-0.176986,-0.567730,-0.803964,-0.004029,-0.000309,0.000436,-25.477173,-14.634697,-2.292702,,,,,,,
1512177642.896880,-0.216722,0.603694,3.066678,0.002671,-0.000188,-0.002948,-0.177022,-0.567687,-0.803987,-0.002788,0.002563,0.001206,-25.402328,-14.709587,-1.918373,,,,,,,
1512177642.916900,-0.216596,0.603642,3.066790,0.000383,0.012611,0.007726,-0.176926,-0.567645,-0.804038,0.005051,-0.001874,0.008444,-25.401733,-14.559578,-2.068291,,,,,,,
1512177642.936889,-0.216813,0.603536,3.067111,-0.011515,-0.006654,0.017081,-0.177114,-0.567557,-0.804058,0.005453,0.000464,0.010662,-25.477432,-14.709694,-2.142723,,,,,,,
1512177642.956855,-0.216990,0.603128,3.067422,-0.015720,0.006162,0.013865,-0.177306,-0.567222,-0.804253,-0.003251,0.001121,0.002678,-25.625412,-14.259911,-2.141243,,,,,,,
1512177642.976874,-0.216918,0.602912,3.067427,-0.010111,0.008339,-0.003103,-0.177275,-0.567044,-0.804385,-0.004716,0.001919,0.000842,-25.401459,-14.484581,-2.218254,,,,,,,
1512177642.996863,-0.216444,0.602653,3.067268,-0.013251,0.025427,-0.006290,-0.176925,-0.566830,-0.804612,-0.001190,0.003903,0.002595,-25.550446,-14.259804,-2.216881,,,,,,,
1512177643.016883,-0.216200,0.602697,3.067073,-0.000438,-0.005521,-0.008341,-0.176724,-0.566866,-0.804631,0.005123,-0.000212,0.006856,-25.551086,-14.409798,-2.141960,,,,,,,
1512177643.036872,-0.216287,0.602600,3.067035,-0.009183,-0.000217,0.005411,-0.176805,-0.566786,-0.804670,0.005251,0.001662,0.004209,-25.400757,-14.334572,-2.143196,,,,,,,
1512177643.056891,-0.216500,0.602547,3.067210,0.005740,-0.008743,0.004529,-0.176983,-0.566743,-0.804661,-0.003269,0.000169,-0.000805,-25.475449,-14.259697,-2.217522,,,,,,,
1512177643.076880,-0.216670,0.602632,3.067402,0.005700,0.004071,0.007772,-0.177109,-0.566813,-0.804584,-0.001037,0.003886,0.004504,-25.475449,-14.259697,-2.217522,,,,,,,
1512177643.096869,-0.216919,0.602870,3.067652,0.016366,-0.017279,0.005717,-0.177281,-0.567009,-0.804408,0.002781,0.002129,0.005366,-25.328415,-14.934471,-2.069099,,,,,,,
1512177643.116889,-0.217213,0.603031,3.067813,0.001392,-0.004488,0.009811,-0.177498,-0.567141,-0.804267,-0.001442,0.004443,0.008567,-25.402145,-14.634575,-2.218330,,,,,,,
1512177643.136878,-0.217273,0.602975,3.067898,0.001616,-0.001251,-0.002964,-0.177553,-0.567095,-0.804287,-0.008680,0.001467,0.006756,-25.326431,-14.484474,-2.143898,,,,,,,
1512177643.156898,-0.217014,0.602923,3.067622,-0.011101,0.011552,-0.007370,-0.177351,-0.567053,-0.804362,-0.000109,0.006308,0.007471,-25.327103,-14.634468,-2.143974,,,,,,,
1512177643.176887,-0.216713,0.602716,3.067543,-0.009136,0.004057,0.002226,-0.177134,-0.566882,-0.804530,0.005320,-0.000440,0.005518,-25.177780,-14.784248,-2.145317,,,,,,,
1512177643.196906,-0.216775,0.602604,3.067567,-0.004945,0.000851,0.006540,-0.177197,-0.566789,-0.804581,0.001538,0.003633,0.001145,-25.401993,-14.634575,-1.918327,,,,,,,
1512177643.216895,-0.216898,0.602613,3.067801,0.012086,-0.003399,0.007838,-0.177295,-0.566797,-0.804554,-0.000500,0.000468,-0.001843,-25.402557,-14.709587,-2.368370,,,,,,,
1512177643.236884,-0.216991,0.602878,3.067930,0.008972,0.005154,0.003560,-0.177338,-0.567015,-0.804391,-0.001373,0.004317,0.009667,-25.477066,-14.634697,-2.067696,,,,,,,
1512177643.256904,-0.216995,0.602705,3.068154,-0.012486,-0.001309,0.010685,-0.177362,-0.566873,-0.804486,0.001352,-0.002417,0.008572,-25.104019,-15.084129,-1.921089,,,,,,,
1512177643.276893,-0.217024,0.602551,3.068099,-0.006919,-0.000201,-0.003087,-0.177404,-0.566746,-0.804566,-0.002680,0.003575,0.003983,-25.402359,-14.709587,-1.993370,,,,,,,
1512177643.296912,-0.216832,0.602293,3.068057,-0.010246,0.006190,0.005418,-0.177281,-0.566533,-0.804743,-0.000377,0.004583,0.004923,-25.552475,-14.709801,-2.217094,,,,,,,
1512177643.316901,-0.216964,0.601999,3.068250,-0.017935,-0.001324,0.019140,-0.177423,-0.566292,-0.804882,0.007227,0.000419,0.011257,-25.326431,-14.484474,-2.143898,,,,,,,
1512177643.336921,-0.217232,0.601278,3.068838,-0.034234,0.003948,0.037041,-0.177727,-0.565696,-0.805233,0.000755,0.000068,0.008587,-25.251419,-14.484352,-2.144539,,,,,,,
1512177643.356910,-0.217564,0.600562,3.069407,-0.028679,0.003989,0.024333,-0.178081,-0.565106,-0.805569,-0.008366,0.002164,0.006100,-25.252213,-14.634346,-2.369606,,,,,,,
1512177643.376899,-0.217322,0.599945,3.069706,-0.027407,0.027512,0.012705,-0.177962,-0.564597,-0.805952,-0.007249,0.002158,0.005766,-25.175339,-14.259239,-1.995064,,,,,,,
1512177643.396918,-0.216886,0.599452,3.069698,-0.026207,0.021121,0.004172,-0.177670,-0.564190,-0.806301,-0.001987,0.002225,0.009610,-25.476837,-14.559700,-2.292656,,,,,,,
1512177643.416907,-0.216533,0.598873,3.069785,-0.022085,0.016839,0.012745,-0.177456,-0.563712,-0.806683,0.001857,0.001532,-0.000903,-25.553528,-14.934807,-2.292198,,,,,,,
1512177643.436927,-0.216590,0.598738,3.069959,0.001476,-0.004479,0.004481,-0.177518,-0.563601,-0.806747,0.004117,0.000689,-0.000793,-25.701721,-14.560036,-2.065742,,,,,,,
1512177643.456916,-0.216801,0.598700,3.070178,-0.002852,-0.001287,0.008695,-0.177693,-0.563569,-0.806731,0.001118,0.000169,-0.000139,-25.476807,-14.559700,-2.217659,,,,,,,
1512177643.476935,-0.217070,0.598853,3.070291,0.011225,-0.014056,-0.005004,-0.177891,-0.563696,-0.806599,-0.004116,0.001745,0.003788,-25.475708,-14.334694,-2.067558,,,,,,,
1512177643.496924,-0.217016,0.599026,3.070209,0.003726,0.008357,-0.001837,-0.177827,-0.563838,-0.806513,0.002244,-0.000325,0.013789,-25.623947,-13.959908,-1.916115,,,,,,,
1512177643.516913,-0.217018,0.598972,3.070224,-0.005885,-0.006616,-0.002030,-0.177835,-0.563794,-0.806543,-0.000373,0.001339,0.010370,-25.476059,-14.409691,-2.067589,,,,,,,
1512177643.536933,-0.216874,0.598802,3.070046,-0.015402,0.011547,-0.004230,-0.177740,-0.563653,-0.806662,-0.003779,0.001459,0.003851,-25.249329,-14.034355,-1.994331,,,,,,,
1512177643.556922,-0.216644,0.598541,3.069919,-0.012181,0.001933,-0.007421,-0.177585,-0.563438,-0.806846,-0.001187,-0.000695,0.000434,-25.553146,-14.859810,-2.217155,,,,,,,
1512177643.576941,-0.216383,0.598361,3.069776,-0.014437,0.010464,0.001107,-0.177397,-0.563289,-0.806992,0.003721,0.007213,0.001404,-25.176727,-14.559242,-2.070198,,,,,,,
1512177643.596930,-0.216467,0.598237,3.069879,-0.000702,-0.010892,0.007628,-0.177480,-0.563187,-0.807045,0.004247,0.002960,0.004616,-25.176422,-14.484245,-2.145180,,,,,,,
1512177643.616950,-0.216755,0.598250,3.070075,0.004647,0.001933,0.006683,-0.177710,-0.563198,-0.806986,-0.004739,0.006389,0.001246,-25.626984,-14.634911,-1.916420,,,,,,,
1512177643.636939,-0.216770,0.598411,3.070287,0.008941,-0.000187,0.005675,-0.177703,-0.563330,-0.806895,-0.001680,-0.001306,0.007777,-25.252365,-14.709358,-1.994637,,,,,,,
1512177643.656928,-0.216693,0.598411,3.070242,-0.001603,0.006214,-0.001921,-0.177641,-0.563331,-0.806909,-0.002688,0.002112,0.005838,-25.103561,-14.934135,-2.371025,,,,,,,
1512177643.676948,-0.216525,0.598377,3.070124,0.000543,0.000879,-0.002975,-0.177509,-0.563302,-0.806958,0.004521,0.000146,0.004772,-25.252289,-14.634346,-2.519600,,,,,,,
1512177643.696937,-0.216583,0.598321,3.070059,-0.003742,-0.001268,-0.001979,-0.177563,-0.563256,-0.806978,-0.000324,0.002526,0.005937,-25.175751,-14.334236,-2.145103,,,,,,,
1512177643.716956,-0.216609,0.598272,3.070125,-0.001761,-0.003415,0.007639,-0.177590,-0.563215,-0.807001,0.003869,-0.002871,0.004312,-25.401993,-14.634575,-1.918327,,,,,,,
1512177643.736945,-0.216871,0.598173,3.070272,-0.003905,-0.004493,0.007601,-0.177813,-0.563134,-0.807008,-0.005125,0.001442,0.001985,-25.402328,-14.709587,-1.918373,,,,,,,
1512177643.756934,-0.216797,0.598186,3.070335,0.007925,0.005155,0.002479,-0.177752,-0.563145,-0.807014,-0.002759,0.001209,0.002037,-25.325378,-14.259468,-2.068794,,,,,,,
1512177643.776954,-0.216861,0.598245,3.070332,-0.004871,-0.004477,0.002260,-0.177797,-0.563194,-0.806970,0.004197,0.000983,0.012323,-25.176758,-14.559242,-2.145210,,,,,,,
1512177643.796943,-0.216884,0.597878,3.070399,-0.017750,-0.000237,0.007418,-0.177859,-0.562890,-0.807168,0.000934,-0.003455,0.006860,-25.399368,-14.034569,-2.068047,,,,,,,
1512177643.816962,-0.216991,0.597556,3.070443,-0.014456,0.001918,0.002144,-0.177985,-0.562623,-0.807326,-0.004465,0.005311,0.002074,-25.175110,-14.184242,-2.220039,,,,,,,
1512177643.836951,-0.216727,0.597383,3.070482,0.000441,0.017952,0.003477,-0.177793,-0.562480,-0.807468,-0.002017,0.003215,0.004459,-25.399734,-14.109581,-2.143089,,,,,,,
1512177643.856971,-0.216640,0.597486,3.070573,0.000430,0.005133,0.003432,-0.177710,-0.562566,-0.807427,0.001944,-0.001109,0.010796,-25.400375,-14.259575,-2.068153,,,,,,,
1512177643.876960,-0.216589,0.597100,3.070749,-0.026357,0.008286,0.012653,-0.177715,-0.562247,-0.807648,0.002010,-0.002145,0.007126,-25.175110,-14.184242,-2.220039,,,,,,,
1512177643.896949,-0.216634,0.596710,3.070618,-0.013159,-0.008736,-0.012801,-0.177799,-0.561924,-0.807854,-0.005505,0.005619,-0.005928,-25.475708,-14.334694,-2.067558,,,,,,,
1512177643.916968,-0.216514,0.596848,3.070428,0.017668,0.007321,-0.006969,-0.177685,-0.562038,-0.807800,0.003384,0.001583,-0.004868,-25.250458,-14.259346,-2.219429,,,,,,,
1512177643.936957,-0.216852,0.597338,3.070622,0.018485,-0.022614,0.006798,-0.177899,-0.562444,-0.807470,0.008740,-0.005611,0.010214,-25.252518,-14.709358,-2.294640,,,,,,,
1512177643.956954,-0.217445,0.597312,3.070992,-0.004055,-0.011989,0.016101,-0.178381,-0.562422,-0.807379,-0.004831,0.001692,0.003821,-24.952209,-14.633904,-2.372154,,,,,,,
1512177643.976943,-0.217627,0.597334,3.071141,0.008031,-0.001246,-0.005007,-0.178525,-0.562440,-0.807335,-0.008639,0.005357,0.006889,-25.176208,-14.409248,-2.370140,,,,,,,
1512177643.996962,-0.217302,0.597323,3.070865,-0.011028,0.012630,-0.011629,-0.178264,-0.562431,-0.807399,0.002193,0.008751,0.014674,-25.403183,-14.859581,-2.293434,,,,,,,
1512177644.016951,-0.217135,0.597196,3.070733,-0.008075,-0.004486,0.002212,-0.178144,-0.562326,-0.807498,0.007505,0.005014,0.010226,-25.323837,-13.884468,-2.368614,,,,,,,
1512177644.036940,-0.217214,0.596819,3.070806,-0.023090,0.004027,0.008422,-0.178254,-0.562014,-0.807691,-0.002776,0.007388,0.004423,-25.399734,-14.109581,-2.143089,,,,,,,
1512177644.056960,-0.217099,0.596498,3.070812,-0.007999,0.004068,-0.002021,-0.178200,-0.561749,-0.807888,-0.002724,0.003964,-0.001957,-25.176544,-14.484245,-2.370171,,,,,,,
1512177644.076949,-0.216887,0.596484,3.070726,-0.000589,0.012616,0.001313,-0.178030,-0.561737,-0.807933,0.002402,0.004196,0.002543,-25.400223,-14.184578,-2.443123,,,,,,,
1512177644.096969,-0.216993,0.596392,3.071002,-0.003026,-0.010918,0.019321,-0.178127,-0.561661,-0.807965,0.007762,-0.004196,0.009228,-25.626465,-14.484917,-2.216347,,,,,,,
1512177644.116958,-0.217621,0.596072,3.071405,-0.017957,-0.018420,0.019078,-0.178673,-0.561397,-0.808028,-0.006477,0.001155,0.003462,-25.551498,-14.484810,-2.291985,,,,,,,
1512177644.136977,-0.217875,0.595811,3.071587,-0.000628,-0.008753,0.002303,-0.178910,-0.561180,-0.808126,-0.012435,0.000725,-0.005549,-25.100830,-14.334129,-2.295738,,,,,,,
1512177644.156966,-0.217749,0.596090,3.071326,0.015699,0.004135,-0.016601,-0.178774,-0.561411,-0.807995,-0.005186,0.000193,0.005887,-25.476837,-14.559700,-2.292656,,,,,,,
1512177644.176955,-0.217589,0.596294,3.071205,0.004767,-0.004461,-0.000800,-0.178621,-0.561580,-0.807912,0.006502,-0.001363,0.012075,-25.326172,-14.409462,-2.293861,,,,,,,
1512177644.196975,-0.217855,0.596359,3.071183,-0.000591,-0.011951,0.000161,-0.178828,-0.561633,-0.807829,0.002573,0.002597,0.011931,-25.326431,-14.484474,-2.143898,,,,,,,
1512177644.216964,-0.217921,0.596256,3.071273,-0.001707,0.002999,0.004463,-0.178894,-0.561548,-0.807873,0.003174,-0.000646,0.009061,-25.627213,-14.634911,-2.366417,,,,,,,
1512177644.236983,-0.217911,0.596218,3.071290,-0.003758,0.006205,-0.000888,-0.178890,-0.561517,-0.807896,0.001720,-0.000434,0.008092,-25.251770,-14.559349,-2.144569,,,,,,,
1512177644.256972,-0.217727,0.595964,3.071384,-0.014575,0.010448,0.009634,-0.178772,-0.561307,-0.808068,0.001587,-0.001376,0.008981,-25.402176,-14.634575,-2.293327,,,,,,,
1512177644.276992,-0.217706,0.595745,3.071486,-0.009219,0.004042,0.006486,-0.178782,-0.561126,-0.808192,-0.000967,0.002120,0.001765,-25.401505,-14.484581,-2.293266,,,,,,,
1512177644.296981,-0.217628,0.595401,3.071672,-0.014646,0.009364,0.012823,-0.178760,-0.560841,-0.808394,0.000553,0.003315,-0.003358,-25.253571,-14.934364,-2.369743,,,,,,,
1512177644.316970,-0.217769,0.595454,3.071790,0.011177,-0.008721,-0.001788,-0.178868,-0.560885,-0.808340,-0.002987,0.008974,-0.004679,-25.327179,-14.634468,-2.293968,,,,,,,
1512177644.336989,-0.217934,0.595757,3.071936,0.017455,-0.003384,0.005785,-0.178965,-0.561135,-0.808145,0.003062,0.008706,0.004465,-25.551880,-14.559807,-2.367027,,,,,,,
1512177644.356978,-0.218193,0.596153,3.072050,0.020830,-0.010839,-0.005921,-0.179126,-0.561463,-0.807882,-0.004941,0.005601,0.012349,-25.175446,-14.259239,-2.220070,,,,,,,
1512177644.376998,-0.218115,0.596328,3.071975,0.002715,0.009431,-0.005046,-0.179041,-0.561608,-0.807799,-0.000890,-0.000602,0.013305,-25.176544,-14.484245,-2.370171,,,,,,,
1512177644.396987,-0.217953,0.596291,3.071848,-0.006884,-0.000197,-0.005218,-0.178915,-0.561577,-0.807849,0.000189,-0.002830,0.014346,-25.325409,-14.259468,-2.143791,,,,,,,
1512177644.417006,-0.217805,0.595828,3.071829,-0.029510,0.009351,0.009411,-0.178852,-0.561194,-0.808129,-0.002422,-0.000024,0.005578,-25.100418,-14.259132,-2.145714,,,,,,,
1512177644.436995,-0.217808,0.595383,3.071928,-0.016664,-0.001307,0.005294,-0.178908,-0.560826,-0.808372,-0.003465,-0.002315,-0.002236,-25.026123,-14.409019,-2.221413,,,,,,,
1512177644.456984,-0.217858,0.595006,3.071989,-0.022012,0.000825,0.007360,-0.178994,-0.560514,-0.808569,-0.001899,0.001523,-0.003473,-25.176392,-14.484245,-2.070168,,,,,,,
1512177644.477004,-0.217894,0.595001,3.071851,0.014597,-0.006556,-0.015591,-0.179024,-0.560509,-0.808566,-0.007393,0.006890,-0.008435,-25.401428,-14.484581,-2.143257,,,,,,,
1512177644.496993,-0.217768,0.595600,3.071665,0.027296,0.004136,-0.008972,-0.178849,-0.561005,-0.808261,0.008012,0.005890,0.008563,-25.401733,-14.559578,-2.068291,,,,,,,
1512177644.517012,-0.217982,0.596096,3.071728,0.019698,-0.021531,-0.002778,-0.178962,-0.561416,-0.807950,0.006492,0.001632,0.018690,-25.401733,-14.559578,-2.068291,,,,,,,
1512177644.537001,-0.218309,0.596321,3.071736,0.004693,-0.004471,0.003462,-0.179199,-0.561602,-0.807768,-0.002014,0.001574,0.016661,-25.327133,-14.634468,-2.218971,,,,,,,
1512177644.557021,-0.218342,0.596172,3.071869,-0.008133,-0.000224,0.005422,-0.179243,-0.561479,-0.807844,-0.001924,-0.000243,0.013823,-25.402435,-14.709587,-2.143364,,,,,,,
1512177644.577010,-0.218205,0.595741,3.071891,-0.028413,0.011497,0.008371,-0.179186,-0.561123,-0.808105,0.000047,0.001613,0.009002,-25.624512,-14.034920,-2.366142,,,,,,,
1512177644.596999,-0.217968,0.595194,3.071814,-0.022942,0.004041,-0.001173,-0.179060,-0.560669,-0.808447,-0.001070,0.000214,-0.005045,-25.401169,-14.409584,-2.293236,,,,,,,
1512177644.617019,-0.217765,0.594992,3.071699,-0.010170,0.010472,0.001170,-0.178921,-0.560502,-0.808594,-0.001438,0.005662,-0.006607,-25.400345,-14.259575,-1.993156,,,,,,,
1512177644.637008,-0.217608,0.595007,3.071775,0.007920,0.003017,0.002471,-0.178792,-0.560515,-0.808614,0.006413,0.002745,-0.001826,-25.250488,-14.259346,-2.294441,,,,,,,
1512177644.657027,-0.217802,0.595245,3.071902,0.013166,-0.005532,0.006780,-0.178920,-0.560712,-0.808449,0.004268,0.007566,0.003090,-25.401535,-14.484581,-2.368263,,,,,,,
1512177644.677016,-0.217960,0.595542,3.072222,0.028049,0.003026,0.009155,-0.179011,-0.560957,-0.808258,-0.001225,0.007567,0.001587,-25.326767,-14.559471,-2.143929,,,,,,,
1512177644.697036,-0.217977,0.596120,3.072572,0.029133,0.017986,0.009224,-0.178955,-0.561436,-0.807938,-0.003235,0.002140,0.016816,-25.401535,-14.484581,-2.368263,,,,,,,
1512177644.717025,-0.217771,0.596285,3.072889,0.004643,0.011548,0.007784,-0.178769,-0.561573,-0.807885,-0.009204,-0.004788,0.013497,-25.399399,-14.034569,-2.143059,,,,,,,
1512177644.737014,-0.217496,0.596321,3.072688,-0.003572,0.010503,-0.011529,-0.178543,-0.561602,-0.807914,-0.007874,0.001116,0.006248,-25.401352,-14.484581,-1.993263,,,,,,,
1512177644.757033,-0.217056,0.596221,3.072545,-0.001582,0.015828,-0.002954,-0.178199,-0.561520,-0.808047,0.001685,-0.000401,-0.003446,-25.326019,-14.409462,-1.993858,,,,,,,
1512177644.777022,-0.217109,0.596337,3.072540,0.005854,-0.011936,-0.002944,-0.178228,-0.561616,-0.807974,0.002233,-0.002990,-0.004724,-25.551758,-14.559807,-2.142021,,,,,,,
1512177644.797042,-0.217502,0.596645,3.072622,0.023935,-0.017254,-0.000569,-0.178508,-0.561871,-0.807735,-0.000157,0.002880,-0.005986,-25.025528,-14.259010,-2.371346,,,,,,,
1512177644.817031,-0.217961,0.597475,3.072762,0.048484,-0.012941,-0.002331,-0.178777,-0.562556,-0.807198,0.002325,0.002559,0.008370,-25.175446,-14.259239,-2.220070,,,,,,,
1512177644.837050,-0.218254,0.598098,3.073048,0.022713,-0.006595,0.009044,-0.178938,-0.563071,-0.806803,0.006163,-0.002831,0.022639,-25.625748,-14.334923,-2.141273,,,,,,,
1512177644.857039,-0.218528,0.598264,3.073159,0.003711,-0.006599,-0.001890,-0.179139,-0.563209,-0.806662,-0.004806,-0.000496,0.019156,-25.025787,-14.334023,-2.221382,,,,,,,
1512177644.877028,-0.218307,0.597996,3.073260,-0.019928,0.021119,0.011727,-0.178993,-0.562987,-0.806850,-0.002403,-0.003373,0.012325,-25.624283,-14.034920,-1.916145,,,,,,,
1512177644.897048,-0.218082,0.597485,3.073308,-0.026201,0.009372,0.003064,-0.178874,-0.562565,-0.807170,-0.001881,0.000874,0.002193,-25.475754,-14.334694,-2.142555,,,,,,,
1512177644.917037,-0.217748,0.597090,3.073148,-0.014362,0.015806,-0.004208,-0.178653,-0.562238,-0.807447,0.001910,0.004224,-0.005022,-25.172684,-13.659233,-2.069786,,,,,,,
1512177644.937056,-0.217684,0.597165,3.073128,0.006871,-0.003397,0.000298,-0.178592,-0.562301,-0.807417,0.009097,-0.000108,-0.000307,-25.250412,-14.259346,-2.144432,,,,,,,
1512177644.957018,-0.217909,0.597151,3.073410,-0.005089,-0.002371,0.015055,-0.178775,-0.562289,-0.807385,0.007526,0.005969,0.002560,-25.402512,-14.709587,-2.293373,,,,,,,
1512177644.977038,-0.218249,0.597254,3.073809,0.014138,-0.007680,0.012115,-0.179037,-0.562374,-0.807268,-0.000757,0.005550,0.003526,-25.475082,-14.184700,-2.142479,,,,,,,
1512177644.997027,-0.218272,0.597471,3.074047,0.010045,0.014769,0.003609,-0.179029,-0.562554,-0.807144,-0.002596,0.005226,0.011658,-25.400421,-14.259575,-2.143166,,,,,,,
1512177645.017016,-0.218085,0.597478,3.074186,-0.004914,0.005124,0.004421,-0.178878,-0.562559,-0.807174,-0.000337,0.000349,0.012939,-25.400421,-14.259575,-2.143166,,,,,,,
1512177645.037036,-0.218100,0.597143,3.074320,-0.019989,0.005085,0.013798,-0.178930,-0.562282,-0.807355,-0.008432,0.002773,0.003980,-25.400528,-14.259575,-2.368156,,,,,,,
1512177645.057025,-0.218077,0.596896,3.074403,-0.004788,-0.001266,-0.003059,-0.178942,-0.562078,-0.807495,-0.011244,-0.001323,-0.002029,-25.399323,-14.034569,-1.993050,,,,,,,
1512177645.077044,-0.217973,0.596791,3.074276,-0.013366,0.008326,0.000046,-0.178871,-0.561991,-0.807571,-0.001687,0.004435,0.005279,-25.476166,-14.409691,-2.292595,,,,,,,
1512177645.097033,-0.217999,0.596521,3.074381,-0.010314,-0.009842,0.008558,-0.178924,-0.561767,-0.807715,0.005981,-0.002121,0.002371,-25.325043,-14.184471,-2.068764,,,,,,,
1512177645.117022,-0.218368,0.596486,3.074491,0.003581,-0.010889,0.005554,-0.179227,-0.561739,-0.807668,-0.002215,0.002733,0.000249,-25.175369,-14.259239,-2.070061,,,,,,,
1512177645.137042,-0.218536,0.596791,3.074621,0.025030,-0.001227,-0.001563,-0.179325,-0.561991,-0.807470,-0.002682,-0.001181,0.004660,-24.950455,-14.258904,-2.221977,,,,,,,
1512177645.157031,-0.218543,0.597206,3.074686,0.014353,0.008364,-0.000620,-0.179280,-0.562334,-0.807241,-0.000209,0.002306,0.014700,-25.175308,-14.259239,-1.920067,,,,,,,
1512177645.177050,-0.218393,0.597337,3.074706,0.001545,0.000868,0.000235,-0.179143,-0.562443,-0.807196,0.004567,-0.002209,0.012534,-25.249252,-14.034355,-1.844322,,,,,,,
1512177645.197039,-0.218417,0.597234,3.074683,-0.012341,0.000845,0.002167,-0.179175,-0.562358,-0.807248,-0.002908,0.001612,0.009061,-25.403793,-15.009575,-2.143501,,,,,,,
1512177645.217059,-0.218233,0.596912,3.074741,-0.012426,0.012581,0.007536,-0.179065,-0.562091,-0.807458,-0.000485,0.003314,0.003472,-25.100708,-14.334129,-2.070732,,,,,,,
1512177645.237048,-0.218180,0.596714,3.074805,-0.010251,0.006187,0.005416,-0.179047,-0.561928,-0.807576,0.002366,0.002174,0.007039,-25.025421,-14.259010,-2.146339,,,,,,,
1512177645.257037,-0.218103,0.596415,3.074921,-0.012425,0.005108,0.007511,-0.179021,-0.561680,-0.807754,0.001958,0.000477,0.000641,-25.175110,-14.184242,-2.220039,,,,,,,
1512177645.277056,-0.218148,0.596349,3.074927,-0.002735,-0.002344,0.001229,-0.179066,-0.561625,-0.807782,-0.001461,0.002116,0.003781,-25.250305,-14.259346,-1.919441,,,,,,,
1512177645.297045,-0.218118,0.596160,3.074980,-0.007047,0.005120,0.004390,-0.179064,-0.561469,-0.807891,0.000735,-0.000222,0.003921,-25.476501,-14.484688,-2.292625,,,,,,,
1512177645.317065,-0.218222,0.596050,3.075041,-0.005945,-0.005558,0.001168,-0.179162,-0.561378,-0.807932,-0.001075,0.003837,0.001505,-25.550308,-14.259804,-1.916878,,,,,,,
1512177645.337054,-0.218090,0.596060,3.075006,0.004748,0.010486,0.000315,-0.179054,-0.561386,-0.807951,-0.004341,0.003845,0.000746,-25.549622,-14.109810,-1.916817,,,,,,,
1512177645.357073,-0.218028,0.596272,3.075031,0.012245,0.000892,-0.001740,-0.178978,-0.561562,-0.807846,-0.001290,0.000847,0.002624,-25.549698,-14.109810,-2.066811,,,,,,,
1512177645.377062,-0.218045,0.596389,3.075144,0.003576,0.001929,0.006666,-0.178977,-0.561658,-0.807779,0.002738,-0.002490,0.010660,-25.176086,-14.409248,-2.145134,,,,,,,
1512177645.397051,-0.218268,0.596335,3.075290,-0.002762,-0.009825,0.002268,-0.179164,-0.561614,-0.807768,-0.004811,0.003081,0.006636,-25.324966,-14.184471,-1.918770,,,,,,,
1512177645.417071,-0.218275,0.596181,3.075322,-0.009176,0.009390,0.004374,-0.179189,-0.561486,-0.807852,-0.000713,-0.001212,0.010671,-25.401428,-14.484581,-2.143257,,,,,,,
1512177645.437060,-0.218252,0.595834,3.075336,-0.019797,-0.003442,0.000976,-0.179213,-0.561199,-0.808046,0.000090,-0.003682,0.008195,-25.250229,-14.259346,-1.769432,,,,,,,
1512177645.457079,-0.218170,0.595446,3.075212,-0.018647,0.001922,-0.002180,-0.179193,-0.560878,-0.808273,-0.002432,0.001888,-0.003785,-25.249817,-14.109352,-2.294365,,,,,,,
1512177645.477068,-0.218053,0.595556,3.075067,0.014486,0.001971,-0.009170,-0.179085,-0.560970,-0.808233,0.001808,-0.001683,-0.000833,-25.400375,-14.259575,-2.068153,,,,,,,
1512177645.497088,-0.218014,0.595746,3.075145,0.005721,0.005135,0.005640,-0.179030,-0.561126,-0.808137,0.008651,0.000884,0.010148,-25.027435,-14.709023,-2.146553,,,,,,,
1512177645.517077,-0.218250,0.595773,3.075445,-0.000791,-0.011978,0.011883,-0.179218,-0.561149,-0.808079,0.005908,-0.002022,0.010274,-25.399963,-14.184578,-1.918129,,,,,,,
1512177645.537066,-0.218511,0.595520,3.075767,-0.016848,0.002946,0.017034,-0.179460,-0.560940,-0.808171,-0.001830,0.004116,0.006596,-25.177475,-14.709251,-2.220268,,,,,,,
1512177645.557086,-0.218467,0.595327,3.075970,-0.000647,0.009403,0.004498,-0.179448,-0.560779,-0.808285,-0.007152,0.004200,0.002728,-25.475708,-14.334694,-2.067558,,,,,,,
1512177645.577075,-0.218121,0.595372,3.075949,-0.000586,0.019024,0.001335,-0.179162,-0.560817,-0.808322,0.001992,0.002040,0.008517,-25.175034,-14.184242,-2.070030,,,,,,,
1512177645.597094,-0.218085,0.595286,3.076106,-0.007130,-0.005573,0.008615,-0.179144,-0.560745,-0.808376,0.003286,-0.000946,0.002498,-25.173279,-13.809242,-1.919868,,,,,,,
1512177645.617083,-0.218291,0.595127,3.076238,-0.008182,-0.003432,0.008610,-0.179330,-0.560614,-0.808426,-0.005454,0.004065,-0.004166,-24.950333,-14.258904,-1.996986,,,,,,,
1512177645.637103,-0.218427,0.595178,3.076405,0.013229,-0.001257,0.002529,-0.179433,-0.560656,-0.808374,-0.006373,-0.000059,-0.001074,-25.324402,-14.034462,-2.143684,,,,,,,
1512177645.657092,-0.218569,0.595397,3.076522,0.007852,-0.002337,0.005646,-0.179522,-0.560838,-0.808228,-0.000578,0.004502,0.008133,-25.399368,-14.034569,-2.068047,,,,,,,
1512177645.677081,-0.218771,0.595488,3.076715,0.005718,-0.008747,0.005594,-0.179674,-0.560912,-0.808142,-0.000944,-0.001298,0.010718,-25.550079,-14.184807,-2.141853,,,,,,,
1512177645.697100,-0.218851,0.595514,3.076656,0.000598,0.005150,-0.007228,-0.179735,-0.560935,-0.808113,-0.007674,0.002631,0.007408,-25.401321,-14.484581,-1.918266,,,,,,,
1512177645.717089,-0.218471,0.595528,3.076387,0.000695,0.010504,-0.012537,-0.179426,-0.560946,-0.808174,-0.002825,0.000948,0.005852,-25.402359,-14.709587,-1.993370,,,,,,,
1512177645.737109,-0.218132,0.595582,3.076062,-0.004673,0.009422,-0.010487,-0.179146,-0.560990,-0.808205,0.001747,0.003922,0.006936,-25.176270,-14.484245,-1.845177,,,,,,,
1512177645.757098,-0.217929,0.595454,3.075947,-0.003770,-0.000208,-0.000912,-0.178997,-0.560885,-0.808312,0.004330,-0.001539,0.004402,-25.403534,-14.934578,-2.293465,,,,,,,
1512177645.777117,-0.218064,0.595586,3.075973,0.006801,-0.004473,0.004557,-0.179090,-0.560994,-0.808215,0.005400,0.001256,0.004077,-25.251648,-14.559349,-1.919579,,,,,,,
1512177645.797106,-0.218121,0.595500,3.076233,0.000289,0.006183,0.011962,-0.179147,-0.560923,-0.808252,0.002023,-0.001012,0.004785,-25.401169,-14.409584,-2.293236,,,,,,,
1512177645.817095,-0.218183,0.595539,3.076362,0.001505,-0.000207,0.002362,-0.179193,-0.560955,-0.808219,-0.002311,0.004131,0.004692,-25.626541,-14.484917,-2.366341,,,,,,,
1512177645.837115,-0.218022,0.595595,3.076395,0.003675,0.008345,0.000290,-0.179055,-0.561002,-0.808218,0.002145,0.000760,0.007436,-25.401428,-14.484581,-2.143257,,,,,,,
1512177645.857104,-0.218040,0.595515,3.076367,-0.012375,-0.005572,0.003207,-0.179079,-0.560935,-0.808258,0.004793,-0.000527,0.010681,-25.703522,-14.935036,-2.290916,,,,,,,
1512177645.877123,-0.218078,0.595120,3.076527,-0.016799,0.002950,0.013836,-0.179158,-0.560608,-0.808468,-0.001781,-0.000350,-0.000416,-25.026169,-14.409019,-2.296410,,,,,,,
1512177645.897112,-0.218181,0.595118,3.076581,0.010160,-0.001244,-0.004977,-0.179242,-0.560606,-0.808451,-0.005039,-0.000093,-0.004874,-25.400528,-14.259575,-2.368156,,,,,,,
1512177645.917132,-0.218052,0.595411,3.076603,0.013264,0.008364,0.001499,-0.179102,-0.560849,-0.808313,0.002665,-0.000125,0.008020,-25.175446,-14.259239,-2.220070,,,,,,,
1512177645.937121,-0.218184,0.595573,3.076712,0.004672,-0.009821,0.003439,-0.179189,-0.560983,-0.808201,0.000569,-0.001700,0.007633,-25.176575,-14.484245,-2.445168,,,,,,,
1512177645.957091,-0.218337,0.595528,3.076885,-0.002842,0.001914,0.007637,-0.179318,-0.560946,-0.808198,-0.001255,0.001681,0.007111,-25.400421,-14.259575,-2.143166,,,,,,,
1512177645.977111,-0.218362,0.595546,3.076864,0.002752,-0.001249,-0.008283,-0.179336,-0.560961,-0.808183,-0.001236,0.000720,0.007341,-25.475296,-14.259697,-1.917519,,,,,,,
1512177645.997100,-0.218179,0.595362,3.076772,-0.018773,0.008305,0.004230,-0.179210,-0.560809,-0.808317,0.003475,0.003253,0.009992,-25.174408,-14.034233,-2.144966,,,,,,,
1512177646.017119,-0.218203,0.595131,3.076751,-0.005850,-0.008747,-0.004169,-0.179258,-0.560617,-0.808439,-0.005618,0.000879,0.001936,-25.025482,-14.259010,-2.296349,,,,,,,
1512177646.037108,-0.218134,0.595139,3.076681,0.002674,0.010491,-0.002912,-0.179201,-0.560623,-0.808447,-0.004484,0.005997,0.004157,-24.951462,-14.483910,-2.222084,,,,,,,
1512177646.057128,-0.218114,0.595242,3.076732,0.004756,-0.004466,-0.000803,-0.179172,-0.560709,-0.808394,0.002705,-0.002706,0.010055,-24.952515,-14.708900,-2.297188,,,,,,,
1512177646.077117,-0.218187,0.595126,3.076753,-0.011303,0.001907,0.003249,-0.179246,-0.560613,-0.808445,0.000108,0.003301,0.009342,-25.400421,-14.259575,-2.143166,,,,,,,
1512177646.097106,-0.218122,0.595070,3.076701,0.003833,-0.000178,-0.009330,-0.179200,-0.560567,-0.808487,-0.004424,0.000585,0.000046,-25.099731,-14.109123,-2.145638,,,,,,,
1512177646.117125,-0.217948,0.595167,3.076530,-0.004776,0.009411,-0.004092,-0.179048,-0.560647,-0.808465,0.001893,0.002115,0.006951,-25.175369,-14.259239,-2.070061,,,,,,,
1512177646.137114,-0.217837,0.594964,3.076455,-0.013371,-0.005565,-0.001071,-0.178983,-0.560479,-0.808596,0.003812,-0.002677,0.004916,-25.175110,-14.184242,-2.220039,,,,,,,
1512177646.157134,-0.217905,0.594866,3.076371,-0.000565,0.000869,-0.000860,-0.179049,-0.560398,-0.808638,-0.004316,0.008960,-0.001238,-25.476471,-14.484688,-2.217628,,,,,,,
1512177646.177123,-0.217783,0.595098,3.076471,0.018581,0.003027,0.001555,-0.178922,-0.560590,-0.808532,0.003019,-0.001345,0.005081,-25.025299,-14.259010,-1.921349,,,,,,,
1512177646.197142,-0.217947,0.595187,3.076554,-0.006005,-0.004494,0.005438,-0.179044,-0.560664,-0.808454,0.000837,0.002360,0.012525,-25.403000,-14.859581,-1.918434,,,,,,,
1512177646.217131,-0.218097,0.594888,3.076674,-0.013487,-0.009848,0.006377,-0.179201,-0.560416,-0.808591,-0.003721,0.000434,0.002362,-25.625412,-14.259911,-2.141243,,,,,,,
1512177646.237120,-0.218202,0.594842,3.076506,0.003841,0.000893,-0.009324,-0.179293,-0.560378,-0.808597,-0.007536,0.007216,0.002064,-25.174774,-14.109245,-2.219994,,,,,,,
1512177646.257140,-0.217901,0.594860,3.076434,-0.001676,0.011543,0.002359,-0.179047,-0.560393,-0.808641,0.006913,-0.005968,0.013781,-25.175522,-14.259239,-2.370064,,,,,,,
1512177646.277129,-0.217984,0.594644,3.076510,-0.017818,-0.004523,0.010597,-0.179140,-0.560214,-0.808745,0.004107,-0.004682,0.012618,-25.400452,-14.259575,-2.218163,,,,,,,
1512177646.297148,-0.218105,0.594141,3.076697,-0.018894,0.000816,0.011667,-0.179298,-0.559797,-0.808998,-0.002846,0.000792,-0.000633,-25.251770,-14.559349,-2.144569,,,,,,,
1512177646.317137,-0.218099,0.594091,3.076694,0.005899,0.007293,-0.005010,-0.179300,-0.559756,-0.809027,-0.005301,0.004900,0.000830,-25.475418,-14.259697,-2.142525,,,,,,,
1512177646.337157,-0.217840,0.594275,3.076718,0.008955,0.013687,0.003583,-0.179068,-0.559908,-0.808972,0.005545,-0.003263,0.009213,-24.876205,-14.408791,-2.372688,,,,,,,
1512177646.357146,-0.218071,0.594300,3.076828,-0.007048,-0.016243,0.003249,-0.179252,-0.559929,-0.808918,0.000114,-0.002998,0.010288,-25.175720,-14.334236,-2.070107,,,,,,,
1512177646.377135,-0.218187,0.594122,3.076880,-0.002729,0.005134,0.001255,-0.179367,-0.559781,-0.808994,-0.005905,0.001279,-0.003124,-25.251846,-14.559349,-2.294579,,,,,,,
1512177646.397154,-0.218302,0.594299,3.076912,0.010145,-0.006590,-0.004999,-0.179439,-0.559928,-0.808877,-0.001073,-0.001031,0.004387,-25.175720,-14.334236,-2.070107,,,,,,,
1512177646.417143,-0.218332,0.594322,3.076937,-0.003826,-0.001276,0.003351,-0.179461,-0.559947,-0.808859,0.005938,-0.001760,0.009344,-25.628448,-14.934929,-2.141563,,,,,,,
1512177646.437163,-0.218528,0.594321,3.076999,0.000473,-0.009815,0.000183,-0.179619,-0.559947,-0.808824,0.001030,0.000682,0.005586,-25.175308,-14.259239,-1.920067,,,,,,,
1512177646.457152,-0.218620,0.594195,3.077039,-0.006979,0.002992,0.000119,-0.179708,-0.559842,-0.808877,-0.000818,0.003262,0.004632,-25.174744,-14.109245,-2.144997,,,,,,,
1512177646.477172,-0.218567,0.594150,3.076921,-0.002564,-0.002317,-0.008360,-0.179671,-0.559805,-0.808910,-0.001313,0.001776,0.003444,-25.325745,-14.334465,-2.143837,,,,,,,
1512177646.497161,-0.218404,0.594180,3.076768,0.002659,0.009416,-0.002920,-0.179536,-0.559829,-0.808923,0.000703,0.009109,0.005212,-25.251083,-14.409355,-2.144508,,,,,,,
1512177646.517150,-0.218422,0.594503,3.076835,0.017548,-0.007649,-0.000627,-0.179511,-0.560097,-0.808743,-0.000313,0.001320,0.007184,-25.176346,-14.484245,-1.995171,,,,,,,
1512177646.537169,-0.218486,0.594680,3.076876,-0.002769,0.006195,0.003389,-0.179542,-0.560244,-0.808635,0.002570,-0.000746,0.011745,-25.403122,-14.859581,-2.143440,,,,,,,
1512177646.557158,-0.218457,0.594444,3.076907,-0.009100,-0.000216,-0.000990,-0.179547,-0.560048,-0.808769,-0.005603,0.001027,0.004204,-25.325302,-14.259468,-1.918800,,,,,,,
1512177646.577178,-0.218162,0.594390,3.076723,-0.001503,0.015833,-0.008286,-0.179315,-0.560003,-0.808852,-0.003150,0.005133,0.003615,-25.249969,-14.184349,-1.919395,,,,,,,
1512177646.597167,-0.217912,0.594393,3.076650,-0.001637,0.004067,-0.000867,-0.179112,-0.560006,-0.808895,0.009740,-0.000724,0.008968,-25.026764,-14.559013,-2.146477,,,,,,,
1512177646.617186,-0.217973,0.594094,3.076685,-0.022048,-0.000255,0.008417,-0.179197,-0.559758,-0.809048,0.000670,0.004414,0.001919,-25.250946,-14.409355,-1.844505,,,,,,,
1512177646.637175,-0.218101,0.593850,3.076865,0.000398,-0.006622,0.004455,-0.179331,-0.559556,-0.809158,-0.003958,0.000566,-0.004868,-25.400833,-14.334572,-2.293190,,,,,,,
1512177646.657164,-0.218186,0.594024,3.076846,0.012259,0.000892,-0.002807,-0.179378,-0.559700,-0.809048,-0.001820,0.006554,0.001385,-25.474365,-14.034691,-2.067406,,,,,,,
1512177646.677184,-0.218175,0.594383,3.076900,0.020714,-0.003376,0.001565,-0.179326,-0.559998,-0.808853,0.001439,-0.002929,0.008301,-25.400452,-14.259575,-2.218163,,,,,,,
1512177646.697173,-0.218458,0.594566,3.077032,-0.000717,-0.010900,0.007624,-0.179533,-0.560149,-0.808703,-0.000903,-0.000840,0.015169,-25.399734,-14.109581,-2.143089,,,,,,,
1512177646.717192,-0.218538,0.594393,3.077089,-0.004861,-0.003411,0.001196,-0.179618,-0.560006,-0.808783,-0.007271,-0.002433,0.007116,-25.325790,-14.334465,-2.218834,,,,,,,
1512177646.737181,-0.218426,0.594360,3.076902,-0.002580,0.009419,-0.008326,-0.179532,-0.559979,-0.808821,-0.005664,0.003887,0.007429,-25.400040,-14.184578,-2.068123,,,,,,,
1512177646.757170,-0.218028,0.594259,3.076765,-0.011228,0.011528,-0.000981,-0.179222,-0.559895,-0.808948,0.005196,-0.005230,0.010882,-25.401794,-14.559578,-2.218300,,,,,,,
1512177646.777190,-0.218011,0.593951,3.076693,-0.019841,-0.002376,0.004179,-0.179246,-0.559640,-0.809119,0.006775,0.000634,0.004752,-25.175110,-14.184242,-2.220039,,,,,,,
1512177646.797179,-0.218141,0.593613,3.076836,-0.006057,-0.001296,0.008646,-0.179392,-0.559360,-0.809280,-0.000463,0.003787,-0.006882,-25.249069,-13.959343,-2.144295,,,,,,,
1512177646.817198,-0.218295,0.593938,3.076876,0.026159,-0.000153,-0.005809,-0.179477,-0.559629,-0.809075,-0.003186,0.004042,0.001152,-25.175308,-14.259239,-1.920067,,,,,,,
1512177646.837187,-0.218327,0.594359,3.077065,0.017373,0.003008,0.010066,-0.179452,-0.559978,-0.808839,0.005395,-0.001744,0.012483,-25.549255,-14.034798,-1.841774,,,,,,,
1512177646.857207,-0.218664,0.594519,3.077284,0.003608,-0.011957,0.003417,-0.179705,-0.560110,-0.808691,-0.005842,-0.002847,0.014593,-25.178421,-14.934242,-2.070381,,,,,,,
1512177646.877196,-0.218555,0.594289,3.077267,-0.018699,0.013654,-0.000015,-0.179645,-0.559920,-0.808837,-0.006131,-0.002046,0.013274,-25.326096,-14.409462,-2.143867,,,,,,,
1512177646.897185,-0.218185,0.593916,3.076954,-0.023835,0.010466,-0.011826,-0.179390,-0.559610,-0.809107,-0.002616,0.002542,0.005823,-25.174744,-14.109245,-2.144997,,,,,,,
1512177646.917205,-0.217737,0.593612,3.076657,-0.011178,0.013676,-0.003102,-0.179065,-0.559359,-0.809353,0.005435,0.001833,0.000591,-25.325684,-14.334465,-1.993828,,,,,,,
1512177646.937194,-0.217876,0.593709,3.076700,0.010076,-0.014073,-0.000760,-0.179166,-0.559439,-0.809275,0.001447,0.001181,-0.002721,-25.398697,-13.884575,-2.067986,,,,,,,
1512177646.957186,-0.218103,0.593979,3.076817,0.010052,-0.001258,0.001417,-0.179316,-0.559663,-0.809087,0.001277,0.003831,0.001958,-25.174820,-14.109245,-2.295006,,,,,,,
1512177646.977175,-0.218256,0.594229,3.076948,0.012176,-0.004462,0.001435,-0.179410,-0.559870,-0.808923,0.001508,-0.001104,0.008859,-25.325302,-14.259468,-1.918800,,,,,,,
1512177646.997195,-0.218353,0.594173,3.077105,-0.010370,0.002957,0.010726,-0.179495,-0.559824,-0.808936,0.000784,0.002985,0.013984,-25.025787,-14.334023,-2.221382,,,,,,,
1512177647.017184,-0.218469,0.593842,3.077192,-0.018783,-0.007717,0.004175,-0.179630,-0.559549,-0.809096,-0.003628,0.001017,0.008223,-25.248581,-13.884346,-1.844261,,,,,,,
1512177647.037173,-0.218326,0.593518,3.077100,-0.013351,0.015801,-0.000996,-0.179553,-0.559281,-0.809299,-0.003400,0.005143,0.004047,-25.175156,-14.184242,-2.295036,,,,,,,
1512177647.057192,-0.218025,0.593481,3.077039,0.003757,0.006216,-0.005048,-0.179314,-0.559250,-0.809373,0.000756,0.002930,0.004182,-25.398987,-13.959572,-1.993019,,,,,,,
1512177647.077181,-0.217794,0.593566,3.076994,-0.000595,0.015816,0.001322,-0.179117,-0.559321,-0.809368,0.004144,0.003474,0.008632,-25.248993,-13.959343,-1.994286,,,,,,,
1512177647.097201,-0.217764,0.593437,3.077140,-0.007057,-0.002359,0.004363,-0.179108,-0.559214,-0.809444,-0.001648,0.000696,0.004222,-25.774658,-14.110146,-1.989906,,,,,,,
1512177647.117190,-0.217835,0.593309,3.077241,-0.007108,0.004041,0.007582,-0.179181,-0.559107,-0.809501,-0.000049,0.003764,0.000892,-25.400421,-14.259575,-2.143166,,,,,,,
1512177647.137209,-0.217908,0.593266,3.077388,0.005742,-0.008749,0.003459,-0.179245,-0.559072,-0.809511,-0.002396,0.001531,-0.001326,-25.174820,-14.109245,-2.295006,,,,,,,
1512177647.157198,-0.218088,0.593399,3.077401,0.001460,-0.003419,0.004480,-0.179375,-0.559182,-0.809407,0.000999,0.006020,0.007634,-25.175079,-14.184242,-2.145042,,,,,,,
1512177647.177187,-0.218201,0.593278,3.077563,-0.001746,-0.007693,0.005488,-0.179481,-0.559082,-0.809452,-0.002480,-0.002121,0.003971,-25.699402,-14.035027,-2.140511,,,,,,,
1512177647.197207,-0.218284,0.593406,3.077454,0.006954,-0.002321,-0.005029,-0.179533,-0.559188,-0.809368,-0.001726,0.003341,0.005123,-25.625824,-14.334923,-2.291283,,,,,,,
1512177647.217196,-0.218234,0.593515,3.077456,0.006908,-0.001249,-0.000756,-0.179479,-0.559278,-0.809317,0.000173,-0.000231,0.005575,-25.249695,-14.109352,-2.069359,,,,,,,
1512177647.237215,-0.218215,0.593594,3.077346,-0.000543,0.000866,-0.002996,-0.179454,-0.559344,-0.809277,0.000819,0.003008,0.009457,-25.173279,-13.809242,-1.919868,,,,,,,
1512177647.257204,-0.218104,0.593567,3.077332,0.000479,0.000866,0.000220,-0.179367,-0.559322,-0.809312,0.004867,-0.002385,0.009782,-25.175415,-14.259239,-2.145073,,,,,,,
1512177647.277224,-0.218197,0.593492,3.077306,-0.010209,-0.003429,0.001114,-0.179451,-0.559259,-0.809336,0.003731,0.002191,0.010035,-25.099365,-14.034126,-2.070595,,,,,,,
1512177647.297213,-0.218139,0.593169,3.077378,-0.012428,0.007242,0.007517,-0.179444,-0.558991,-0.809523,-0.001037,0.000229,0.003081,-25.403336,-14.859581,-2.593437,,,,,,,
1512177647.317202,-0.218102,0.593091,3.077367,-0.000498,0.003011,-0.005117,-0.179423,-0.558927,-0.809572,-0.001790,0.000898,0.002641,-25.177444,-14.709251,-2.145271,,,,,,,
1512177647.337221,-0.217808,0.593135,3.077272,0.001563,0.009412,-0.000803,-0.179180,-0.558963,-0.809601,0.004741,0.001178,0.005692,-25.174744,-14.109245,-2.144997,,,,,,,
1512177647.357210,-0.217848,0.593213,3.077310,0.004757,-0.003398,-0.000799,-0.179203,-0.559028,-0.809551,-0.003491,0.000007,0.004299,-25.249695,-14.109352,-2.069359,,,,,,,
1512177647.377230,-0.217824,0.593231,3.077354,0.000485,0.003005,0.000228,-0.179182,-0.559043,-0.809546,-0.001086,-0.001672,0.004568,-25.176392,-14.484245,-2.070168,,,,,,,
1512177647.397219,-0.217809,0.593288,3.077281,0.001643,0.000884,-0.005091,-0.179162,-0.559090,-0.809517,-0.000449,0.001778,0.009438,-25.326019,-14.409462,-1.993858,,,,,,,
1512177647.417239,-0.217708,0.593150,3.077283,-0.009176,0.004051,0.004356,-0.179097,-0.558976,-0.809610,0.001713,-0.002486,0.007608,-25.250381,-14.259346,-2.069435,,,,,,,
1512177647.437228,-0.217900,0.593066,3.077333,-0.003794,-0.011959,0.000113,-0.179263,-0.558906,-0.809622,-0.001996,-0.000847,0.005606,-25.175308,-14.259239,-1.920067,,,,,,,
1512177647.457217,-0.217987,0.592962,3.077353,-0.003849,0.004050,0.003362,-0.179346,-0.558820,-0.809663,-0.003302,0.003232,0.001252,-25.326096,-14.409462,-2.143867,,,,,,,
1512177647.477236,-0.217937,0.593087,3.077343,0.008028,0.000888,-0.005001,-0.179290,-0.558924,-0.809604,-0.001252,0.001856,0.007068,-25.627182,-14.634911,-2.291420,,,,,,,
1512177647.497225,-0.217772,0.593007,3.077269,-0.013405,0.007244,0.001103,-0.179166,-0.558857,-0.809677,0.004896,0.002033,0.010895,-25.325485,-14.259468,-2.293800,,,,,,,
1512177647.517245,-0.217733,0.592826,3.077191,-0.005822,-0.005544,-0.006292,-0.179157,-0.558707,-0.809783,0.000888,0.000922,0.002165,-25.401016,-14.409584,-1.993233,,,,,,,
1512177647.537234,-0.217696,0.592786,3.077148,0.001570,0.007280,-0.000808,-0.179131,-0.558674,-0.809811,-0.002311,0.002110,0.001660,-25.175369,-14.259239,-2.070061,,,,,,,
1512177647.557253,-0.217867,0.592981,3.077179,0.010141,-0.013000,-0.005021,-0.179247,-0.558836,-0.809674,-0.001753,-0.000902,0.004697,-25.326096,-14.409462,-2.143867,,,,,,,
1512177647.577242,-0.217949,0.593092,3.077150,-0.002744,0.000855,0.001237,-0.179299,-0.558927,-0.809599,0.000390,0.003065,0.010985,-25.400345,-14.259575,-1.993156,,,,,,,
1512177647.597231,-0.217913,0.593069,3.077101,-0.000484,-0.001260,-0.006198,-0.179273,-0.558908,-0.809618,0.002088,-0.003531,0.010286,-25.248734,-13.884346,-2.144264,,,,,,,
1512177647.617251,-0.217803,0.592830,3.077015,-0.023007,0.007232,0.002032,-0.179213,-0.558710,-0.809768,0.003736,0.002375,0.009994,-25.402710,-14.784584,-1.993401,,,,,,,
1512177647.637240,-0.217818,0.592472,3.077033,-0.014517,-0.006641,0.004241,-0.179268,-0.558414,-0.809960,0.000023,-0.000836,0.001596,-25.403458,-14.934578,-2.143471,,,,,,,
1512177647.657259,-0.217832,0.592321,3.077101,-0.004925,0.007254,0.004425,-0.179298,-0.558288,-0.810040,-0.002373,0.003433,0.000913,-25.401993,-14.634575,-1.918327,,,,,,,
1512177647.677248,-0.217841,0.592442,3.077169,0.009046,-0.004460,-0.002875,-0.179290,-0.558388,-0.809973,-0.001664,-0.001106,0.001822,-25.025635,-14.334023,-1.921379,,,,,,,
1512177647.697268,-0.217886,0.592522,3.077092,-0.002725,-0.000210,0.000168,-0.179317,-0.558455,-0.809921,-0.002446,0.001387,0.007126,-25.249847,-14.184349,-1.694389,,,,,,,
1512177647.717257,-0.217954,0.592465,3.077197,0.002544,-0.004483,0.003427,-0.179379,-0.558408,-0.809940,-0.005252,0.000867,0.003681,-25.401047,-14.409584,-2.068230,,,,,,,
1512177647.737246,-0.217905,0.592562,3.077091,0.002757,0.007296,-0.008253,-0.179328,-0.558488,-0.809896,-0.004846,0.005815,0.005117,-25.774292,-14.035133,-1.914864,,,,,,,
1512177647.757265,-0.217543,0.592635,3.076963,0.002702,0.012627,-0.005039,-0.179025,-0.558549,-0.809921,0.002329,-0.000960,0.010604,-25.851349,-14.485252,-1.989433,,,,,,,
1512177647.777254,-0.217407,0.592442,3.076945,-0.019891,0.005094,0.007402,-0.178938,-0.558389,-0.810051,0.008589,0.001077,0.009864,-25.624710,-14.109917,-2.066170,,,,,,,
1512177647.797274,-0.217410,0.592020,3.077036,-0.012418,-0.000235,0.006425,-0.178992,-0.558038,-0.810280,0.000983,0.002939,0.000969,-25.250458,-14.259346,-2.219429,,,,,,,
1512177647.817263,-0.217410,0.592010,3.077046,0.007938,0.008351,0.000352,-0.178993,-0.558030,-0.810286,-0.004631,0.007813,0.001860,-25.251465,-14.484352,-2.219536,,,,,,,
1512177647.837282,-0.217272,0.592106,3.077151,0.003623,0.004067,0.003474,-0.178870,-0.558110,-0.810258,0.000265,-0.002620,0.008470,-25.249771,-14.109352,-2.219368,,,,,,,
1512177647.857271,-0.217305,0.591946,3.077096,-0.016603,-0.003439,0.001021,-0.178916,-0.557977,-0.810339,-0.000421,-0.001288,0.008063,-25.399734,-14.109581,-2.143089,,,,,,,
1512177647.877261,-0.217413,0.591578,3.077097,-0.010231,-0.007705,0.002164,-0.179047,-0.557671,-0.810521,-0.008834,0.000634,-0.006496,-25.324966,-14.184471,-1.918770,,,,,,,
1512177647.897280,-0.217464,0.591829,3.076955,0.018750,-0.003362,-0.009125,-0.179059,-0.557880,-0.810375,-0.001102,0.004016,-0.001164,-25.249634,-14.109352,-1.919365,,,,,,,
1512177647.917269,-0.217451,0.592068,3.076941,0.011127,-0.002327,0.000361,-0.179020,-0.558078,-0.810246,0.005512,-0.003872,0.009999,-25.252396,-14.709358,-2.069633,,,,,,,
1512177647.937289,-0.217692,0.592164,3.076988,-0.002805,-0.010902,0.004393,-0.179204,-0.558158,-0.810151,0.004918,-0.001366,0.013062,-25.400299,-14.259575,-1.918159,,,,,,,
1512177647.957257,-0.217763,0.591937,3.077059,-0.005941,0.001925,0.002265,-0.179288,-0.557970,-0.810262,-0.004076,0.003603,0.000859,-25.403229,-14.859581,-2.368431,,,,,,,
1512177647.977276,-0.217603,0.592130,3.076938,0.012377,0.009446,-0.010241,-0.179135,-0.558130,-0.810185,-0.002871,0.006433,0.007634,-25.324066,-13.959465,-2.143654,,,,,,,
1512177647.997265,-0.217258,0.592175,3.076904,-0.002761,0.014734,0.002349,-0.178850,-0.558167,-0.810223,0.004061,-0.002090,0.013378,-25.399399,-14.034569,-2.143059,,,,,,,
1512177648.017254,-0.217300,0.592101,3.076903,-0.009108,-0.006627,-0.001013,-0.178893,-0.558106,-0.810256,-0.002396,0.000793,0.008193,-24.948837,-13.883904,-2.371803,,,,,,,
1512177648.037274,-0.217153,0.591831,3.076792,-0.013317,0.011533,-0.003142,-0.178806,-0.557882,-0.810429,-0.002178,0.002050,0.004475,-25.474396,-14.034691,-2.142418,,,,,,,
1512177648.057263,-0.216982,0.591769,3.076686,-0.002661,0.004066,-0.004083,-0.178675,-0.557831,-0.810493,0.002055,-0.000199,0.006553,-25.249664,-14.034355,-2.669334,,,,,,,
1512177648.077282,-0.216842,0.591585,3.076699,-0.011365,0.005099,0.006454,-0.178584,-0.557678,-0.810618,0.005427,0.001113,0.003322,-25.322754,-13.659462,-2.218513,,,,,,,
1512177648.097271,-0.216944,0.591483,3.076795,-0.000648,-0.005553,0.003378,-0.178679,-0.557593,-0.810656,0.000716,0.000556,-0.001829,-25.249069,-13.959343,-2.144295,,,,,,,
1512177648.117291,-0.217070,0.591517,3.076924,0.010004,0.001934,0.003556,-0.178777,-0.557621,-0.810615,-0.002833,0.004001,-0.002160,-25.025452,-14.259010,-2.221336,,,,,,,
1512177648.137280,-0.217190,0.591956,3.077081,0.022864,-0.004444,-0.000543,-0.178821,-0.557985,-0.810355,0.000721,-0.002257,0.007117,-25.248428,-13.809349,-2.219215,,,,,,,
1512177648.157269,-0.217227,0.592098,3.077212,-0.001747,0.004052,0.005526,-0.178834,-0.558103,-0.810270,-0.000548,-0.000674,0.010908,-25.175522,-14.259239,-2.370064,,,,,,,
1512177648.177288,-0.217238,0.592169,3.077168,0.007036,-0.002313,-0.010360,-0.178835,-0.558162,-0.810230,-0.004850,-0.001591,0.005695,-25.248688,-13.884346,-2.069252,,,,,,,
1512177648.197277,-0.217057,0.592308,3.077058,0.002642,0.014760,-0.000766,-0.178672,-0.558277,-0.810186,0.001502,0.000233,0.010137,-25.325409,-14.259468,-2.143791,,,,,,,
1512177648.217297,-0.216949,0.592249,3.077081,-0.006985,-0.000222,-0.000964,-0.178591,-0.558228,-0.810238,0.000445,-0.000305,0.009685,-25.174362,-14.034233,-2.069969,,,,,,,
1512177648.237286,-0.216937,0.591930,3.077114,-0.019894,0.002949,0.006323,-0.178619,-0.557964,-0.810414,0.000091,0.005794,0.003041,-25.175446,-14.259239,-2.220070,,,,,,,
1512177648.257305,-0.217021,0.591868,3.077171,0.005816,-0.005536,-0.000793,-0.178695,-0.557912,-0.810432,0.001144,0.001836,0.003075,-25.250412,-14.259346,-2.144432,,,,,,,
1512177648.277294,-0.217145,0.591749,3.077331,-0.013606,0.001878,0.012807,-0.178810,-0.557814,-0.810475,0.002159,0.001722,0.008488,-25.101807,-14.559135,-2.220848,,,,,,,
1512177648.297283,-0.217322,0.591406,3.077574,-0.015722,-0.007727,0.012749,-0.178995,-0.557529,-0.810630,-0.000113,-0.005154,0.009818,-25.476425,-14.484688,-2.142632,,,,,,,
1512177648.317303,-0.217503,0.590745,3.077786,-0.042513,0.003958,0.020926,-0.179221,-0.556980,-0.810958,0.002219,0.002338,0.015792,-25.324371,-14.034462,-2.068687,,,,,,,
1512177648.337292,-0.217506,0.589772,3.077861,-0.042246,-0.000286,0.003855,-0.179340,-0.556171,-0.811486,-0.009365,0.005222,0.000542,-25.473358,-13.809685,-2.067314,,,,,,,
1512177648.357312,-0.217232,0.589419,3.077583,-0.012184,0.015812,-0.007376,-0.179160,-0.555878,-0.811726,-0.003427,0.004944,-0.001552,-25.175415,-14.259239,-2.145073,,,,,,,
1512177648.377301,-0.217000,0.589381,3.077473,0.001604,-0.002333,-0.004042,-0.178977,-0.555846,-0.811789,0.002738,-0.000459,-0.001398,-25.399399,-14.034569,-2.143059,,,,,,,
1512177648.397320,-0.217066,0.589605,3.077397,0.011164,-0.004457,-0.001777,-0.179003,-0.556033,-0.811655,0.001757,0.007052,-0.000067,-25.474396,-14.034691,-2.142418,,,,,,,
1512177648.417309,-0.217281,0.589951,3.077603,0.022785,-0.007654,0.004778,-0.179136,-0.556321,-0.811428,0.002607,0.000992,0.001400,-25.249817,-14.109352,-2.294365,,,,,,,
1512177648.437298,-0.217492,0.590278,3.077768,0.007911,-0.001266,0.001383,-0.179268,-0.556592,-0.811214,-0.000588,0.002698,0.010890,-25.399109,-13.959572,-2.218010,,,,,,,
1512177648.457318,-0.217401,0.590252,3.077735,-0.003737,0.004067,-0.003031,-0.179197,-0.556571,-0.811244,-0.003572,0.000968,0.010386,-25.174774,-14.109245,-2.219994,,,,,,,
1512177648.477307,-0.217095,0.590092,3.077479,-0.013253,0.013674,-0.007399,-0.178968,-0.556437,-0.811386,0.000623,0.005473,0.008163,-25.098389,-13.809120,-2.145500,,,,,,,
1512177648.497326,-0.216757,0.589844,3.077386,-0.008104,0.006184,0.003310,-0.178724,-0.556231,-0.811581,0.003110,0.000399,0.005474,-25.174057,-13.959236,-2.144936,,,,,,,
1512177648.517315,-0.216833,0.589919,3.077442,0.010000,-0.001271,0.003544,-0.178777,-0.556293,-0.811527,-0.000697,0.005833,0.002445,-25.399963,-14.184578,-1.918129,,,,,,,
1512177648.537335,-0.216876,0.590128,3.077737,0.013075,0.004065,0.012139,-0.178787,-0.556468,-0.811405,0.000991,-0.002782,0.004276,-25.401764,-14.559578,-2.143303,,,,,,,
1512177648.557324,-0.216974,0.590203,3.077951,-0.002882,0.005110,0.009778,-0.178857,-0.556530,-0.811347,-0.000755,0.000683,0.011267,-25.173386,-13.809242,-2.144859,,,,,,,
1512177648.577313,-0.216866,0.589940,3.078046,-0.011309,0.004046,0.004325,-0.178800,-0.556311,-0.811509,-0.000689,-0.000253,0.003877,-25.174179,-13.959236,-2.369926,,,,,,,
1512177648.597332,-0.216945,0.589812,3.078029,-0.004865,-0.003421,0.000124,-0.178880,-0.556204,-0.811565,0.001131,0.000861,0.001521,-25.324966,-14.184471,-1.918770,,,,,,,
1512177648.617321,-0.216933,0.589651,3.078026,-0.004869,-0.001280,0.001201,-0.178889,-0.556071,-0.811654,-0.000035,0.000254,-0.001822,-25.624664,-14.109917,-1.991173,,,,,,,
1512177648.637341,-0.217122,0.589883,3.078018,0.015470,-0.008720,-0.004930,-0.179015,-0.556264,-0.811494,-0.002412,0.002873,0.002123,-25.625717,-14.334923,-2.066277,,,,,,,
1512177648.657330,-0.217230,0.590202,3.078137,0.014253,-0.001263,0.004673,-0.179064,-0.556529,-0.811302,0.003832,-0.001271,0.012260,-25.100449,-14.259132,-2.220711,,,,,,,
1512177648.677349,-0.217478,0.590393,3.078246,0.004773,-0.010878,-0.002961,-0.179243,-0.556688,-0.811153,-0.001879,0.001802,0.014217,-24.949631,-14.108910,-1.921913,,,,,,,
1512177648.697338,-0.217368,0.590352,3.078168,-0.004806,0.011538,-0.003022,-0.179159,-0.556653,-0.811195,-0.001704,0.001279,0.013283,-25.475784,-14.334694,-2.217552,,,,,,,
1512177648.717327,-0.217248,0.590079,3.078035,-0.017634,-0.000233,-0.001115,-0.179094,-0.556427,-0.811365,0.001512,0.002304,0.005961,-25.176086,-14.409248,-2.145134,,,,,,,
1512177648.737347,-0.217070,0.589721,3.077983,-0.016650,0.010439,0.004266,-0.178992,-0.556129,-0.811592,0.001502,0.001777,-0.000145,-25.403336,-14.934578,-1.918465,,,,,,,
1512177648.757336,-0.217067,0.589665,3.078001,0.002686,-0.004466,-0.005100,-0.178997,-0.556083,-0.811623,-0.000889,0.001487,-0.002831,-25.325485,-14.259468,-2.293800,,,,,,,
1512177648.777355,-0.217061,0.589802,3.077994,0.003675,0.006209,0.000283,-0.178975,-0.556197,-0.811549,0.003835,0.003538,0.005931,-25.248459,-13.809349,-2.294228,,,,,,,
1512177648.797344,-0.217169,0.589937,3.078120,0.008926,-0.008751,0.003502,-0.179047,-0.556308,-0.811457,0.002167,-0.000515,0.007761,-24.949890,-14.108910,-2.446907,,,,,,,
1512177648.817334,-0.217299,0.590055,3.078259,0.004663,0.004063,0.004553,-0.179138,-0.556407,-0.811369,-0.003281,0.007167,0.003462,-25.174103,-13.959236,-2.219933,,,,,,,
1512177648.837353,-0.217330,0.590324,3.078412,0.016437,-0.004457,0.001497,-0.179131,-0.556630,-0.811218,0.001244,-0.001415,0.009933,-25.398621,-13.884575,-1.917992,,,,,,,
1512177648.857342,-0.217457,0.590257,3.078514,-0.015642,-0.000246,0.007442,-0.179242,-0.556574,-0.811231,0.000318,0.000956,0.013593,-25.248505,-13.809349,-2.369225,,,,,,,
1512177648.877362,-0.217533,0.589819,3.078587,-0.022018,-0.007727,0.006259,-0.179356,-0.556210,-0.811456,-0.004054,0.002332,0.004495,-25.324890,-14.109474,-2.443718,,,,,,,
1512177648.897351,-0.217459,0.589600,3.078444,-0.003705,0.012611,-0.005135,-0.179323,-0.556029,-0.811588,-0.005950,0.006056,-0.001248,-25.022079,-13.509010,-2.221001,,,,,,,
1512177648.917370,-0.217163,0.589639,3.078401,0.002606,0.005138,0.000263,-0.179078,-0.556061,-0.811620,0.005875,-0.001236,0.006520,-25.173508,-13.809242,-2.369865,,,,,,,
1512177648.937359,-0.217190,0.589569,3.078403,-0.013499,-0.003447,0.006395,-0.179108,-0.556002,-0.811653,0.003433,0.000888,0.008705,-25.248383,-13.809349,-2.144218,,,,,,,
1512177648.957313,-0.217195,0.589235,3.078404,-0.010174,-0.003426,-0.001018,-0.179152,-0.555725,-0.811833,-0.002961,0.002594,-0.000469,-25.025452,-14.259010,-2.221336,,,,,,,
1512177648.977333,-0.217114,0.589312,3.078181,0.007069,0.004104,-0.011400,-0.179077,-0.555789,-0.811806,-0.000671,0.007038,0.004173,-25.401093,-14.409584,-2.143227,,,,,,,
1512177648.997322,-0.216844,0.589408,3.078086,0.002578,0.005130,0.001326,-0.178846,-0.555869,-0.811802,0.007795,-0.004128,0.010136,-25.249329,-14.034355,-1.994331,,,,,,,
1512177649.017341,-0.217009,0.589305,3.078132,-0.006042,-0.008777,0.006484,-0.178992,-0.555784,-0.811828,0.000190,-0.002490,0.006881,-25.399521,-14.034569,-2.368050,,,,,,,
1512177649.037330,-0.217156,0.589135,3.078327,-0.001843,-0.002370,0.010832,-0.179133,-0.555642,-0.811894,-0.001547,0.001031,0.001561,-25.248795,-13.884346,-2.294258,,,,,,,
1512177649.057350,-0.217317,0.589339,3.078398,0.014397,-0.000176,-0.003848,-0.179239,-0.555811,-0.811755,-0.004416,0.004603,0.005038,-25.250977,-14.409355,-1.919502,,,,,,,
1512177649.077339,-0.217109,0.589471,3.078323,0.000547,0.007280,-0.004023,-0.179054,-0.555922,-0.811720,0.003104,-0.002855,0.010954,-25.324509,-14.034462,-2.368690,,,,,,,
1512177649.097328,-0.216992,0.589363,3.078147,-0.014331,-0.001283,-0.007467,-0.178972,-0.555832,-0.811800,0.000612,-0.004166,0.010027,-25.399063,-13.959572,-2.143013,,,,,,,
1512177649.117347,-0.216794,0.588973,3.078013,-0.015499,0.009382,-0.001052,-0.178858,-0.555507,-0.812047,-0.001791,0.002132,0.000264,-25.399033,-13.959572,-2.068016,,,,,,,
1512177649.137336,-0.216770,0.589099,3.077941,0.014446,-0.003375,-0.007057,-0.178823,-0.555612,-0.811983,-0.001795,0.005167,-0.002241,-25.323807,-13.884468,-2.293617,,,,,,,
1512177649.157356,-0.216779,0.589375,3.078063,0.012076,0.002995,0.006785,-0.178798,-0.555842,-0.811832,0.002879,-0.000006,0.008884,-25.398392,-13.809578,-2.142952,,,,,,,
1512177649.177345,-0.217093,0.589404,3.078249,-0.007086,-0.017317,0.005376,-0.179049,-0.555866,-0.811760,0.001894,-0.005352,0.010978,-25.173691,-13.884239,-2.069893,,,,,,,
1512177649.197364,-0.217279,0.589039,3.078330,-0.019847,0.002960,0.004195,-0.179244,-0.555562,-0.811925,-0.007295,0.004857,0.002232,-25.175415,-14.259239,-2.145073,,,,,,,
1512177649.217353,-0.217139,0.588955,3.078172,0.001766,0.003027,-0.013615,-0.179140,-0.555492,-0.811995,-0.005446,0.003811,0.002089,-25.323730,-13.884468,-2.143623,,,,,,,
1512177649.237342,-0.216916,0.589013,3.078034,-0.004833,0.008334,-0.000899,-0.178952,-0.555541,-0.812004,0.005475,0.004332,0.009346,-25.324173,-13.959465,-2.368660,,,,,,,
1512177649.257362,-0.216995,0.589031,3.078028,0.001579,-0.013017,-0.003013,-0.179014,-0.555555,-0.811980,-0.000048,-0.002245,0.008010,-25.025040,-14.184013,-2.071312,,,,,,,
1512177649.277351,-0.217027,0.588966,3.077974,-0.008074,0.005117,0.001173,-0.179047,-0.555502,-0.812009,0.001985,0.002600,0.004667,-25.402328,-14.634575,-2.593330,,,,,,,
1512177649.297371,-0.216940,0.588932,3.077993,0.006974,0.001954,-0.006080,-0.178981,-0.555473,-0.812044,-0.002721,-0.002312,0.005586,-25.250183,-14.184349,-2.369392,,,,,,,
1512177649.317360,-0.216791,0.588978,3.077955,-0.004895,0.013662,0.002313,-0.178855,-0.555512,-0.812045,0.001486,0.003815,0.008349,-25.023758,-13.884010,-2.221169,,,,,,,
1512177649.337379,-0.216612,0.588900,3.078024,-0.003830,0.004053,0.002297,-0.178719,-0.555447,-0.812119,0.001656,-0.003559,0.004762,-24.947678,-13.658897,-2.071709,,,,,,,
1512177649.357368,-0.216557,0.588643,3.077983,-0.019846,0.004028,0.004199,-0.178705,-0.555233,-0.812268,0.001627,0.002575,0.005414,-25.099442,-14.034126,-2.220604,,,,,,,
1512177649.377357,-0.216539,0.588374,3.078018,-0.005970,-0.004497,0.002236,-0.178722,-0.555009,-0.812418,-0.001347,-0.000304,-0.005698,-25.023651,-13.884010,-1.996178,,,,,,,
1512177649.397377,-0.216617,0.588455,3.077992,0.005795,-0.001268,0.000286,-0.178776,-0.555076,-0.812360,-0.001598,0.008049,-0.001605,-25.174545,-14.034233,-2.444969,,,,,,,
1512177649.417366,-0.216683,0.588713,3.078109,0.016396,-0.005532,0.003623,-0.178799,-0.555291,-0.812208,0.002484,-0.000297,0.003645,-25.100418,-14.259132,-2.145714,,,,,,,
1512177649.437385,-0.217009,0.588977,3.078222,0.005663,-0.010898,0.007713,-0.179032,-0.555511,-0.812007,-0.001037,0.004302,0.009974,-25.398392,-13.809578,-2.142952,,,,,,,
1512177649.457374,-0.217179,0.588953,3.078397,0.003549,-0.002357,0.006644,-0.179173,-0.555491,-0.811989,-0.004955,-0.000341,0.004769,-25.323761,-13.884468,-2.218620,,,,,,,
1512177649.477394,-0.217171,0.588923,3.078319,-0.004793,0.004063,-0.004114,-0.179170,-0.555466,-0.812007,-0.005065,0.006439,0.010890,-25.174622,-14.109245,-1.920006,,,,,,,
1512177649.497383,-0.216946,0.588732,3.078236,-0.009140,0.007252,0.001165,-0.179010,-0.555307,-0.812151,0.003595,-0.001502,0.008242,-25.699402,-14.035027,-2.140511,,,,,,,
1512177649.517372,-0.216958,0.588528,3.078160,-0.011250,-0.001290,0.000041,-0.179044,-0.555138,-0.812259,0.001508,-0.001915,0.004169,-25.624329,-14.034920,-1.991142,,,,,,,
1512177649.537391,-0.216937,0.588300,3.078247,-0.007070,0.001904,0.004373,-0.179054,-0.554948,-0.812387,-0.002754,-0.000381,-0.003074,-25.398804,-13.884575,-2.292992,,,,,,,
1512177649.557380,-0.216976,0.588438,3.078192,0.010184,-0.000178,-0.007108,-0.179070,-0.555062,-0.812305,-0.000404,0.001916,0.003452,-24.947983,-13.733894,-1.996742,,,,,,,
1512177649.577400,-0.216799,0.588583,3.078172,0.006872,0.009417,0.000340,-0.178909,-0.555183,-0.812258,0.005432,-0.000908,0.009340,-25.024323,-14.034019,-1.996239,,,,,,,
1512177649.597389,-0.216806,0.588779,3.078135,0.007993,-0.006605,-0.005035,-0.178891,-0.555346,-0.812150,0.002026,-0.000501,0.008210,-25.325073,-14.184471,-2.143761,,,,,,,
