timestamp(unix),attitude_roll(radians),attitude_pitch(radians),attitude_yaw(radians),rotation_rate_x(radians/s),rotation_rate_y(radians/s),rotation_rate_z(radians/s),gravity_x(G),gravity_y(G),gravity_z(G),user_acc_x(G),user_acc_y(G),user_acc_z(G),magnetic_field_x(microteslas),magnetic_field_y(microteslas),magnetic_field_z(microteslas),latitude(degree),longitude(degree),altitude(meter),speed(m/s),course(degree),timestamp(unix),User Mark
1512177102.484351,0.228687,0.845048,-2.632347,0.000465,-0.067320,0.023545,0.150459,-0.748003,-0.646416,-0.033836,0.020113,0.022240,-32.301498,-10.444939,-38.682594,,,,,,,
1512177102.504340,0.227284,0.844583,-2.631749,-0.046283,-0.036397,0.015513,0.149630,-0.747694,-0.646965,-0.021243,0.010557,0.018822,-32.602814,-10.745384,-38.605186,,,,,,,
1512177102.524360,0.226246,0.843615,-2.631096,-0.051567,-0.018243,0.013367,0.149121,-0.747051,-0.647825,-0.000180,0.000912,0.014875,-32.602890,-10.745384,-38.755180,,,,,,,
1512177102.544349,0.225427,0.842995,-2.630401,-0.028206,-0.015015,0.019046,0.148694,-0.746639,-0.648399,0.005206,0.000270,0.010413,-32.378830,-10.970039,-38.607201,,,,,,,
1512177102.564368,0.224655,0.842675,-2.630081,-0.020481,-0.025649,0.003133,0.148246,-0.746426,-0.648746,-0.002891,0.005413,0.010883,-32.751160,-10.370598,-38.678734,,,,,,,
1512177102.584358,0.224054,0.842160,-2.630404,-0.025530,-0.046986,-0.015139,0.147942,-0.746083,-0.649210,0.006736,0.004155,-0.008230,-32.754883,-11.195610,-38.679115,,,,,,,
1512177102.604347,0.223089,0.841734,-2.630736,-0.012833,-0.057658,-0.009660,0.147386,-0.745799,-0.649662,0.005248,0.000972,-0.017071,-32.977219,-10.595940,-38.751930,,,,,,,
1512177102.624367,0.222434,0.841747,-2.630992,0.011505,-0.024534,0.002532,0.146958,-0.745808,-0.649749,0.004135,-0.002452,-0.011414,-32.827637,-10.670723,-38.903221,,,,,,,
1512177102.644356,0.221907,0.842380,-2.630794,0.035694,-0.012787,0.023179,0.146512,-0.746229,-0.649366,-0.002103,-0.003267,-0.005816,-33.055588,-11.346062,-38.751640,,,,,,,
1512177102.664374,0.221482,0.843221,-2.630456,0.036794,-0.003164,0.022165,0.146098,-0.746789,-0.648816,-0.006877,0.002831,0.014264,-32.602219,-10.595375,-38.755119,,,,,,,
1512177102.684363,0.221035,0.843602,-2.630331,0.001966,-0.026677,-0.000811,0.145745,-0.747043,-0.648603,-0.012383,0.011142,0.013959,-33.127106,-10.596169,-38.525642,,,,,,,
1512177102.704352,0.220209,0.842984,-2.630636,-0.043650,-0.057699,-0.016507,0.145311,-0.746631,-0.649174,-0.006059,0.005863,0.012424,-33.055252,-11.271049,-38.751610,,,,,,,
1512177102.724372,0.219242,0.842032,-2.631018,-0.041480,-0.060893,-0.018618,0.144837,-0.745998,-0.650007,-0.009141,0.003536,0.007109,-32.977783,-10.745949,-38.527000,,,,,,,
1512177102.744361,0.218245,0.841094,-2.631260,-0.043714,-0.055569,-0.012235,0.144340,-0.745373,-0.650834,-0.004097,-0.003406,-0.002227,-33.055664,-11.346062,-38.901619,,,,,,,
1512177102.764380,0.217040,0.840423,-2.631430,-0.029923,-0.067306,-0.008879,0.143664,-0.744925,-0.651496,-0.007693,-0.000665,-0.009911,-33.049637,-10.071053,-38.301048,,,,,,,
1512177102.784369,0.215696,0.839781,-2.631618,-0.039478,-0.068383,-0.011153,0.142890,-0.744497,-0.652156,-0.007225,-0.002329,-0.005117,-33.050949,-10.371056,-38.226189,,,,,,,
1512177102.804358,0.214216,0.838753,-2.631632,-0.053320,-0.081217,-0.012462,0.142087,-0.743810,-0.653114,-0.009824,0.013387,-0.021477,-33.051025,-10.371056,-38.376183,,,,,,,
1512177102.824378,0.212184,0.837369,-2.631604,-0.104702,-0.124044,-0.001629,0.140977,-0.742884,-0.654407,-0.003815,0.001444,-0.004773,-33.124222,-9.996162,-38.150368,,,,,,,
1512177102.844368,0.210120,0.835674,-2.631690,-0.046444,-0.115329,-0.043398,0.139888,-0.741749,-0.655927,0.000615,0.000049,0.000928,-33.277740,-10.746391,-38.449440,,,,,,,
1512177102.864387,0.208576,0.834965,-2.633633,-0.011712,-0.144042,-0.082439,0.138984,-0.741273,-0.656657,-0.011314,0.031266,0.010767,-33.802673,-10.747185,-38.294975,,,,,,,
1512177102.884376,0.208849,0.834724,-2.637042,0.035018,-0.092595,-0.133820,0.139201,-0.741111,-0.656793,-0.031107,0.033515,0.015466,-33.200272,-10.221275,-38.224846,,,,,,,
1512177102.904396,0.211966,0.835577,-2.641749,0.104505,0.029296,-0.139852,0.141114,-0.741684,-0.655738,-0.021836,0.010910,0.017966,-33.050537,-10.296059,-38.076149,,,,,,,
1512177102.924384,0.216122,0.837790,-2.645767,0.144135,0.076251,-0.083678,0.143486,-0.743166,-0.653541,-0.004310,-0.005384,0.006553,-33.426849,-10.596611,-37.998100,,,,,,,
1512177102.944373,0.220242,0.840097,-2.649669,0.135243,0.068846,-0.126474,0.145802,-0.744708,-0.651269,-0.048496,0.040545,-0.001670,-32.902512,-10.745827,-38.002632,,,,,,,
1512177102.964392,0.227713,0.842424,-2.656031,0.198393,0.195133,-0.200812,0.150272,-0.746259,-0.648472,-0.053974,0.054334,-0.018353,-33.053528,-10.971062,-38.001472,,,,,,,
1512177102.984381,0.240618,0.847978,-2.664499,0.431997,0.406990,-0.198822,0.157637,-0.749944,-0.642443,-0.004347,0.032278,-0.052015,-32.229126,-11.119820,-37.858543,,,,,,,
1512177103.004401,0.256515,0.858143,-2.673546,0.627310,0.476613,-0.144580,0.165888,-0.756630,-0.632450,0.016150,0.002296,-0.027997,-32.007843,-11.869499,-38.535805,,,,,,,
1512177103.024390,0.272319,0.869305,-2.682994,0.582515,0.397507,-0.146568,0.173579,-0.763880,-0.621576,0.023290,-0.024755,0.012705,-31.560760,-12.543816,-38.314934,,,,,,,
1512177103.044379,0.284001,0.877383,-2.690485,0.383453,0.241166,-0.107354,0.179094,-0.769069,-0.613562,0.039260,-0.038900,0.034964,-31.336777,-12.768486,-38.316948,,,,,,,
1512177103.064399,0.290375,0.881724,-2.695571,0.182452,0.064550,-0.081033,0.182043,-0.771836,-0.609204,0.045206,-0.052017,0.039502,-31.038239,-13.068031,-38.544640,,,,,,,
1512177103.084388,0.291176,0.882346,-2.697616,-0.019962,-0.086474,-0.032255,0.182393,-0.772232,-0.608598,0.046474,-0.051392,0.044511,-31.119537,-14.418159,-38.994621,,,,,,,
1512177103.104408,0.288635,0.880809,-2.697537,-0.084337,-0.125071,-0.008801,0.181184,-0.771254,-0.610196,0.029326,-0.033555,0.033918,-31.039856,-13.443031,-38.394814,,,,,,,
1512177103.124397,0.286635,0.879875,-2.697345,-0.017239,-0.061953,-0.001210,0.180167,-0.770659,-0.611248,0.017038,-0.020478,0.027966,-31.339890,-13.443489,-38.467262,,,,,,,
1512177103.144386,0.286565,0.880578,-2.697897,0.058504,-0.002021,-0.002039,0.179971,-0.771107,-0.610741,-0.014993,0.008824,-0.002251,-31.264847,-13.443382,-38.392906,,,,,,,
1512177103.164406,0.287752,0.881925,-2.698981,0.069362,0.023655,-0.012452,0.180400,-0.771964,-0.609530,-0.010524,0.007484,-0.004362,-31.040863,-13.668037,-38.394920,,,,,,,
1512177103.184394,0.288943,0.882814,-2.700033,0.039529,0.011863,-0.013991,0.180931,-0.772529,-0.608657,-0.001152,-0.002938,0.001250,-31.339737,-13.443489,-38.167259,,,,,,,
1512177103.204413,0.289688,0.883517,-2.700917,0.040581,0.009729,-0.012915,0.181229,-0.772975,-0.608001,0.003739,-0.005696,0.011383,-31.264557,-13.368370,-38.467873,,,,,,,
1512177103.224402,0.290173,0.884375,-2.701344,0.047657,0.008619,0.009567,0.181334,-0.773519,-0.607278,0.004076,-0.004176,0.013833,-31.489136,-13.293709,-38.315926,,,,,,,
1512177103.244391,0.290470,0.884969,-2.701460,0.014759,0.019272,0.001667,0.181382,-0.773896,-0.606783,-0.010408,0.009842,0.016299,-31.489822,-13.443718,-38.315987,,,,,,,
1512177103.264411,0.291071,0.884954,-2.701902,-0.001969,0.017147,-0.018839,0.181751,-0.773886,-0.606686,-0.016605,0.012319,-0.001423,-31.491806,-13.893715,-38.241203,,,,,,,
1512177103.284400,0.292389,0.885006,-2.702859,0.022719,0.054591,-0.026878,0.182538,-0.773919,-0.606407,-0.022825,0.008920,0.003318,-31.417099,-13.968605,-38.166862,,,,,,,
1512177103.304420,0.295458,0.885954,-2.704361,0.086796,0.134809,-0.029935,0.184185,-0.774519,-0.605142,-0.027141,0.023252,0.063653,-31.266052,-13.743385,-38.093040,,,,,,,
1512177103.324409,0.299186,0.886899,-2.705760,0.018553,0.094114,-0.031066,0.186224,-0.775116,-0.603751,0.029627,-0.007736,0.028556,-31.267548,-14.043373,-38.393181,,,,,,,
1512177103.344398,0.298202,0.884890,-2.706476,-0.157267,-0.135787,-0.047207,0.186087,-0.773845,-0.605421,0.056024,-0.036152,-0.028337,-31.191238,-13.743263,-38.468681,,,,,,,
1512177103.364418,0.294183,0.882220,-2.705615,-0.084660,-0.143265,0.010321,0.184250,-0.772151,-0.608140,0.032836,-0.014546,-0.079070,-31.265594,-13.593376,-38.542976,,,,,,,
1512177103.384407,0.293170,0.883967,-2.704585,0.166874,0.091965,0.089407,0.183244,-0.773261,-0.607033,-0.012330,-0.018457,-0.041221,-31.191498,-13.818260,-38.318718,,,,,,,
1512177103.404425,0.296497,0.889417,-2.704168,0.271535,0.204300,0.083853,0.184029,-0.776705,-0.602381,-0.027703,0.017031,0.012644,-31.267883,-14.118385,-38.393211,,,,,,,
1512177103.424414,0.299139,0.893387,-2.704411,0.118643,0.052468,0.038466,0.184709,-0.779199,-0.598942,0.002485,-0.001792,0.048389,-31.270660,-14.718391,-38.543495,,,,,,,
1512177103.444403,0.296932,0.892696,-2.703919,-0.119602,-0.162516,-0.005177,0.183545,-0.778766,-0.599862,0.014560,-0.005155,0.052880,-30.969543,-14.492928,-38.320930,,,,,,,
1512177103.464423,0.291662,0.889209,-2.702740,-0.183559,-0.217088,-0.008427,0.181161,-0.776573,-0.603419,0.011420,-0.003593,0.019343,-31.418533,-14.268608,-38.317009,,,,,,,
1512177103.484414,0.287240,0.886707,-2.701264,-0.095424,-0.114457,0.017727,0.179040,-0.774995,-0.606075,-0.025567,0.012193,-0.003925,-31.268188,-14.193382,-38.318245,,,,,,,
1512177103.504434,0.285821,0.885925,-2.700613,-0.030058,-0.001097,0.003079,0.178351,-0.774501,-0.606910,-0.043341,0.027812,-0.007745,-31.640823,-13.668938,-38.314812,,,,,,,
1512177103.524423,0.286520,0.885506,-2.700732,-0.020220,0.043808,-0.009415,0.178867,-0.774236,-0.607096,-0.021594,0.009511,-0.012105,-31.343491,-14.268486,-38.242653,,,,,,,
1512177103.544412,0.287536,0.885092,-2.700895,-0.020303,0.043800,-0.004085,0.179575,-0.773973,-0.607222,0.008322,-0.008314,-0.004945,-31.495071,-14.568718,-38.691505,,,,,,,
1512177103.564431,0.287508,0.884977,-2.700797,0.002879,-0.017082,0.008830,0.179582,-0.773901,-0.607312,0.023207,-0.009837,-0.006808,-31.566879,-13.893822,-38.390572,,,,,,,
1512177103.584420,0.286677,0.885228,-2.700704,0.014670,-0.034149,0.003609,0.179023,-0.774059,-0.607275,0.006676,-0.001927,0.010428,-31.266953,-13.893379,-38.543114,,,,,,,
1512177103.604440,0.286313,0.885401,-2.701130,0.011783,-0.026637,-0.014528,0.178764,-0.774169,-0.607212,-0.003288,0.001601,0.009235,-31.266846,-13.893379,-38.318108,,,,,,,
1512177103.624429,0.286607,0.885473,-2.701891,0.009806,0.003282,-0.022984,0.178927,-0.774215,-0.607105,-0.009234,0.011657,0.004429,-31.342102,-13.968483,-38.167503,,,,,,,
1512177103.644418,0.287420,0.885373,-2.702819,0.002374,0.004346,-0.024151,0.179443,-0.774151,-0.607034,-0.008010,0.007687,0.002664,-31.343109,-14.193489,-38.167610,,,,,,,
1512177103.664437,0.288029,0.885234,-2.703762,-0.006146,0.002201,-0.024280,0.179843,-0.774063,-0.607028,-0.006091,0.000992,0.010974,-31.190414,-13.593269,-38.168602,,,,,,,
1512177103.684426,0.288170,0.884760,-2.704384,-0.020077,-0.030946,-0.022469,0.180032,-0.773763,-0.607355,0.003241,-0.008525,-0.005133,-31.566833,-13.893822,-38.315559,,,,,,,
1512177103.704446,0.287792,0.884353,-2.704999,-0.008380,-0.038403,-0.020190,0.179892,-0.773505,-0.607724,0.003030,-0.003426,0.001584,-31.117401,-14.043159,-38.094460,,,,,,,
1512177103.724435,0.287787,0.884456,-2.705827,0.022559,-0.019128,-0.020741,0.179867,-0.773570,-0.607649,0.000355,0.000041,0.002195,-31.565796,-13.668831,-38.240456,,,,,,,
1512177103.744424,0.288426,0.885002,-2.706930,0.038667,0.000138,-0.026836,0.180135,-0.773916,-0.607129,-0.000142,0.001119,0.000943,-31.416763,-13.893608,-38.166832,,,,,,,
1512177103.764443,0.289589,0.885515,-2.708198,0.030205,0.019357,-0.030091,0.180727,-0.774241,-0.606538,-0.003985,-0.000036,0.005662,-31.418533,-14.268608,-38.317009,,,,,,,
1512177103.784432,0.290742,0.885874,-2.709433,0.026986,0.008663,-0.030178,0.181347,-0.774468,-0.606063,-0.002208,0.002389,0.008391,-31.266129,-13.743385,-38.243050,,,,,,,
1512177103.804452,0.291613,0.886100,-2.710613,0.015244,-0.006306,-0.029332,0.181824,-0.774611,-0.605737,-0.001053,0.002516,0.011987,-31.492783,-14.118721,-38.166298,,,,,,,
1512177103.824441,0.292042,0.886078,-2.711662,-0.000756,-0.014879,-0.029595,0.182089,-0.774597,-0.605675,-0.009436,0.005173,0.017403,-31.193069,-14.193275,-38.093895,,,,,,,
1512177103.844430,0.292460,0.885647,-2.712476,-0.018920,-0.008502,-0.026637,0.182439,-0.774324,-0.605919,-0.008031,0.006624,0.013771,-31.941727,-13.894386,-38.087379,,,,,,,
1512177103.864449,0.292896,0.885305,-2.713228,-0.006136,0.002199,-0.025348,0.182779,-0.774108,-0.606093,-0.004511,0.011275,0.016218,-31.492783,-14.118721,-38.166298,,,,,,,
1512177103.884438,0.293854,0.885175,-2.714166,0.003520,0.021446,-0.028340,0.183389,-0.774025,-0.606014,-0.000879,-0.000251,0.010341,-31.416809,-13.893608,-38.241844,,,,,,,
1512177103.904458,0.295141,0.884925,-2.715086,-0.013479,0.040654,-0.030650,0.184225,-0.773867,-0.605962,-0.000448,0.004229,0.007146,-31.492859,-14.118721,-38.316307,,,,,,,
1512177103.924447,0.296569,0.884550,-2.715834,-0.007289,0.044912,-0.017752,0.185175,-0.773630,-0.605976,0.009497,-0.004751,-0.003643,-31.270584,-14.718391,-38.393501,,,,,,,
1512177103.944436,0.297719,0.884552,-2.716431,0.010741,0.027837,-0.013288,0.185871,-0.773631,-0.605761,-0.000263,0.002070,-0.001310,-31.493408,-14.268715,-38.091377,,,,,,,
1512177103.964456,0.298239,0.884877,-2.717118,0.024551,-0.009531,-0.012151,0.186112,-0.773837,-0.605424,-0.003174,-0.001630,-0.001936,-31.792511,-14.044167,-38.313713,,,,,,,
1512177103.984445,0.298238,0.885174,-2.717841,0.016114,-0.034098,-0.018755,0.186044,-0.774025,-0.605205,-0.009408,-0.003639,-0.004216,-31.567398,-14.043831,-38.090630,,,,,,,
1512177104.004464,0.298128,0.885240,-2.718755,0.007667,-0.031969,-0.024203,0.185962,-0.774067,-0.605176,-0.011387,0.001545,-0.013034,-31.492065,-13.968712,-38.091240,,,,,,,
1512177104.024453,0.298230,0.885351,-2.719388,0.014861,-0.007426,-0.006957,0.185999,-0.774137,-0.605075,-0.006052,-0.003985,-0.013547,-31.266907,-13.893379,-38.468117,,,,,,,
1512177104.044442,0.298399,0.885778,-2.719563,0.023104,0.004305,0.011328,0.186004,-0.774407,-0.604728,0.000779,-0.010795,-0.014276,-31.268417,-14.268379,-38.093285,,,,,,,
1512177104.064462,0.297947,0.886379,-2.719479,0.026229,-0.024537,0.014471,0.185594,-0.774787,-0.604367,-0.001634,-0.006524,-0.005664,-31.495102,-14.643715,-38.091545,,,,,,,
1512177104.084451,0.297535,0.886982,-2.719505,0.032760,-0.008489,0.007160,0.185208,-0.775169,-0.603996,-0.009243,-0.006920,0.006492,-31.266388,-13.818382,-38.093071,,,,,,,
1512177104.104470,0.297599,0.887582,-2.719660,0.029635,0.002193,0.002886,0.185110,-0.775547,-0.603540,-0.005697,-0.002880,0.003671,-31.267136,-13.968376,-38.243141,,,,,,,
1512177104.124459,0.298028,0.887997,-2.720203,0.020281,0.008619,-0.011085,0.185275,-0.775810,-0.603152,-0.001711,0.000571,0.002856,-31.492813,-14.118721,-38.241310,,,,,,,
1512177104.144479,0.298558,0.888294,-2.720753,0.021312,0.010751,-0.008931,0.185526,-0.775997,-0.602834,-0.000270,0.003444,0.003301,-31.718796,-14.344063,-38.164497,,,,,,,
1512177104.164468,0.299223,0.888701,-2.721266,0.025521,0.020368,-0.004570,0.185834,-0.776253,-0.602408,0.007449,0.007363,0.004233,-31.722397,-15.094063,-38.614845,,,,,,,
1512177104.184457,0.299678,0.889311,-2.721460,0.032708,0.016071,0.011509,0.185968,-0.776638,-0.601871,0.009359,0.009426,0.012501,-31.642853,-14.118950,-38.315025,,,,,,,
1512177104.204476,0.299664,0.890062,-2.721230,0.031436,0.008572,0.024259,0.185788,-0.777111,-0.601317,0.007907,0.010601,0.023359,-31.418747,-14.343605,-38.092049,,,,,,,
1512177104.224465,0.299109,0.890631,-2.720705,0.012205,-0.010687,0.026047,0.185323,-0.777469,-0.600997,0.000681,0.009463,0.031936,-31.343872,-14.343498,-38.317680,,,,,,,
1512177104.244485,0.297991,0.890419,-2.719969,-0.037806,-0.034253,0.018842,0.184700,-0.777335,-0.601361,-0.006691,0.009086,0.028516,-31.419540,-14.493614,-38.317116,,,,,,,
1512177104.264474,0.296420,0.889200,-2.719003,-0.078201,-0.036437,0.011853,0.184032,-0.776568,-0.602557,-0.004039,0.008379,0.011965,-31.794434,-14.494164,-38.088921,,,,,,,
1512177104.284463,0.295345,0.887869,-2.718133,-0.064256,0.000975,0.007919,0.183684,-0.775729,-0.603742,0.002549,0.007846,-0.012087,-31.419312,-14.418602,-38.542076,,,,,,,
1512177104.304482,0.295231,0.887326,-2.717634,-0.011002,0.025616,0.011974,0.183738,-0.775386,-0.604166,0.007454,0.000453,-0.016943,-31.719086,-14.419060,-38.089531,,,,,,,
1512177104.324471,0.295655,0.887645,-2.717507,0.024248,0.027817,0.008230,0.183922,-0.775587,-0.603852,0.011726,-0.008654,-0.005264,-31.867783,-14.119286,-38.163109,,,,,,,
1512177104.344491,0.295882,0.888332,-2.717468,0.032611,0.003242,0.016793,0.183904,-0.776021,-0.603300,0.005870,-0.007777,0.011381,-31.567856,-14.118828,-38.315666,,,,,,,
1512177104.364480,0.295731,0.888774,-2.717496,0.010431,-0.003177,0.003655,0.183713,-0.776299,-0.603000,-0.002927,-0.001441,0.025073,-31.718750,-14.344063,-38.089500,,,,,,,
1512177104.384469,0.295490,0.888828,-2.717466,0.000785,-0.017080,0.006668,0.183555,-0.776334,-0.603004,-0.003135,0.006177,0.016563,-31.942734,-14.119392,-38.087471,,,,,,,
1512177104.404488,0.294675,0.888695,-2.717202,-0.016365,-0.029941,0.010634,0.183094,-0.776250,-0.603252,-0.018818,0.009725,0.020687,-31.944199,-14.419395,-38.312614,,,,,,,
1512177104.424477,0.293767,0.888063,-2.716714,-0.046156,-0.020363,0.008106,0.182688,-0.775851,-0.603887,-0.021204,0.003741,0.012503,-32.317810,-14.119957,-38.234291,,,,,,,
1512177104.444497,0.292748,0.887052,-2.716105,-0.061036,-0.023582,0.005749,0.182299,-0.775213,-0.604824,-0.016954,-0.001749,0.000835,-31.717697,-14.119057,-38.014397,,,,,,,
1512177104.464486,0.291729,0.885717,-2.715405,-0.080240,-0.022546,0.006540,0.181980,-0.774369,-0.606000,-0.006672,-0.010345,-0.012210,-31.717102,-13.969048,-38.164314,,,,,,,
1512177104.484451,0.289681,0.883800,-2.714293,-0.119729,-0.071744,0.006863,0.181162,-0.773154,-0.607793,-0.002833,-0.014962,-0.016459,-31.941162,-13.744392,-38.312309,,,,,,,
1512177104.504471,0.286750,0.880952,-2.713070,-0.167544,-0.109183,-0.004621,0.180002,-0.771345,-0.610431,0.012381,-0.016252,-0.024076,-31.565674,-13.668831,-38.015465,,,,,,,
1512177104.524459,0.283638,0.877979,-2.711997,-0.131201,-0.104844,-0.010477,0.178742,-0.769450,-0.613187,0.011428,-0.007894,-0.020129,-31.942734,-14.119392,-38.087471,,,,,,,
1512177104.544478,0.281872,0.876479,-2.711369,-0.046179,-0.028910,0.009143,0.177980,-0.768490,-0.614610,0.010496,0.005749,-0.004577,-31.940720,-13.669395,-38.087273,,,,,,,
1512177104.564467,0.281772,0.876698,-2.711029,0.033681,0.026744,0.017957,0.177872,-0.768631,-0.614466,0.004776,0.015365,0.009562,-31.939697,-13.444389,-38.087166,,,,,,,
1512177104.584456,0.282537,0.877459,-2.711094,0.022083,0.047030,0.010394,0.178179,-0.769117,-0.613768,0.008772,0.013105,0.030363,-32.165604,-13.669731,-37.860359,,,,,,,
1512177104.604476,0.282841,0.877220,-2.711095,-0.036309,-0.011772,-0.006645,0.178416,-0.768964,-0.613890,0.010609,0.021040,0.022002,-32.164368,-13.369728,-38.085213,,,,,,,
1512177104.624465,0.281683,0.875688,-2.711124,-0.090443,-0.075911,-0.023642,0.178032,-0.767985,-0.615227,0.001396,0.018564,0.029274,-32.015152,-13.519493,-38.311562,,,,,,,
1512177104.644485,0.279779,0.873782,-2.711103,-0.090512,-0.084467,-0.020477,0.177265,-0.766762,-0.616970,0.000088,0.011712,0.039257,-32.165604,-13.669731,-37.860359,,,,,,,
1512177104.664474,0.278237,0.872099,-2.710956,-0.083136,-0.059899,-0.013888,0.176667,-0.765681,-0.618482,-0.014207,0.012080,0.042005,-32.165344,-13.594734,-38.010323,,,,,,,
1512177104.684463,0.277022,0.870358,-2.710934,-0.087283,-0.065234,-0.021430,0.176280,-0.764560,-0.619978,-0.015117,0.004428,0.017408,-32.390045,-13.520058,-38.083382,,,,,,,
1512177104.704483,0.275486,0.867980,-2.711026,-0.137110,-0.083428,-0.038202,0.175821,-0.763025,-0.621996,-0.011210,-0.010229,0.001436,-32.465637,-13.670174,-37.932808,,,,,,,
1512177104.724472,0.273324,0.864455,-2.710905,-0.190407,-0.110220,-0.041205,0.175202,-0.760742,-0.624961,-0.012924,-0.015626,-0.017801,-32.537308,-12.920280,-38.006828,,,,,,,
1512177104.744490,0.270558,0.860744,-2.710319,-0.174847,-0.099565,-0.014290,0.174226,-0.758328,-0.628159,-0.009034,-0.009693,-0.030380,-32.611511,-12.770393,-37.781120,,,,,,,
1512177104.764479,0.268141,0.858305,-2.709254,-0.098497,-0.064247,0.012526,0.173196,-0.756736,-0.630359,-0.000452,-0.010018,-0.042919,-32.461517,-12.770164,-37.782387,,,,,,,
1512177104.784468,0.266299,0.857397,-2.708354,-0.033645,-0.052417,0.024169,0.172216,-0.756141,-0.631341,0.004664,-0.012810,-0.041389,-32.310760,-12.619942,-37.633598,,,,,,,
1512177104.804488,0.264546,0.856939,-2.707548,-0.036751,-0.062027,0.017693,0.171199,-0.755842,-0.631976,-0.001033,-0.003664,-0.016721,-32.611450,-12.770393,-37.631126,,,,,,,
1512177104.824477,0.262282,0.855483,-2.706849,-0.098211,-0.083437,-0.005659,0.170053,-0.754888,-0.633424,-0.007730,0.001637,0.018220,-32.310471,-12.544945,-37.708565,,,,,,,
1512177104.844496,0.260027,0.853085,-2.706355,-0.131195,-0.099502,-0.010457,0.169089,-0.753313,-0.635553,0.000711,0.007128,0.025339,-32.684753,-12.395500,-37.630318,,,,,,,
1512177104.864486,0.257619,0.850481,-2.705762,-0.121611,-0.092011,-0.009225,0.168057,-0.751598,-0.637854,0.000232,0.010326,0.015203,-32.834717,-12.395729,-37.554024,,,,,,,
1512177104.884475,0.255496,0.848778,-2.705267,-0.066345,-0.076997,0.001220,0.167026,-0.750474,-0.639446,0.001263,0.003876,0.000957,-33.210022,-12.471291,-37.475883,,,,,,,
1512177104.904495,0.254199,0.847961,-2.705027,-0.035355,-0.033142,-0.000307,0.166351,-0.749933,-0.640255,-0.010940,-0.001104,0.014950,-32.909714,-12.395836,-37.553398,,,,,,,
1512177104.924484,0.253761,0.847187,-2.704755,-0.052423,-0.006467,0.001671,0.166216,-0.749421,-0.640890,-0.010103,0.004228,0.017797,-33.134308,-12.321175,-37.401451,,,,,,,
1512177104.944504,0.253167,0.845485,-2.704602,-0.104301,-0.024665,-0.021534,0.166155,-0.748293,-0.642223,-0.010943,0.002825,0.029598,-32.909302,-12.320839,-37.403358,,,,,,,
1512177104.964493,0.252629,0.842995,-2.704470,-0.126644,-0.011872,-0.022876,0.166274,-0.746639,-0.644114,-0.001922,-0.000752,0.023829,-33.283295,-12.096397,-37.400063,,,,,,,
1512177104.984482,0.252206,0.840829,-2.704109,-0.093959,-0.011867,-0.001082,0.166405,-0.745196,-0.645749,0.019188,-0.009366,-0.023899,-32.832733,-11.945732,-37.628822,,,,,,,
1512177105.004500,0.250953,0.839969,-2.703360,-0.022960,-0.042791,0.022222,0.165755,-0.744623,-0.646577,0.007906,-0.001883,-0.023970,-33.132736,-11.946175,-37.626274,,,,,,,
1512177105.024489,0.249778,0.840067,-2.702836,-0.000429,-0.020306,0.015166,0.164977,-0.744688,-0.646701,-0.010909,0.000547,-0.001996,-33.057251,-11.871071,-37.326881,,,,,,,
1512177105.044509,0.249380,0.839989,-2.702522,-0.013154,0.001043,0.011857,0.164734,-0.744636,-0.646823,-0.006836,0.005363,0.001605,-32.982651,-11.945961,-37.477547,,,,,,,
1512177105.064498,0.249139,0.839947,-2.702414,0.002998,-0.011731,0.001385,0.164586,-0.744608,-0.646892,0.000179,0.012186,-0.000889,-32.832916,-12.020729,-37.328865,,,,,,,
1512177105.084487,0.248706,0.839747,-2.702758,-0.016963,-0.038431,-0.018187,0.164342,-0.744474,-0.647108,0.000316,0.002958,0.022459,-32.907623,-11.945839,-37.403191,,,,,,,
1512177105.104506,0.248163,0.839064,-2.703234,-0.035038,-0.043788,-0.020597,0.164116,-0.744018,-0.647690,0.000588,0.003738,0.019867,-32.982986,-12.020958,-37.477592,,,,,,,
1512177105.124496,0.247580,0.838463,-2.703660,-0.018083,-0.036297,-0.013928,0.163848,-0.743616,-0.648219,0.002260,0.000193,0.009212,-32.907242,-11.870842,-37.328148,,,,,,,
1512177105.144516,0.247261,0.838533,-2.704079,0.019130,-0.021297,-0.006939,0.163628,-0.743663,-0.648221,-0.003747,0.001231,0.001813,-33.058563,-12.171059,-37.252022,,,,,,,
1512177105.164505,0.247430,0.838815,-2.704513,0.003159,-0.002100,-0.008174,0.163687,-0.743852,-0.647990,-0.005087,0.001649,0.005458,-32.683258,-12.095497,-37.330162,,,,,,,
1512177105.184494,0.246756,0.838027,-2.704667,-0.064940,-0.058792,-0.017883,0.163392,-0.743325,-0.648669,-0.004213,-0.000084,0.000064,-33.133362,-12.096184,-37.551338,,,,,,,
1512177105.204512,0.245311,0.836339,-2.704905,-0.081884,-0.078030,-0.025658,0.162760,-0.742194,-0.650120,-0.001230,-0.005578,-0.008938,-33.281906,-11.796394,-37.324928,,,,,,,
1512177105.224501,0.244360,0.835173,-2.705039,-0.035211,-0.027792,-0.009886,0.162350,-0.741413,-0.651114,-0.004895,-0.000256,-0.012384,-33.282990,-12.021400,-37.475029,,,,,,,
1512177105.244521,0.244457,0.835190,-2.705218,0.018988,0.011793,0.002766,0.162411,-0.741424,-0.651085,0.000217,0.002456,-0.016212,-33.282364,-11.871407,-37.549965,,,,,,,
1512177105.264510,0.244584,0.836037,-2.705296,0.045453,0.000064,0.013770,0.162341,-0.741992,-0.650456,0.005002,-0.000897,-0.005581,-33.358597,-12.171516,-37.324471,,,,,,,
1512177105.284499,0.244364,0.836694,-2.705353,0.019982,-0.014916,0.005886,0.162080,-0.742432,-0.650019,-0.003480,-0.004653,0.007974,-33.133667,-12.171181,-37.476387,,,,,,,
1512177105.304518,0.243732,0.836791,-2.705302,-0.004535,-0.030971,0.005477,0.161652,-0.742498,-0.650050,-0.008362,-0.000682,0.003780,-33.132248,-11.871178,-37.326241,,,,,,,
1512177105.324507,0.243297,0.836684,-2.705315,-0.000188,-0.009594,0.001349,0.161388,-0.742426,-0.650198,-0.005520,0.007532,0.010565,-33.207550,-11.946297,-37.250633,,,,,,,
1512177105.344527,0.243218,0.837045,-2.705311,0.028405,-0.002102,0.012447,0.161272,-0.742667,-0.649951,0.004225,0.003165,0.002185,-33.207962,-12.021294,-37.400673,,,,,,,
1512177105.364516,0.243031,0.837807,-2.705339,0.034884,-0.005279,0.008270,0.161015,-0.743178,-0.649431,-0.001743,0.005110,0.010088,-33.133560,-12.171181,-37.251381,,,,,,,
1512177105.384506,0.243223,0.838463,-2.705484,0.029633,0.013945,0.003994,0.161022,-0.743617,-0.648927,-0.006511,0.000147,0.018754,-33.283188,-12.096397,-37.175072,,,,,,,
1512177105.404525,0.243638,0.838848,-2.705691,0.008443,0.022472,-0.003746,0.161222,-0.743874,-0.648582,-0.005353,0.002343,0.024528,-33.207626,-11.946297,-37.400627,,,,,,,
1512177105.424515,0.244082,0.838415,-2.705942,-0.031942,0.002134,-0.011863,0.161588,-0.743584,-0.648823,0.004809,-0.000816,0.006657,-33.132614,-11.946175,-37.401268,,,,,,,
1512177105.444534,0.243753,0.837800,-2.706174,-0.021313,-0.027763,-0.011814,0.161484,-0.743173,-0.649320,0.005966,0.001229,0.001569,-33.132126,-11.871178,-37.101234,,,,,,,
1512177105.464522,0.243508,0.837758,-2.706404,0.010492,-0.008513,-0.000628,0.161333,-0.743145,-0.649390,-0.001162,0.000225,-0.000665,-33.208176,-12.096291,-37.175713,,,,,,,
1512177105.484511,0.243576,0.838100,-2.706631,0.014809,0.002185,-0.002658,0.161316,-0.743373,-0.649132,-0.009217,0.005321,0.001153,-33.359573,-12.396507,-37.249580,,,,,,,
1512177105.504513,0.243911,0.838216,-2.706940,0.006331,0.009651,-0.005955,0.161513,-0.743451,-0.648994,-0.006285,0.000760,0.003486,-32.907623,-11.945839,-37.403191,,,,,,,
1512177105.524502,0.244232,0.838452,-2.707275,0.019095,0.006468,-0.003646,0.161679,-0.743609,-0.648772,-0.008175,0.003604,0.004699,-33.283218,-12.096397,-37.250069,,,,,,,
1512177105.544521,0.244387,0.838793,-2.707442,0.011458,-0.005318,0.005794,0.161717,-0.743837,-0.648502,0.001857,-0.005187,-0.000287,-33.282623,-11.946404,-37.400002,,,,,,,
1512177105.564510,0.243562,0.838647,-2.707227,-0.024823,-0.039556,0.006216,0.161209,-0.743739,-0.648740,-0.004348,-0.000142,-0.007465,-33.206268,-11.646278,-37.400490,,,,,,,
1512177105.584530,0.242649,0.837901,-2.706889,-0.038687,-0.018219,0.007153,0.160750,-0.743241,-0.649425,-0.004744,-0.001144,0.001003,-33.433258,-12.096626,-37.323799,,,,,,,
1512177105.604519,0.242101,0.837828,-2.706528,0.010230,-0.009612,0.015356,0.160407,-0.743191,-0.649566,0.003961,0.001996,-0.003342,-33.282288,-11.871407,-37.399956,,,,,,,
1512177105.624508,0.241558,0.838194,-2.706236,0.012354,-0.014951,0.015367,0.159989,-0.743436,-0.649389,0.002334,0.000516,0.002782,-33.357956,-12.021507,-37.399391,,,,,,,
1512177105.644527,0.240786,0.838242,-2.706106,-0.008814,-0.044867,0.005365,0.159479,-0.743469,-0.649477,0.003958,-0.003129,0.008974,-33.281830,-11.796394,-37.174934,,,,,,,
1512177105.664516,0.239574,0.837746,-2.705705,-0.036679,-0.034248,0.014592,0.158779,-0.743137,-0.650028,-0.000042,-0.000302,0.014073,-33.731873,-11.797081,-37.246117,,,,,,,
1512177105.684536,0.238624,0.837217,-2.705182,-0.025947,-0.013927,0.011621,0.158255,-0.742783,-0.650561,-0.008993,0.004700,0.012270,-33.656570,-11.721962,-37.321709,,,,,,,
1512177105.704525,0.238299,0.836629,-2.704849,-0.035425,0.003160,0.005146,0.158146,-0.742389,-0.651037,-0.004155,0.001895,0.006979,-33.656570,-11.721962,-37.321709,,,,,,,
1512177105.724514,0.238253,0.836203,-2.704584,-0.014110,0.016005,0.005497,0.158191,-0.742103,-0.651351,0.005719,0.005302,-0.003999,-33.507584,-11.946739,-37.323082,,,,,,,
1512177105.744533,0.238658,0.836536,-2.704505,0.029531,0.025680,0.010429,0.158396,-0.742327,-0.651047,0.006506,0.004076,-0.005508,-33.507172,-11.871742,-37.173058,,,,,,,
1512177105.764522,0.238693,0.837408,-2.704580,0.042354,-0.010610,0.007292,0.158266,-0.742911,-0.650412,0.004546,0.001700,0.003561,-33.431488,-11.721626,-37.173622,,,,,,,
1512177105.784542,0.238625,0.838113,-2.705169,0.033064,-0.019128,-0.010993,0.158098,-0.743382,-0.649914,-0.001268,-0.003475,0.011486,-33.281494,-11.721397,-37.174889,,,,,,,
1512177105.804531,0.238557,0.838668,-2.705809,0.030913,-0.023412,-0.011043,0.157956,-0.743753,-0.649523,-0.008695,0.002497,0.011965,-33.731827,-11.797081,-37.171104,,,,,,,
1512177105.824520,0.238870,0.839199,-2.706507,0.026722,0.005428,-0.014202,0.158066,-0.744108,-0.649091,-0.015320,0.002821,0.022626,-33.508636,-12.171745,-37.398186,,,,,,,
1512177105.844539,0.239556,0.839256,-2.707073,-0.003102,0.017138,-0.014591,0.158501,-0.744147,-0.648940,-0.007729,0.003393,0.007506,-33.731796,-11.797081,-37.096107,,,,,,,
1512177105.864528,0.239803,0.838876,-2.707471,-0.020197,-0.009597,-0.013867,0.158729,-0.743892,-0.649176,-0.002219,0.002193,-0.000207,-33.731537,-11.722069,-37.246071,,,,,,,
1512177105.884548,0.239680,0.838644,-2.707801,-0.001100,-0.014924,-0.009348,0.158689,-0.743738,-0.649363,0.002459,0.002771,-0.000433,-33.282089,-11.871407,-37.024971,,,,,,,
1512177105.904537,0.239872,0.838644,-2.708269,0.000058,0.002181,-0.013533,0.158814,-0.743737,-0.649333,0.006286,-0.007224,-0.003576,-33.508072,-12.096733,-36.948158,,,,,,,
1512177105.924526,0.239886,0.838398,-2.708582,-0.013805,-0.012792,-0.013785,0.158867,-0.743573,-0.649508,0.002617,-0.002017,-0.006132,-33.507401,-11.946739,-36.948097,,,,,,,
1512177105.944546,0.239802,0.837809,-2.709155,-0.033855,-0.035233,-0.028016,0.158916,-0.743179,-0.649947,0.003376,-0.006547,-0.010804,-33.582733,-12.021858,-36.947487,,,,,,,
1512177105.964535,0.238440,0.837109,-2.709459,-0.023538,-0.091860,-0.008869,0.158154,-0.742710,-0.650668,0.011920,-0.010174,-0.008252,-34.032028,-11.872536,-36.868599,,,,,,,
1512177105.984554,0.236536,0.836451,-2.709760,-0.040256,-0.113215,-0.031578,0.157029,-0.742270,-0.651443,0.003677,0.004980,-0.002000,-33.732101,-11.872078,-37.021141,,,,,,,
1512177106.004543,0.234688,0.835301,-2.710892,-0.046346,-0.138819,-0.050942,0.156023,-0.741499,-0.652561,-0.001497,0.001051,-0.010494,-33.732056,-11.872078,-36.946144,,,,,,,
1512177106.024532,0.232807,0.834099,-2.712293,-0.052614,-0.146286,-0.058519,0.155001,-0.740692,-0.653720,-0.004794,0.000946,0.001804,-33.957733,-12.022408,-36.944313,,,,,,,
1512177106.044552,0.229927,0.832315,-2.713773,-0.094030,-0.248868,-0.073335,0.153419,-0.739492,-0.655450,-0.019599,-0.013651,-0.008186,-34.105301,-11.497643,-36.792793,,,,,,,
1512177106.064541,0.225837,0.830327,-2.716033,-0.090488,-0.259502,-0.094642,0.151066,-0.738152,-0.657504,0.004849,0.013268,0.014468,-34.256454,-11.797859,-36.416649,,,,,,,
1512177106.084560,0.223035,0.828006,-2.717893,-0.097123,-0.194390,-0.077457,0.149601,-0.736584,-0.659593,-0.014836,0.001690,0.012804,-34.331161,-11.722969,-36.490990,,,,,,,
1512177106.104549,0.220825,0.826316,-2.719326,-0.051592,-0.124930,-0.055234,0.148415,-0.735440,-0.661135,-0.015496,0.013013,0.007754,-34.480789,-11.648201,-36.414665,,,,,,,
1512177106.124538,0.220856,0.826078,-2.720664,0.023864,0.001195,-0.034511,0.148474,-0.735279,-0.661302,-0.013190,0.013034,0.027925,-34.780823,-11.648643,-36.487129,,,,,,,
1512177106.144558,0.222062,0.826943,-2.721723,0.052411,0.026844,-0.019084,0.149131,-0.735865,-0.660501,-0.009117,0.000956,0.021830,-34.409241,-12.398094,-36.565651,,,,,,,
1512177106.164547,0.222785,0.826603,-2.722626,-0.065544,-0.017086,-0.044400,0.149664,-0.735635,-0.660638,-0.011756,0.005379,0.015847,-34.482849,-12.098198,-36.489876,,,,,,,
1512177106.184566,0.220682,0.822575,-2.723627,-0.270573,-0.230931,-0.098219,0.148922,-0.732900,-0.663837,0.003162,-0.018687,-0.030194,-34.555740,-11.648308,-36.339027,,,,,,,
1512177106.204555,0.212234,0.814887,-2.725265,-0.419102,-0.627338,-0.161451,0.144491,-0.727648,-0.670560,0.064035,-0.003004,-0.080280,-34.929214,-11.348869,-35.960701,,,,,,,
1512177106.224544,0.198542,0.805846,-2.727928,-0.398617,-0.859055,-0.186478,0.136589,-0.721417,-0.678897,0.042473,-0.027805,-0.072919,-35.154358,-11.424217,-35.583824,,,,,,,
1512177106.244564,0.183904,0.798699,-2.733555,-0.290088,-0.981488,-0.308994,0.127576,-0.716449,-0.685875,-0.032758,0.023029,-0.059151,-36.204178,-11.425789,-35.199913,,,,,,,
1512177106.264553,0.168213,0.790098,-2.743257,-0.442261,-1.192919,-0.465449,0.117827,-0.710422,-0.693842,-0.050017,0.008365,-0.022405,-37.027573,-11.127022,-34.667763,,,,,,,
1512177106.284572,0.150865,0.777235,-2.755936,-0.627138,-1.355350,-0.575298,0.107137,-0.701311,-0.704758,-0.068136,0.024080,0.006364,-37.403015,-11.277580,-34.214653,,,,,,,
1512177106.304561,0.130547,0.760477,-2.771168,-0.864603,-1.875595,-0.746857,0.094314,-0.689267,-0.718342,-0.160537,0.103696,-0.161830,-38.374649,-10.679039,-32.856087,,,,,,,
1512177106.324550,0.106900,0.738750,-2.801271,-1.006860,-2.341091,-1.515965,0.078882,-0.673364,-0.735090,-0.202051,0.219522,-0.046907,-39.500916,-11.130730,-31.346733,,,,,,,
1512177106.344570,0.085143,0.710438,-2.846432,-1.406557,-2.703013,-1.925985,0.064467,-0.652166,-0.755330,-0.281584,0.242391,0.073720,-40.702499,-11.657539,-29.761787,,,,,,,
1512177106.364559,0.066293,0.677219,-2.894269,-1.500669,-2.226694,-1.949145,0.051626,-0.626628,-0.777607,-0.286535,0.169124,0.145084,-41.604599,-12.333885,-27.879463,,,,,,,
1512177106.384579,0.059047,0.650103,-2.940916,-1.035947,-1.571255,-1.913484,0.046975,-0.605269,-0.794634,-0.334253,0.121077,0.176348,-42.205994,-12.784782,-26.599571,,,,,,,
1512177106.404568,0.059475,0.631368,-2.990643,-0.786301,-1.410120,-2.174751,0.047981,-0.590249,-0.805794,-0.361488,0.099832,0.228737,-42.286316,-14.134911,-25.099556,,,,,,,
1512177106.424557,0.063836,0.607859,-3.052925,-1.196579,-1.783159,-2.913310,0.052365,-0.571111,-0.819201,-0.277738,0.105184,0.231875,-41.616638,-15.408897,-24.280907,,,,,,,
1512177106.444576,0.067595,0.571581,-3.132083,-1.874189,-2.214506,-3.539741,0.056807,-0.540963,-0.839126,0.194139,-0.131569,0.179656,-40.572830,-16.907341,-23.165520,,,,,,,
1512177106.464565,0.057205,0.533511,3.097457,-1.443277,-1.921613,-1.147707,0.049228,-0.508560,-0.859618,1.658124,-1.135193,-0.386613,-39.828598,-18.331230,-21.897560,,,,,,,
1512177106.484585,0.011366,0.515241,3.122229,-0.714747,-1.535398,1.819306,0.009890,-0.492745,-0.870118,0.046094,-0.503822,-0.046463,-40.276733,-18.031898,-20.843590,,,,,,,
1512177106.504543,-0.021080,0.507067,-3.126333,-0.233697,-0.263258,1.154822,-0.018426,-0.485616,-0.873978,-0.221915,0.036626,0.245285,-41.694336,-16.459023,-20.230766,,,,,,,
1512177106.524532,-0.026542,0.505387,-3.114590,-0.004001,0.093672,0.172220,-0.023221,-0.484146,-0.874679,-0.347415,0.111755,-0.144196,-41.763306,-15.184120,-19.629539,,,,,,,
1512177106.544551,-0.024772,0.508965,-3.120232,0.321240,-0.180238,-0.428476,-0.021630,-0.487274,-0.872981,-0.082343,-0.044281,-0.138738,-41.388077,-15.108559,-19.857689,,,,,,,
1512177106.564540,-0.021390,0.521924,-3.131809,0.802135,-0.069221,-0.558643,-0.018541,-0.498549,-0.866663,-0.017959,-0.089067,-0.060293,-40.940292,-15.632896,-19.561745,,,,,,,
1512177106.584560,-0.013367,0.539514,3.135515,0.835132,0.024260,-0.809429,-0.011468,-0.513719,-0.857881,-0.015632,-0.021742,-0.127546,-41.019760,-16.608009,-19.711571,,,,,,,
1512177106.604549,-0.002214,0.551256,3.110707,0.373519,-0.180760,-1.207010,-0.001886,-0.523758,-0.851865,-0.011099,-0.026474,-0.084399,-40.424515,-17.657112,-19.792152,,,,,,,
1512177106.624538,0.007437,0.550111,3.078583,-0.305521,-0.458987,-1.481132,0.006340,-0.522782,-0.852443,-0.193108,-0.019622,-0.053197,-39.529312,-18.705772,-19.950279,,,,,,,
1512177106.644557,0.023811,0.539722,3.035422,-0.517935,-0.130168,-2.096053,0.020424,-0.513897,-0.857608,-0.303643,-0.025150,-0.052960,-39.157791,-19.455223,-20.178825,,,,,,,
1512177106.664546,0.050736,0.529764,2.980473,-0.311956,0.038636,-2.489052,0.043762,-0.505330,-0.861816,-0.150727,-0.093211,-0.016099,-37.441193,-21.252647,-20.794304,,,,,,,
1512177106.684566,0.084553,0.522320,2.923771,-0.167124,0.367683,-2.399460,0.073192,-0.498892,-0.863568,-0.115383,-0.174493,-0.022922,-35.799133,-22.900169,-21.859093,,,,,,,
1512177106.704555,0.112780,0.517028,2.874620,0.056609,0.053096,-1.953832,0.097831,-0.494299,-0.863769,0.032448,-0.297129,0.004684,-34.081558,-24.472603,-22.549477,,,,,,,
1512177106.724544,0.130256,0.518537,2.836938,0.391226,-0.005106,-1.432148,0.112814,-0.495610,-0.861188,-0.037176,-0.217006,0.080502,-32.438904,-25.970146,-23.764183,,,,,,,
1512177106.744563,0.140240,0.525261,2.808190,0.623643,-0.469068,-1.067935,0.120937,-0.501439,-0.856699,0.021534,0.084142,0.171274,-30.868561,-26.867790,-24.977974,,,,,,,
1512177106.764552,0.144929,0.540281,2.779966,1.107180,-0.435019,-1.168484,0.123852,-0.514377,-0.848574,0.054875,0.209308,0.004595,-30.197937,-27.841774,-24.984169,,,,,,,
1512177106.784572,0.150231,0.563933,2.746129,1.526730,-0.743926,-1.283945,0.126492,-0.534515,-0.835640,0.196277,0.349883,-0.013191,-28.853714,-29.114754,-25.071220,,,,,,,
1512177106.804561,0.160575,0.592995,2.714637,1.654683,-0.305500,-0.875460,0.132589,-0.558847,-0.818603,0.250911,0.413980,-0.192140,-27.517746,-32.337761,-24.109200,,,,,,,
1512177106.824550,0.162697,0.622867,2.698103,1.418213,-0.203765,-0.106706,0.131562,-0.583367,-0.801483,0.241592,0.371422,-0.041474,-27.517746,-32.337761,-24.109200,,,,,,,
1512177106.844569,0.157673,0.646912,2.702952,1.006381,0.021664,0.635418,0.125294,-0.602725,-0.788050,0.206951,0.333850,-0.039312,-27.221313,-33.237312,-23.137169,,,,,,,
1512177106.864559,0.154433,0.664823,2.721990,0.627580,0.658062,1.011664,0.121061,-0.616920,-0.777660,0.181445,0.299171,-0.031743,-27.970703,-33.088432,-23.280724,,,,,,,
1512177106.884578,0.154202,0.676550,2.749774,0.302144,0.904943,1.234877,0.119761,-0.626107,-0.770485,0.242803,0.298699,-0.060386,-28.418442,-32.564110,-23.501656,,,,,,,
1512177106.904567,0.151132,0.685622,2.782077,0.283003,0.821351,1.356904,0.116535,-0.633155,-0.765202,0.290737,0.244940,-0.037761,-29.316345,-32.115456,-23.343803,,,,,,,
1512177106.924587,0.143152,0.698944,2.817571,0.590750,0.684811,1.500543,0.109212,-0.643409,-0.757692,0.249171,0.216972,-0.003234,-30.064590,-31.741570,-23.187248,,,,,,,
1512177106.944576,0.130168,0.720074,2.855792,0.993481,0.535610,1.636984,0.097579,-0.659441,-0.745397,0.185533,0.182100,0.014867,-30.958893,-30.542915,-22.579048,,,,,,,
1512177106.964565,0.110943,0.746872,2.898249,1.198081,0.433122,1.766454,0.081245,-0.679347,-0.729306,0.117546,0.133082,0.016583,-32.008514,-30.544487,-21.820137,,,,,,,
1512177106.984584,0.088843,0.774811,2.943321,1.229185,0.473775,1.756382,0.063400,-0.699581,-0.711735,0.075547,0.097027,0.041324,-33.355453,-29.946510,-21.058372,,,,,,,
1512177107.004573,0.065750,0.802008,2.991316,1.231232,0.601813,1.832548,0.045681,-0.718754,-0.693762,0.038212,0.084797,0.070181,-34.550613,-28.973305,-20.147743,,,,,,,
1512177107.024593,0.038755,0.829598,3.046651,1.317106,0.690159,2.060106,0.026160,-0.737660,-0.674665,0.001154,0.063298,0.085691,-36.122314,-28.300667,-19.609032,,,,,,,
1512177107.044582,0.003149,0.858037,3.111904,1.398022,0.622592,2.256128,0.002059,-0.756560,-0.653921,-0.010802,0.030623,0.082800,-37.091736,-27.177116,-18.550240,,,,,,,
1512177107.064571,-0.039873,0.884868,-3.101396,1.355306,0.456028,2.188838,-0.025249,-0.773831,-0.632888,-0.001469,-0.023654,0.076736,-38.134277,-25.603676,-17.790596,,,,,,,
1512177107.084590,-0.087353,0.907247,-3.032409,1.174941,0.232875,1.995687,-0.053734,-0.787811,-0.613568,0.010658,-0.059250,0.061215,-39.401474,-23.955589,-17.028999,,,,,,,
1512177107.104579,-0.136562,0.924009,-2.968973,0.986097,-0.052100,1.732910,-0.082040,-0.798024,-0.597015,-0.029929,-0.045116,0.022628,-40.294083,-22.381920,-16.420631,,,,,,,
1512177107.124599,-0.187411,0.937891,-2.909953,0.989597,-0.220565,1.576728,-0.110204,-0.806312,-0.581133,-0.119029,-0.054253,0.009005,-41.190048,-21.558266,-15.737587,,,,,,,
1512177107.144588,-0.240147,0.952955,-2.851105,1.172004,-0.252189,1.503570,-0.137778,-0.815131,-0.562654,-0.139184,-0.124261,-0.025680,-41.633743,-20.283928,-14.608192,,,,,,,
1512177107.164577,-0.293816,0.969422,-2.791431,1.272372,-0.242154,1.364336,-0.163853,-0.824559,-0.541530,-0.148235,-0.158794,-0.043293,-42.755814,-19.760612,-13.473396,,,,,,,
1512177107.184596,-0.341427,0.985745,-2.738477,1.194124,-0.114448,1.009720,-0.184908,-0.833684,-0.520365,-0.123823,-0.196025,0.021022,-43.199707,-18.486275,-12.718971,,,,,,,
1512177107.204585,-0.377311,1.000015,-2.695914,1.004203,0.028875,0.767602,-0.199055,-0.841479,-0.502285,-0.109921,-0.197141,0.050183,-43.497452,-18.036720,-12.266228,,,,,,,
1512177107.224605,-0.408380,1.010698,-2.659669,0.785413,-0.064158,0.648974,-0.210979,-0.847203,-0.487580,-0.110569,-0.157603,0.075517,-43.945694,-17.662392,-12.112221,,,,,,,
1512177107.244594,-0.434629,1.018614,-2.630406,0.618920,-0.041623,0.467542,-0.220873,-0.851382,-0.475777,-0.106474,-0.127637,0.090203,-44.544952,-17.513298,-11.957054,,,,,,,
1512177107.264583,-0.449625,1.025132,-2.611105,0.439583,0.163658,0.233256,-0.225566,-0.854783,-0.467404,-0.085897,-0.102615,0.125959,-44.543381,-17.213295,-11.506920,,,,,,,
1512177107.284602,-0.451450,1.029080,-2.602325,0.167498,0.345178,0.063644,-0.224945,-0.856825,-0.463951,-0.037629,-0.075747,0.159600,-44.392212,-16.913063,-11.883049,,,,,,,
1512177107.304591,-0.444385,1.028461,-2.602123,-0.134231,0.340565,0.000622,-0.221889,-0.856506,-0.466008,0.038539,-0.044038,0.160527,-44.393936,-17.288063,-11.958229,,,,,,,
1512177107.324611,-0.435277,1.024204,-2.607010,-0.285154,0.191918,-0.035133,-0.219171,-0.854301,-0.471311,0.074700,-0.012017,0.156018,-44.318268,-17.062950,-12.633766,,,,,,,
1512177107.344600,-0.428321,1.019691,-2.613245,-0.256066,0.023246,-0.060880,-0.217486,-0.851946,-0.476327,0.065295,0.011584,0.123681,-44.469986,-17.438179,-12.707649,,,,,,,
1512177107.364589,-0.424609,1.016378,-2.618810,-0.210296,-0.076027,-0.061629,-0.216878,-0.850207,-0.479699,0.053045,0.031420,0.090371,-44.394089,-17.213066,-12.933189,,,,,,,
1512177107.384609,-0.422491,1.012684,-2.623573,-0.248382,-0.082589,-0.015298,-0.217148,-0.848256,-0.483019,0.050217,0.023458,0.058321,-44.468292,-17.063179,-12.707481,,,,,,,
1512177107.404598,-0.420454,1.007061,-2.626734,-0.332000,0.001481,0.081861,-0.218107,-0.845265,-0.487807,0.061124,0.008351,0.034743,-44.093338,-17.062614,-12.785667,,,,,,,
1512177107.424617,-0.418949,0.998900,-2.627633,-0.407155,0.058850,0.181180,-0.220171,-0.840876,-0.494420,0.067248,0.008921,0.014394,-44.240631,-16.462837,-12.784111,,,,,,,
1512177107.444606,-0.419789,0.990033,-2.625681,-0.354196,0.016041,0.264952,-0.223617,-0.836044,-0.501024,0.064483,-0.003418,-0.002485,-44.088013,-15.862617,-12.935112,,,,,,,
1512177107.464595,-0.425512,0.983188,-2.619947,-0.174498,-0.075597,0.288558,-0.228837,-0.832269,-0.504937,0.061998,-0.004508,-0.005027,-43.937302,-15.712379,-12.861320,,,,,,,
1512177107.484615,-0.434715,0.979933,-2.611828,0.007014,-0.140437,0.268576,-0.234614,-0.830460,-0.505264,0.033168,-0.018539,-0.004288,-44.086136,-15.487602,-12.559944,,,,,,,
1512177107.504584,-0.444025,0.978450,-2.602715,0.035890,-0.031436,0.268308,-0.239837,-0.829633,-0.504170,0.026061,-0.048983,0.021168,-44.384445,-15.113060,-12.557213,,,,,,,
1512177107.524603,-0.450036,0.975152,-2.594732,-0.115681,0.054821,0.283466,-0.244052,-0.827787,-0.505180,0.039203,-0.053027,0.027671,-44.082016,-14.587608,-12.409523,,,,,,,
1512177107.544592,-0.453691,0.969179,-2.588461,-0.217188,0.084546,0.299156,-0.248060,-0.824421,-0.508720,0.031446,-0.057888,0.036140,-44.305359,-14.212944,-12.482445,,,,,,,
1512177107.564581,-0.457032,0.963125,-2.582982,-0.181331,0.031279,0.255783,-0.251956,-0.820980,-0.512358,0.017443,-0.039097,0.029295,-44.230316,-14.212822,-12.408073,,,,,,,
1512177107.584601,-0.461033,0.959486,-2.578312,-0.055346,-0.023922,0.176394,-0.255331,-0.818896,-0.514018,0.009955,-0.052441,0.040751,-44.228302,-13.762825,-12.407860,,,,,,,
1512177107.604590,-0.465392,0.958538,-2.574527,0.026014,-0.073829,0.088917,-0.257918,-0.818352,-0.513593,0.003645,-0.038368,0.047025,-44.529495,-13.988274,-12.780418,,,,,,,
1512177107.624609,-0.468897,0.958527,-2.571953,0.022985,-0.064199,0.079313,-0.259720,-0.818346,-0.512694,0.007309,-0.062315,0.053191,-44.151688,-13.462700,-11.883369,,,,,,,
1512177107.644598,-0.472651,0.957666,-2.567853,0.008963,0.011465,0.157194,-0.261963,-0.817851,-0.512343,0.013657,-0.069203,0.071165,-44.376755,-13.463051,-12.031456,,,,,,,
1512177107.664587,-0.476992,0.956278,-2.562419,0.013047,0.006116,0.168966,-0.264706,-0.817051,-0.512208,0.005368,-0.064647,0.075487,-44.451797,-13.463158,-12.105827,,,,,,,
1512177107.684607,-0.481022,0.955667,-2.557804,0.044835,-0.024710,0.113881,-0.266999,-0.816699,-0.511580,0.006303,-0.077726,0.084319,-44.750336,-13.163597,-11.878136,,,,,,,
1512177107.704596,-0.484806,0.955642,-2.554750,0.023322,-0.087655,0.057916,-0.268943,-0.816684,-0.510584,0.010413,-0.082867,0.085291,-44.450333,-13.163155,-11.880684,,,,,,,
1512177107.724615,-0.486862,0.955600,-2.555058,-0.034784,-0.118527,-0.040044,-0.270007,-0.816660,-0.510060,0.004672,-0.076543,0.083455,-44.523880,-12.863258,-11.654915,,,,,,,
1512177107.744604,-0.485853,0.955023,-2.558660,-0.105350,-0.070468,-0.089938,-0.269712,-0.816327,-0.510749,0.000196,-0.070788,0.085791,-44.300827,-13.312935,-11.507042,,,,,,,
1512177107.764593,-0.481597,0.953365,-2.564443,-0.182698,0.023462,-0.114186,-0.268163,-0.815368,-0.513091,0.015081,-0.069031,0.081328,-44.374817,-13.088051,-11.506294,,,,,,,
1512177107.784613,-0.474347,0.950429,-2.571471,-0.253108,0.108792,-0.107449,-0.265528,-0.813665,-0.517149,0.028422,-0.071421,0.076872,-44.150116,-13.162697,-11.433235,,,,,,,
1512177107.804602,-0.465140,0.946666,-2.579046,-0.281852,0.170704,-0.106583,-0.262127,-0.811472,-0.522304,0.048077,-0.069952,0.088253,-44.602585,-13.688377,-11.654655,,,,,,,
1512177107.824622,-0.456114,0.943080,-2.586728,-0.237708,0.123830,-0.134888,-0.258683,-0.809371,-0.527258,0.061646,-0.063219,0.080573,-44.226685,-13.462822,-11.882729,,,,,,,
1512177107.844611,-0.448885,0.941871,-2.594028,-0.101690,0.033322,-0.178009,-0.255289,-0.808660,-0.529996,0.067041,-0.071986,0.082959,-44.077103,-13.537590,-12.034035,,,,,,,
1512177107.864600,-0.444004,0.942655,-2.601001,-0.052217,-0.073361,-0.209646,-0.252427,-0.809121,-0.530663,0.067872,-0.073462,0.081246,-43.702652,-13.612038,-12.487267,,,,,,,
1512177107.884619,-0.439163,0.943197,-2.608839,-0.103310,-0.053129,-0.212444,-0.249668,-0.809439,-0.531481,0.047779,-0.090982,0.084918,-43.328445,-13.836479,-12.040550,,,,,,,
1512177107.904608,-0.432333,0.942316,-2.617353,-0.178068,0.035389,-0.200428,-0.246331,-0.808922,-0.533821,0.046379,-0.090278,0.087059,-43.480957,-14.361702,-12.339516,,,,,,,
1512177107.924628,-0.423755,0.940357,-2.626320,-0.214436,0.084448,-0.191192,-0.242394,-0.807769,-0.537358,0.056832,-0.080186,0.090596,-43.558548,-14.961815,-12.114159,,,,,,,
1512177107.944617,-0.414746,0.938300,-2.635482,-0.200283,0.075962,-0.209138,-0.238212,-0.806554,-0.541040,0.064170,-0.063319,0.088632,-43.182266,-14.661247,-12.267220,,,,,,,
1512177107.964606,-0.405657,0.937465,-2.645486,-0.137399,0.046278,-0.274426,-0.233551,-0.806060,-0.543802,0.077820,-0.079667,0.090692,-43.034775,-15.186028,-12.568718,,,,,,,
1512177107.984625,-0.396397,0.937707,-2.656024,-0.121259,0.036708,-0.283820,-0.228429,-0.806204,-0.545761,0.101934,-0.084376,0.093353,-42.960907,-15.410912,-12.794472,,,,,,,
1512177108.004614,-0.388320,0.936881,-2.665640,-0.176822,0.002299,-0.213319,-0.224266,-0.805715,-0.548204,0.113518,-0.070186,0.086077,-42.810913,-15.410698,-12.795738,,,,,,,
1512177108.024634,-0.383056,0.934957,-2.673018,-0.168679,-0.053404,-0.128111,-0.221956,-0.804573,-0.550815,0.126726,-0.063972,0.078235,-42.962326,-15.710915,-12.944603,,,,,,,
1512177108.044623,-0.381693,0.933347,-2.677357,-0.100530,-0.137813,-0.062386,-0.221688,-0.803617,-0.552317,0.126671,-0.046817,0.064417,-42.738266,-15.935585,-12.796623,,,,,,,
1512177108.064612,-0.383549,0.932951,-2.679454,-0.021047,-0.176200,-0.035783,-0.222832,-0.803381,-0.552200,0.099968,-0.056132,0.068954,-42.887146,-15.710808,-12.570244,,,,,,,
1512177108.084631,-0.384488,0.933008,-2.681330,-0.048426,-0.079006,-0.051833,-0.223333,-0.803415,-0.551948,0.090230,-0.065619,0.068534,-42.812820,-15.860695,-12.570946,,,,,,,
1512177108.104620,-0.381197,0.931452,-2.685564,-0.174429,0.036259,-0.098032,-0.221980,-0.802487,-0.553840,0.093623,-0.064075,0.063682,-42.964951,-16.310921,-12.794884,,,,,,,
1512177108.124640,-0.374020,0.928427,-2.692485,-0.233394,0.102480,-0.139165,-0.218885,-0.800678,-0.557676,0.107679,-0.068539,0.061460,-42.588348,-15.935356,-12.947899,,,,,,,
1512177108.144629,-0.366155,0.925535,-2.699417,-0.197458,0.115310,-0.120480,-0.215320,-0.798943,-0.561540,0.131549,-0.071205,0.056977,-42.139053,-16.084694,-13.026802,,,,,,,
1512177108.164648,-0.361163,0.923393,-2.703687,-0.121915,0.057599,-0.050295,-0.213118,-0.797653,-0.564207,0.132796,-0.069321,0.057035,-42.290436,-16.384911,-13.100655,,,,,,,
1512177108.184637,-0.358600,0.922337,-2.705644,-0.055230,0.050176,-0.020566,-0.211968,-0.797015,-0.565540,0.118950,-0.073148,0.059376,-42.514099,-16.085243,-13.098610,,,,,,,
1512177108.204626,-0.355854,0.921942,-2.707025,-0.032607,0.110053,-0.031755,-0.210524,-0.796777,-0.566415,0.108686,-0.078773,0.064004,-42.515213,-16.310249,-13.323708,,,,,,,
1512177108.224646,-0.351680,0.921574,-2.708468,-0.044521,0.173027,-0.017852,-0.208258,-0.796554,-0.567564,0.100623,-0.088547,0.077467,-42.291565,-16.609917,-13.325752,,,,,,,
1512177108.244635,-0.346683,0.920764,-2.709745,-0.054080,0.215741,-0.017842,-0.205639,-0.796064,-0.569204,0.099911,-0.090990,0.082296,-41.990250,-16.309471,-13.403175,,,,,,,
1512177108.264654,-0.340755,0.919991,-2.711288,-0.065777,0.237086,-0.019005,-0.202467,-0.795596,-0.570993,0.122266,-0.109998,0.089579,-41.915741,-16.384361,-13.703835,,,,,,,
1512177108.284643,-0.335665,0.918909,-2.712531,-0.062894,0.181515,-0.002097,-0.199841,-0.794940,-0.572829,0.131420,-0.095502,0.085295,-41.841232,-16.459251,-14.004509,,,,,,,
1512177108.304632,-0.332687,0.918776,-2.712502,0.031637,0.138896,0.017248,-0.198169,-0.794859,-0.573521,0.110400,-0.089509,0.091527,-42.365631,-16.310020,-14.149986,,,,,,,
1512177108.324652,-0.331320,0.920714,-2.710665,0.134752,0.150763,0.034771,-0.196883,-0.796034,-0.572334,0.094329,-0.088137,0.100822,-42.591232,-16.460365,-13.998131,,,,,,,
1512177108.344641,-0.330148,0.923091,-2.708044,0.118576,0.178487,0.047426,-0.195598,-0.797470,-0.570772,0.092235,-0.089676,0.120196,-42.142090,-16.609688,-14.377022,,,,,,,
1512177108.364661,-0.327599,0.924528,-2.705766,0.063131,0.235011,0.051085,-0.193774,-0.798336,-0.570184,0.098910,-0.101551,0.137749,-42.292847,-16.759926,-14.525826,,,,,,,
1512177108.384650,-0.324387,0.925031,-2.704119,0.018525,0.209330,0.039689,-0.191813,-0.798639,-0.570422,0.116892,-0.097326,0.140491,-42.293900,-16.984917,-14.600929,,,,,,,
1512177108.404639,-0.322066,0.925219,-2.703318,0.008075,0.114277,0.022149,-0.190441,-0.798753,-0.570723,0.124126,-0.098174,0.136549,-42.443634,-16.910149,-14.749611,,,,,,,
1512177108.424658,-0.320404,0.925714,-2.703313,0.018190,0.076974,-0.010880,-0.189368,-0.799050,-0.570663,0.117667,-0.097358,0.121796,-42.292999,-16.759926,-14.825813,,,,,,,
1512177108.444647,-0.318373,0.926323,-2.703642,0.009594,0.102587,-0.005585,-0.188056,-0.799417,-0.570585,0.110511,-0.102363,0.121854,-42.293289,-16.834923,-14.750862,,,,,,,
1512177108.464667,-0.315477,0.926058,-2.703799,-0.046103,0.162282,0.013003,-0.186469,-0.799257,-0.571328,0.115668,-0.106642,0.112466,-41.845062,-17.209251,-14.904854,,,,,,,
1512177108.484656,-0.310804,0.924849,-2.704830,-0.093543,0.211410,-0.016294,-0.184092,-0.798530,-0.573113,0.116191,-0.111474,0.099923,-42.071701,-17.584587,-14.828117,,,,,,,
1512177108.504618,-0.303799,0.922980,-2.707735,-0.145029,0.249868,-0.060618,-0.180519,-0.797403,-0.575812,0.119423,-0.122076,0.089072,-41.919159,-16.984352,-15.129112,,,,,,,
1512177108.524637,-0.295183,0.920256,-2.711927,-0.189433,0.276549,-0.081422,-0.176183,-0.795757,-0.579421,0.119145,-0.117344,0.081558,-41.469681,-17.058678,-15.507973,,,,,,,
1512177108.544626,-0.285660,0.917265,-2.716593,-0.185052,0.296862,-0.087685,-0.171327,-0.793942,-0.583354,0.118577,-0.113758,0.075817,-41.396484,-17.433571,-15.733772,,,,,,,
1512177108.564646,-0.276034,0.914913,-2.720932,-0.130646,0.314041,-0.088968,-0.166212,-0.792510,-0.586771,0.108549,-0.113252,0.081843,-40.945496,-17.207893,-15.812492,,,,,,,
1512177108.584635,-0.266668,0.914275,-2.724784,-0.033286,0.319571,-0.109926,-0.160842,-0.792121,-0.588790,0.095550,-0.125131,0.088836,-40.949661,-18.032906,-16.712868,,,,,,,
1512177108.604624,-0.256385,0.914483,-2.729448,-0.049688,0.339919,-0.148470,-0.154738,-0.792247,-0.590254,0.085142,-0.137043,0.117491,-41.177032,-18.558235,-16.711205,,,,,,,
1512177108.624643,-0.244007,0.913220,-2.736246,-0.160735,0.363347,-0.202239,-0.147662,-0.791476,-0.593094,0.083712,-0.157361,0.134278,-41.025864,-18.258018,-17.087334,,,,,,,
1512177108.644632,-0.228569,0.909945,-2.746459,-0.275169,0.380481,-0.307240,-0.139075,-0.789470,-0.597825,0.059393,-0.139836,0.130998,-40.651871,-18.407448,-17.765587,,,,,,,
1512177108.664652,-0.208126,0.905315,-2.761097,-0.359443,0.491678,-0.428542,-0.127579,-0.786620,-0.604113,0.044343,-0.129976,0.129458,-40.429092,-18.857124,-18.142708,,,,,,,
1512177108.684641,-0.182719,0.899032,-2.779486,-0.463209,0.587863,-0.530984,-0.113087,-0.782725,-0.612007,0.061756,-0.119909,0.123253,-39.831146,-19.231224,-18.897987,,,,,,,
1512177108.704630,-0.153961,0.890633,-2.800223,-0.567890,0.652957,-0.580249,-0.096447,-0.777470,-0.621480,0.077236,-0.107036,0.119878,-39.610382,-20.055901,-19.950264,,,,,,,
1512177108.724649,-0.124388,0.879955,-2.821521,-0.652784,0.662491,-0.602764,-0.079054,-0.770710,-0.632262,0.095900,-0.069057,0.112777,-38.934296,-19.754890,-20.480873,,,,,,,
1512177108.744638,-0.094887,0.868563,-2.842462,-0.640281,0.665677,-0.585517,-0.061198,-0.763402,-0.643018,0.133707,-0.057765,0.116895,-37.812515,-20.353203,-21.540703,,,,,,,
1512177108.764658,-0.070127,0.857131,-2.859852,-0.611365,0.511677,-0.471564,-0.045868,-0.755967,-0.653000,0.159027,-0.031173,0.097855,-37.139389,-20.652184,-22.596581,,,,,,,
1512177108.784647,-0.051944,0.846422,-2.874099,-0.537722,0.305529,-0.422176,-0.034406,-0.748914,-0.661773,0.152708,-0.011523,0.072646,-36.841461,-21.026741,-23.349297,,,,,,,
1512177108.804636,-0.037149,0.837946,-2.887529,-0.391810,0.222422,-0.418220,-0.024846,-0.743270,-0.668529,0.139440,-0.012253,0.066448,-36.467621,-21.251183,-23.652580,,,,,,,
1512177108.824656,-0.023797,0.831441,-2.898923,-0.329296,0.270412,-0.327597,-0.016033,-0.738903,-0.673620,0.134472,-0.014194,0.075491,-35.867920,-21.250282,-24.257683,,,,,,,
1512177108.844645,-0.011861,0.824508,-2.906964,-0.375802,0.303240,-0.221553,-0.008052,-0.734214,-0.678870,0.165218,-0.023446,0.066748,-35.270203,-21.699394,-24.787987,,,,,,,
1512177108.864664,-0.002658,0.816956,-2.912249,-0.370565,0.248640,-0.153437,-0.001820,-0.729066,-0.684440,0.175144,-0.029021,0.051872,-34.669342,-21.473488,-25.092979,,,,,,,
1512177108.884653,0.005037,0.810631,-2.916640,-0.277991,0.212445,-0.144760,0.003471,-0.724722,-0.689032,0.196221,-0.043787,0.038840,-34.445007,-21.548149,-25.769920,,,,,,,
1512177108.904642,0.011741,0.806473,-2.920695,-0.182435,0.171956,-0.123262,0.008125,-0.721850,-0.692001,0.194359,-0.036099,0.017990,-34.820419,-21.623711,-25.916771,,,,,,,
1512177108.924662,0.016773,0.803152,-2.923019,-0.168938,0.165392,-0.037808,0.011648,-0.719549,-0.694344,0.189524,-0.031291,0.010094,-33.920578,-21.622368,-26.224419,,,,,,,
1512177108.944651,0.020270,0.800258,-2.923025,-0.120892,0.185643,0.023726,0.014118,-0.717536,-0.696377,0.165738,-0.020562,-0.013034,-33.995941,-21.697472,-26.298805,,,,,,,
1512177108.964670,0.024987,0.799483,-2.922340,-0.002594,0.313993,0.032284,0.017416,-0.716996,-0.696859,0.133158,-0.016982,-0.010325,-33.771774,-21.847130,-26.600792,,,,,,,
1512177108.984659,0.032204,0.799601,-2.921313,-0.010457,0.435696,0.062443,0.022442,-0.717078,-0.696630,0.147327,-0.028420,0.009695,-33.171692,-21.771233,-27.130867,,,,,,,
1512177109.004648,0.039231,0.798292,-2.918626,-0.108351,0.436511,0.116464,0.027374,-0.716165,-0.697393,0.176255,-0.026175,0.027074,-33.321625,-21.696465,-27.654549,,,,,,,
1512177109.024668,0.044260,0.795692,-2.915020,-0.137521,0.348832,0.134922,0.030963,-0.714348,-0.699104,0.180738,-0.015053,0.026741,-33.099701,-22.371132,-27.731773,,,,,,,
1512177109.044657,0.047369,0.794208,-2.911255,-0.030033,0.250711,0.141469,0.033186,-0.713309,-0.700063,0.164903,-0.015314,0.009221,-32.646545,-21.620445,-28.185234,,,,,,,
1512177109.064676,0.048430,0.795966,-2.906506,0.142842,0.232713,0.195084,0.033868,-0.714540,-0.698773,0.141501,-0.029036,0.027280,-32.947037,-21.695900,-28.482735,,,,,,,
1512177109.084665,0.050175,0.800092,-2.900856,0.199000,0.313933,0.219633,0.034940,-0.717420,-0.695763,0.140918,-0.037188,0.040581,-32.871887,-21.620796,-28.858330,,,,,,,
1512177109.104654,0.052800,0.803203,-2.895169,0.102206,0.341579,0.207665,0.036648,-0.719584,-0.693437,0.142323,-0.048010,0.058748,-33.098679,-21.996132,-29.081596,,,,,,,
1512177109.124674,0.055501,0.804183,-2.890035,0.015277,0.290242,0.176381,0.038481,-0.720264,-0.692631,0.147798,-0.030239,0.057835,-32.949539,-22.145897,-29.457939,,,,,,,
1512177109.144663,0.057681,0.804995,-2.885429,0.054740,0.280685,0.173717,0.039957,-0.720827,-0.691962,0.151114,-0.027281,0.077704,-33.174286,-22.071251,-29.605995,,,,,,,
1512177109.164682,0.060168,0.806874,-2.880259,0.086189,0.305235,0.207306,0.041597,-0.722128,-0.690507,0.152083,-0.034250,0.065324,-32.948685,-21.920906,-29.757835,,,,,,,
1512177109.184671,0.061653,0.808729,-2.874813,0.079970,0.258251,0.194260,0.042539,-0.723410,-0.689106,0.138872,-0.020014,0.053517,-33.249435,-22.071358,-29.905342,,,,,,,
1512177109.204691,0.063100,0.811205,-2.869407,0.124480,0.265766,0.210923,0.043423,-0.725117,-0.687254,0.142765,-0.028331,0.058302,-33.176834,-22.596245,-29.981224,,,,,,,
1512177109.224680,0.063933,0.814462,-2.864258,0.164302,0.206056,0.184639,0.043845,-0.727356,-0.684857,0.155618,-0.025863,0.063901,-33.401276,-22.446587,-30.204247,,,,,,,
1512177109.244669,0.064284,0.818602,-2.859158,0.199004,0.192173,0.213881,0.043892,-0.730191,-0.681831,0.151284,-0.029391,0.070793,-33.477737,-22.746696,-30.428734,,,,,,,
1512177109.264689,0.062600,0.822993,-2.852317,0.205377,0.147185,0.276710,0.042542,-0.733184,-0.678697,0.155456,-0.019822,0.074037,-33.551834,-22.596809,-29.978035,,,,,,,
1512177109.284678,0.059158,0.828041,-2.843917,0.251303,0.136466,0.337043,0.039986,-0.736608,-0.675136,0.148307,-0.038172,0.084667,-34.000748,-22.372475,-29.824120,,,,,,,
1512177109.304697,0.054366,0.834039,-2.833407,0.284441,0.149213,0.396198,0.036510,-0.740651,-0.670896,0.143208,-0.038050,0.083204,-34.077316,-22.672600,-30.273613,,,,,,,
1512177109.324686,0.049123,0.839720,-2.822118,0.237397,0.165145,0.405166,0.032785,-0.744456,-0.666866,0.123724,-0.047734,0.098766,-34.227219,-22.672829,-30.047325,,,,,,,
1512177109.344675,0.044611,0.843744,-2.811112,0.146329,0.188574,0.368746,0.029642,-0.747137,-0.664008,0.125357,-0.047754,0.099281,-34.450455,-22.298149,-29.895241,,,,,,,
1512177109.364695,0.040831,0.846135,-2.801070,0.078526,0.177838,0.342140,0.027059,-0.748724,-0.662329,0.115703,-0.048380,0.101065,-34.978943,-23.048943,-30.116142,,,,,,,
1512177109.384684,0.037401,0.847773,-2.791532,0.060796,0.188544,0.319536,0.024741,-0.749809,-0.661191,0.101098,-0.052651,0.090635,-35.050491,-22.299049,-29.965157,,,,,,,
1512177109.404703,0.034783,0.848939,-2.783090,0.028565,0.181111,0.268935,0.022979,-0.750580,-0.660380,0.097016,-0.050858,0.073908,-34.974258,-21.998940,-30.190651,,,,,,,
1512177109.424692,0.033323,0.849379,-2.776194,-0.006960,0.193960,0.225823,0.022004,-0.750871,-0.660083,0.105819,-0.053252,0.071536,-34.823456,-21.848717,-29.966850,,,,,,,
1512177109.444681,0.033197,0.849331,-2.770019,-0.016257,0.242051,0.210934,0.021922,-0.750839,-0.660122,0.117497,-0.064957,0.063457,-35.202026,-22.599281,-30.339012,,,,,,,
1512177109.464701,0.033541,0.849158,-2.763681,-0.032342,0.260170,0.217159,0.022153,-0.750724,-0.660244,0.128710,-0.066048,0.064007,-34.899658,-22.073830,-30.341316,,,,,,,
1512177109.484690,0.034355,0.848319,-2.757686,-0.067190,0.266566,0.197487,0.022713,-0.750170,-0.660855,0.142647,-0.077787,0.058010,-35.049057,-21.924049,-30.489983,,,,,,,
1512177109.504687,0.034779,0.846986,-2.752281,-0.083886,0.186474,0.171380,0.023027,-0.749288,-0.661844,0.137282,-0.059093,0.038004,-34.674957,-22.073494,-30.943230,,,,,,,
1512177109.524676,0.035049,0.845693,-2.748480,-0.066827,0.149249,0.105405,0.023240,-0.748431,-0.662805,0.111815,-0.040677,0.031762,-34.898575,-21.773827,-30.866188,,,,,,,
1512177109.544665,0.036775,0.844770,-2.746238,-0.046025,0.193135,0.073875,0.024410,-0.747818,-0.663454,0.107792,-0.022293,0.042635,-34.824097,-21.848717,-31.241859,,,,,,,
1512177109.564685,0.039596,0.844066,-2.743441,-0.047781,0.275295,0.119977,0.026302,-0.747351,-0.663908,0.122609,-0.018122,0.049925,-35.049133,-21.849052,-31.314934,,,,,,,
1512177109.584674,0.043363,0.843156,-2.739405,-0.057860,0.376684,0.153227,0.028832,-0.746746,-0.664484,0.137397,-0.018513,0.065882,-34.675705,-22.148491,-31.768257,,,,,,,
1512177109.604693,0.047607,0.842389,-2.734142,-0.047994,0.413990,0.203606,0.031679,-0.746236,-0.664927,0.171980,-0.035884,0.089304,-34.598618,-21.698372,-31.618706,,,,,,,
1512177109.624682,0.049623,0.841458,-2.726958,-0.072608,0.325164,0.270104,0.033054,-0.745616,-0.665555,0.182431,-0.042867,0.098142,-34.748505,-21.623604,-32.067375,,,,,,,
1512177109.644671,0.047493,0.839888,-2.718590,-0.102755,0.133892,0.278595,0.031692,-0.744568,-0.666793,0.135835,-0.017303,0.077956,-34.297821,-21.472923,-32.071129,,,,,,,
1512177109.664691,0.043517,0.838910,-2.710784,-0.035492,0.080601,0.269790,0.029072,-0.743915,-0.667641,0.095165,-0.036755,0.073463,-34.446396,-21.173149,-31.919716,,,,,,,
1512177109.684680,0.040401,0.838955,-2.703657,-0.009131,0.149097,0.226704,0.026990,-0.743945,-0.667695,0.048358,-0.020154,0.065705,-34.746094,-21.098595,-31.992134,,,,,,,
1512177109.704699,0.042497,0.838694,-2.698648,-0.039866,0.363882,0.160908,0.028398,-0.743771,-0.667830,0.059950,-0.047931,0.077697,-34.596588,-21.173378,-32.293449,,,,,,,
1512177109.724688,0.047605,0.837530,-2.694327,-0.086507,0.421527,0.148710,0.031850,-0.742992,-0.668541,0.106013,-0.052845,0.092339,-34.446655,-21.173149,-32.444725,,,,,,,
1512177109.744677,0.052002,0.835841,-2.690417,-0.093800,0.316855,0.132245,0.034854,-0.741861,-0.669647,0.148740,-0.060553,0.100494,-34.297256,-21.247917,-32.971031,,,,,,,
1512177109.764697,0.053652,0.834722,-2.686545,-0.050189,0.189810,0.132437,0.036004,-0.741110,-0.670417,0.145301,-0.061807,0.107322,-33.996323,-21.022469,-33.123482,,,,,,,
1512177109.784686,0.054813,0.834232,-2.683407,-0.034607,0.182435,0.092126,0.036802,-0.740781,-0.670737,0.121706,-0.050861,0.083426,-34.446442,-21.023140,-33.344658,,,,,,,
1512177109.804706,0.057397,0.833154,-2.681517,-0.088351,0.214466,0.055211,0.038581,-0.740056,-0.671437,0.112649,-0.039348,0.065510,-34.296814,-21.097923,-33.420967,,,,,,,
1512177109.824695,0.060822,0.830934,-2.679925,-0.131146,0.228276,0.066370,0.040980,-0.738562,-0.672939,0.127645,-0.033686,0.045619,-34.221542,-21.022804,-33.571556,,,,,,,
1512177109.844684,0.063482,0.828675,-2.677446,-0.116795,0.220752,0.100666,0.042875,-0.737037,-0.674490,0.139833,-0.030053,0.034262,-33.995728,-20.797478,-33.948372,,,,,,,
1512177109.864703,0.064631,0.827227,-2.673452,-0.067843,0.192913,0.168436,0.043719,-0.736057,-0.675505,0.156781,-0.050534,0.036009,-33.770004,-20.647133,-33.875206,,,,,,,
1512177109.884692,0.063188,0.826670,-2.667616,-0.039868,0.114893,0.214414,0.042771,-0.735680,-0.675976,0.149353,-0.046989,0.026608,-33.545090,-20.646797,-34.027122,,,,,,,
1512177109.904712,0.061196,0.826586,-2.662373,0.002502,0.095824,0.164855,0.041428,-0.735623,-0.676122,0.108627,-0.042911,0.020498,-33.771210,-20.872139,-34.250313,,,,,,,
1512177109.924701,0.061400,0.828087,-2.657969,0.096260,0.241222,0.175247,0.041498,-0.736639,-0.675010,0.103003,-0.084940,0.049186,-33.921768,-21.022362,-34.024101,,,,,,,
1512177109.944690,0.063600,0.830359,-2.652289,0.076505,0.343655,0.213692,0.042876,-0.738173,-0.673246,0.125611,-0.095659,0.073362,-33.995239,-20.647469,-34.323296,,,,,,,
1512177109.964709,0.066222,0.831233,-2.647219,0.013361,0.290259,0.162491,0.044599,-0.738763,-0.672487,0.145770,-0.103400,0.092180,-33.769928,-20.572136,-34.400169,,,,,,,
1512177109.984698,0.067358,0.831756,-2.643424,0.022438,0.140803,0.121591,0.045337,-0.739115,-0.672050,0.143521,-0.082799,0.094428,-33.245087,-20.571342,-34.704628,,,,,,,
1512177110.004718,0.066714,0.832496,-2.641008,0.029561,0.021278,0.072242,0.044868,-0.739613,-0.671533,0.121789,-0.044933,0.076807,-33.469971,-20.571693,-34.477730,,,,,,,
1512177110.024707,0.066219,0.832901,-2.640042,0.000416,0.027722,0.029197,0.044515,-0.739886,-0.671256,0.091792,-0.010983,0.068061,-33.320801,-20.721458,-34.779060,,,,,,,
1512177110.044696,0.067076,0.832640,-2.638823,-0.037507,0.124792,0.071630,0.045103,-0.739710,-0.671411,0.098283,-0.006033,0.066873,-33.321167,-20.796455,-34.854103,,,,,,,
1512177110.064715,0.068262,0.831698,-2.636342,-0.070913,0.157800,0.093643,0.045947,-0.739077,-0.672051,0.120176,0.011675,0.062539,-33.245117,-20.571342,-34.779625,,,,,,,
1512177110.084704,0.069127,0.831164,-2.633299,-0.010741,0.147144,0.129660,0.046556,-0.738717,-0.672405,0.151320,-0.002113,0.074581,-33.095490,-20.646126,-34.855949,,,,,,,
1512177110.104724,0.067970,0.832561,-2.628747,0.094675,0.090555,0.199219,0.045707,-0.739657,-0.671429,0.185784,-0.014127,0.091900,-33.169403,-20.421242,-34.705208,,,,,,,
1512177110.124713,0.063675,0.835749,-2.622025,0.159507,0.005052,0.271285,0.042673,-0.741799,-0.669262,0.196981,-0.005943,0.113018,-33.170303,-20.646233,-34.480309,,,,,,,
1512177110.144702,0.055946,0.839722,-2.613095,0.196674,-0.083685,0.340811,0.037334,-0.744458,-0.666624,0.191441,0.028409,0.119505,-33.543854,-20.346794,-34.251991,,,,,,,
1512177110.164721,0.045970,0.845666,-2.602618,0.333176,-0.115639,0.401311,0.030478,-0.748413,-0.662531,0.198343,0.077484,0.126200,-33.992569,-20.122459,-33.723061,,,,,,,
1512177110.184710,0.033360,0.854329,-2.588620,0.443595,-0.074132,0.558695,0.021904,-0.754131,-0.656357,0.238823,0.114910,0.136399,-34.440659,-19.748146,-33.269066,,,,,,,
1512177110.204730,0.016668,0.863164,-2.566757,0.396458,0.057710,0.838849,0.010834,-0.759903,-0.649945,0.266113,0.152191,0.120068,-34.889053,-19.448814,-32.740105,,,,,,,
1512177110.224719,-0.003983,0.869850,-2.535139,0.285906,0.234244,1.151282,-0.002569,-0.764232,-0.644934,0.279882,0.183239,0.074179,-35.335678,-18.774483,-32.060966,,,,,,,
1512177110.244739,-0.030333,0.874269,-2.492627,0.232371,0.369145,1.495314,-0.019457,-0.767075,-0.641261,0.281069,0.200730,0.060054,-35.855347,-17.650261,-31.530983,,,,,,,
1512177110.264728,-0.061907,0.878084,-2.439573,0.312387,0.525645,1.822164,-0.039510,-0.769517,-0.637401,0.274480,0.188294,0.046489,-36.225296,-16.600822,-30.852318,,,,,,,
1512177110.284717,-0.101048,0.883291,-2.373844,0.508395,0.607406,2.222929,-0.064017,-0.772831,-0.631373,0.261374,0.161061,0.046640,-36.666061,-14.576485,-30.622551,,,,,,,
1512177110.304736,-0.151185,0.889671,-2.294944,0.697018,0.514120,2.545152,-0.094834,-0.776864,-0.622484,0.219025,0.135461,0.056520,-37.332626,-12.777473,-29.940987,,,,,,,
1512177110.324725,-0.211863,0.895718,-2.206764,0.844065,0.341994,2.735379,-0.131417,-0.780658,-0.610983,0.174874,0.105502,0.050269,-38.224274,-11.053810,-28.732552,,,,,,,
1512177110.344745,-0.279949,0.899155,-2.113285,0.875796,0.216916,2.808960,-0.171937,-0.782801,-0.598045,0.116060,0.087275,0.046928,-38.438095,-8.654137,-27.979530,,,,,,,
1512177110.364734,-0.349974,0.898164,-2.019581,0.850657,0.158189,2.779611,-0.213626,-0.782184,-0.585277,0.068011,0.014545,0.056026,-39.253082,-6.555351,-26.846550,,,,,,,
1512177110.384723,-0.416525,0.892546,-1.929528,0.734000,0.228704,2.681153,-0.253849,-0.778671,-0.573785,-0.006451,-0.036560,0.101343,-39.316940,-4.155449,-26.169823,,,,,,,
1512177110.404742,-0.473672,0.880664,-1.848801,0.460261,0.320551,2.477087,-0.290407,-0.771162,-0.566543,-0.055464,-0.058626,0.126815,-38.855392,-1.679756,-25.347496,,,,,,,
1512177110.424731,-0.518123,0.863759,-1.781311,0.195931,0.380479,2.218679,-0.321706,-0.760290,-0.564325,-0.074458,-0.062464,0.129663,-38.546539,0.195702,-24.524178,,,,,,,
1512177110.444751,-0.554237,0.844035,-1.726085,0.043894,0.188423,1.990871,-0.349698,-0.747330,-0.564985,-0.121494,-0.060989,0.094571,-38.384918,2.745949,-24.224281,,,,,,,
1512177110.464740,-0.589233,0.825178,-1.677076,0.165597,0.034006,1.842845,-0.377016,-0.734669,-0.564020,-0.180784,-0.078579,0.083215,-37.999939,4.846519,-23.176506,,,,,,,
1512177110.484729,-0.619917,0.809403,-1.632402,0.219268,0.187253,1.634143,-0.400827,-0.723875,-0.561552,-0.181754,-0.130709,0.108305,-37.089737,7.022881,-22.358162,,,,,,,
1512177110.504730,-0.637562,0.792267,-1.596823,-0.106474,0.537533,1.429159,-0.417995,-0.711947,-0.564278,-0.125034,-0.146741,0.107262,-36.334030,8.224022,-21.763985,,,,,,,
1512177110.524719,-0.640756,0.771340,-1.573733,-0.446305,0.693362,1.227553,-0.428609,-0.697097,-0.574759,-0.095530,-0.122025,0.108603,-35.427353,9.650383,-21.245964,,,,,,,
1512177110.544739,-0.642845,0.750299,-1.554724,-0.371000,0.419061,1.173323,-0.438506,-0.681857,-0.585475,-0.090836,-0.085202,0.091304,-34.521317,11.001747,-21.327995,,,,,,,
1512177110.564728,-0.654497,0.733482,-1.533744,-0.087585,-0.007637,1.097055,-0.452215,-0.669460,-0.589341,-0.126947,-0.094044,0.116791,-34.140808,12.127312,-20.430672,,,,,,,
1512177110.584717,-0.671248,0.720324,-1.513097,-0.068510,-0.192147,0.965564,-0.467462,-0.659629,-0.588530,-0.141089,-0.119302,0.125228,-33.162460,12.803780,-19.838646,,,,,,,
1512177110.604736,-0.682836,0.706023,-1.500637,-0.382282,-0.112046,0.733164,-0.480154,-0.648813,-0.590333,-0.123865,-0.142203,0.086899,-32.556686,14.004692,-19.093193,,,,,,,
1512177110.624725,-0.684548,0.689495,-1.497860,-0.661648,0.076954,0.551741,-0.487879,-0.636147,-0.597736,-0.091009,-0.134986,0.059666,-31.801926,14.980827,-18.349129,,,,,,,
1512177110.644745,-0.680456,0.672290,-1.500396,-0.729968,0.159334,0.431637,-0.492243,-0.622779,-0.608146,-0.045248,-0.117501,0.040077,-31.275681,15.206612,-17.903481,,,,,,,
1512177110.664734,-0.675904,0.656802,-1.503933,-0.638567,0.075192,0.380434,-0.495445,-0.610587,-0.617832,-0.032280,-0.099572,0.016117,-30.671173,16.107521,-17.008171,,,,,,,
1512177110.684723,-0.677424,0.644075,-1.503541,-0.363747,-0.124276,0.448751,-0.501214,-0.600459,-0.623083,-0.071280,-0.114156,0.031362,-29.767609,16.858879,-16.640480,,,,,,,
1512177110.704743,-0.684332,0.634933,-1.498835,-0.177711,-0.241422,0.409460,-0.508955,-0.593124,-0.623833,-0.114550,-0.180726,-0.008476,-29.539505,17.459221,-15.817116,,,,,,,
1512177110.724731,-0.690399,0.628752,-1.495588,-0.150202,-0.132078,0.233272,-0.515055,-0.588136,-0.623549,-0.154607,-0.237700,-0.015901,-28.938263,17.685112,-15.372124,,,,,,,
1512177110.744750,-0.690341,0.624391,-1.497068,-0.228773,0.010286,0.027950,-0.516647,-0.584603,-0.625550,-0.119080,-0.239737,-0.017745,-28.335968,18.136024,-14.852013,,,,,,,
1512177110.764740,-0.686835,0.621049,-1.502745,-0.280883,-0.003414,-0.110378,-0.515687,-0.581889,-0.628865,-0.074172,-0.180212,-0.004115,-28.487244,17.835793,-14.700874,,,,,,,
1512177110.784729,-0.684302,0.619214,-1.509629,-0.215971,-0.115346,-0.172721,-0.514767,-0.580395,-0.630996,-0.028248,-0.096820,0.023726,-28.185791,18.136253,-14.478279,,,,,,,
1512177110.804749,-0.685001,0.618913,-1.514408,-0.084951,-0.207142,-0.106113,-0.515318,-0.580150,-0.630771,-0.011720,-0.059483,0.029162,-28.260223,18.211128,-14.027611,,,,,,,
1512177110.824738,-0.689254,0.618883,-1.515597,-0.011126,-0.255324,0.003523,-0.518007,-0.580126,-0.628587,0.010073,0.013125,0.064408,-28.260223,18.211128,-14.027611,,,,,,,
1512177110.844757,-0.693520,0.617886,-1.515115,-0.052633,-0.154034,0.069371,-0.521054,-0.579313,-0.626816,-0.021015,-0.008455,0.064255,-28.559326,18.360680,-13.575005,,,,,,,
1512177110.864746,-0.694877,0.614712,-1.515949,-0.200659,-0.053844,0.064375,-0.523079,-0.576723,-0.627517,-0.048042,-0.052519,0.053970,-27.734344,18.361931,-13.582008,,,,,,,
1512177110.884735,-0.691868,0.610533,-1.520280,-0.308487,0.063725,-0.048710,-0.522721,-0.573304,-0.630939,-0.040039,-0.106399,0.039188,-27.808548,18.511818,-13.356300,,,,,,,
1512177110.904755,-0.685976,0.606628,-1.527910,-0.366460,0.064906,-0.154023,-0.520409,-0.570100,-0.635735,-0.008675,-0.122954,0.026711,-27.432343,18.737373,-12.984383,,,,,,,
1512177110.924744,-0.680966,0.603548,-1.536240,-0.304496,0.000932,-0.165074,-0.518320,-0.567567,-0.639696,0.004434,-0.135176,0.009218,-27.509338,18.287254,-12.908958,,,,,,,
1512177110.944762,-0.677450,0.601498,-1.541889,-0.188573,0.024448,-0.082291,-0.516796,-0.565878,-0.642420,0.021511,-0.128016,-0.009176,-27.507919,18.587257,-12.758827,,,,,,,
1512177110.964751,-0.676072,0.600244,-1.544184,-0.055464,-0.004333,-0.010103,-0.516353,-0.564844,-0.643684,0.040157,-0.106818,-0.013665,-27.583847,18.362144,-12.608284,,,,,,,
1512177110.984740,-0.677213,0.600510,-1.543002,0.081933,-0.037379,0.059999,-0.516994,-0.565064,-0.642977,0.044780,-0.095398,-0.004072,-27.284454,18.212593,-12.460899,,,,,,,
1512177111.004761,-0.679858,0.601183,-1.539618,0.114364,-0.019249,0.097842,-0.518453,-0.565618,-0.641312,0.043111,-0.090479,0.006653,-27.284897,18.137596,-12.685936,,,,,,,
1512177111.024750,-0.681115,0.601557,-1.536864,0.068237,0.026708,0.053629,-0.519126,-0.565927,-0.640495,0.055259,-0.069419,0.003852,-27.434860,18.137367,-12.609673,,,,,,,
1512177111.044769,-0.680744,0.602525,-1.535605,0.074531,0.071693,-0.002625,-0.518543,-0.566725,-0.640261,0.084324,-0.065233,0.025759,-27.358139,18.512489,-12.535118,,,,,,,
1512177111.064758,-0.679248,0.603201,-1.533991,0.053118,0.136676,0.070849,-0.517343,-0.567282,-0.640738,0.090937,-0.084238,0.041678,-27.058578,18.437935,-12.762718,,,,,,,
1512177111.084747,-0.679080,0.602064,-1.531020,0.029253,0.051009,0.155487,-0.517641,-0.566344,-0.641327,0.054659,-0.076859,0.027329,-26.907532,18.663170,-12.688881,,,,,,,
1512177111.104767,-0.681244,0.601272,-1.527229,0.084834,-0.014036,0.144343,-0.519310,-0.565692,-0.640553,0.007881,-0.069486,0.021672,-27.207916,18.587715,-12.761375,,,,,,,
1512177111.124756,-0.683671,0.600563,-1.523124,0.059881,0.011507,0.171787,-0.521116,-0.565107,-0.639602,-0.035708,-0.047915,0.023193,-26.908920,18.363167,-12.764030,,,,,,,
1512177111.144774,-0.684276,0.598836,-1.519587,-0.003859,0.105428,0.162662,-0.522119,-0.563681,-0.640042,-0.068091,-0.007379,0.021466,-27.132080,18.737831,-12.461937,,,,,,,
1512177111.164763,-0.681357,0.597265,-1.517931,-0.025700,0.241233,0.071135,-0.520806,-0.562383,-0.642251,-0.072120,0.023778,0.024651,-26.829803,19.263283,-12.614250,,,,,,,
1512177111.184783,-0.675385,0.596483,-1.517634,-0.033423,0.336376,0.026578,-0.517236,-0.561736,-0.645692,-0.056617,0.030715,0.023531,-26.304947,19.264061,-12.918709,,,,,,,
1512177111.204772,-0.668839,0.595420,-1.517705,-0.051843,0.308549,0.044342,-0.513368,-0.560857,-0.649532,-0.022414,0.022115,0.009212,-26.455627,19.113838,-12.917503,,,,,,,
1512177111.224761,-0.664140,0.593664,-1.516836,-0.045432,0.222985,0.103836,-0.510917,-0.559402,-0.652712,0.009391,0.016113,-0.011671,-26.381714,18.888954,-13.068245,,,,,,,
1512177111.244781,-0.662548,0.591287,-1.515101,-0.052279,0.088333,0.123519,-0.510693,-0.557430,-0.654571,0.012708,0.008388,-0.048981,-26.602921,19.713615,-12.915947,,,,,,,
1512177111.264771,-0.662412,0.590030,-1.513890,0.013960,0.028768,0.047517,-0.511035,-0.556386,-0.655193,-0.001447,-0.017253,-0.072011,-26.453903,19.488838,-12.842323,,,,,,,
1512177111.284790,-0.663410,0.591265,-1.512138,0.143613,-0.020085,0.005518,-0.511265,-0.557412,-0.654140,0.007694,-0.025031,-0.065861,-26.004379,19.414513,-13.146187,,,,,,,
1512177111.304779,-0.667187,0.594556,-1.508706,0.262668,-0.148118,0.019588,-0.512594,-0.560141,-0.650760,0.028189,-0.037271,-0.030728,-26.154953,19.264290,-12.919975,,,,,,,
1512177111.324768,-0.675560,0.599173,-1.502545,0.387380,-0.300791,0.078434,-0.516402,-0.563960,-0.644420,0.031219,-0.049734,0.029872,-26.532013,18.813728,-12.991997,,,,,,,
1512177111.344788,-0.687861,0.604764,-1.494141,0.458582,-0.419266,0.086517,-0.522280,-0.568568,-0.635573,0.029101,-0.026021,0.080595,-26.230591,19.114174,-12.844414,,,,,,,
1512177111.364777,-0.700801,0.611275,-1.485901,0.462525,-0.390337,0.041897,-0.528062,-0.573912,-0.625919,0.040620,-0.015245,0.140705,-26.681641,18.888496,-12.915688,,,,,,,
1512177111.384796,-0.711035,0.616045,-1.478298,0.315340,-0.229412,0.119215,-0.532647,-0.577812,-0.618401,0.063485,0.003913,0.180748,-26.757202,18.738396,-12.690117,,,,,,,
1512177111.404784,-0.717265,0.615971,-1.472429,0.055847,-0.095409,0.217197,-0.536518,-0.577752,-0.615103,0.055759,0.005043,0.186529,-26.679611,19.338509,-12.915474,,,,,,,
1512177111.424773,-0.719993,0.611501,-1.469415,-0.169495,-0.018901,0.245113,-0.539891,-0.574097,-0.615572,0.002324,-0.003448,0.156618,-26.605774,19.038612,-12.541252,,,,,,,
1512177111.444793,-0.718071,0.604163,-1.470375,-0.385732,0.122976,0.177446,-0.541464,-0.568073,-0.619765,-0.045465,-0.041012,0.074736,-26.379379,19.338951,-12.468040,,,,,,,
1512177111.464782,-0.710610,0.595099,-1.476636,-0.577578,0.245774,0.051431,-0.540162,-0.560591,-0.627664,-0.067428,-0.063662,0.000452,-25.919815,21.139641,-9.546043,,,,,,,
1512177111.484802,-0.699377,0.586049,-1.486818,-0.627889,0.275831,-0.064330,-0.536321,-0.553073,-0.637549,-0.037730,-0.043576,-0.079462,-25.770538,20.989876,-9.622383,,,,,,,
1512177111.504760,-0.689511,0.578990,-1.496654,-0.439633,0.184340,-0.106694,-0.532476,-0.547179,-0.645805,0.014013,0.008055,-0.121392,-25.545837,20.915215,-9.549324,,,,,,,
1512177111.524749,-0.683508,0.576971,-1.503317,-0.160463,0.091951,-0.168002,-0.529286,-0.545488,-0.649845,0.047718,0.047700,-0.141293,-25.398422,20.390434,-10.000847,,,,,,,
1512177111.544769,-0.680186,0.577257,-1.506286,-0.023896,0.089783,-0.045566,-0.527026,-0.545728,-0.651478,0.045687,0.047604,-0.106777,-25.472855,20.540321,-10.225136,,,,,,,
1512177111.564758,-0.679517,0.576912,-1.504422,0.069041,0.073542,0.135887,-0.526708,-0.545438,-0.651977,0.026327,0.031095,-0.071778,-25.548050,20.465202,-9.924538,,,,,,,
1512177111.584777,-0.681621,0.575871,-1.499235,0.101596,0.009324,0.227819,-0.528436,-0.544565,-0.651308,-0.024695,-0.007711,-0.048490,-25.622147,20.690086,-10.148796,,,,,,,
1512177111.604766,-0.685509,0.574441,-1.493894,0.075294,-0.088942,0.201509,-0.531457,-0.543365,-0.649851,-0.082434,-0.009491,-0.030462,-25.471802,20.765312,-10.150032,,,,,,,
1512177111.624755,-0.690020,0.573392,-1.490364,0.046913,-0.148625,0.109208,-0.534745,-0.542485,-0.647886,-0.106917,0.036870,-0.004061,-25.019562,21.215996,-9.703651,,,,,,,
1512177111.644775,-0.693043,0.573588,-1.489313,0.034320,-0.101366,-0.029396,-0.536634,-0.542650,-0.646185,-0.085696,0.093354,0.018743,-25.246613,20.765663,-9.776955,,,,,,,
1512177111.664764,-0.693306,0.575724,-1.491022,0.040958,-0.040187,-0.169804,-0.536061,-0.544442,-0.645151,-0.024211,0.103158,0.055490,-25.471024,20.915321,-9.924965,,,,,,,
1512177111.684784,-0.692134,0.578319,-1.493749,0.008587,0.000303,-0.144548,-0.534402,-0.546617,-0.644689,0.029702,0.067216,0.088964,-25.546326,20.840202,-9.849373,,,,,,,
1512177111.704773,-0.690785,0.577882,-1.495758,-0.128781,0.023351,-0.023863,-0.533683,-0.546251,-0.645593,0.036888,0.000765,0.070169,-25.473419,20.390312,-10.000221,,,,,,,
1512177111.724762,-0.688095,0.574039,-1.499533,-0.317892,0.058259,0.003368,-0.533274,-0.543028,-0.648643,0.000361,-0.062120,0.015327,-25.172745,20.540764,-10.002693,,,,,,,
1512177111.744781,-0.682950,0.567602,-1.505562,-0.449814,0.117910,-0.008992,-0.532125,-0.537612,-0.654076,-0.023494,-0.074616,-0.071922,-25.023270,20.390984,-9.704033,,,,,,,
1512177111.764770,-0.676221,0.561448,-1.513117,-0.399446,0.144843,-0.089193,-0.529772,-0.532413,-0.660210,-0.011106,-0.027386,-0.138786,-24.798416,20.316322,-9.330986,,,,,,,
1512177111.784790,-0.669873,0.559679,-1.519338,-0.120573,0.155085,-0.191723,-0.526155,-0.530914,-0.664297,0.045305,0.054398,-0.141902,-24.948486,20.316109,-9.479713,,,,,,,
1512177111.804779,-0.665576,0.562755,-1.522985,0.082160,0.094534,-0.206054,-0.522284,-0.533518,-0.665264,0.123892,0.078913,-0.099171,-25.248199,20.390648,-9.552116,,,,,,,
1512177111.824768,-0.663992,0.565813,-1.523585,0.102929,0.036567,-0.046046,-0.520222,-0.536102,-0.664802,0.156498,0.083603,-0.055733,-25.474319,20.165321,-9.775322,,,,,,,
1512177111.844787,-0.666107,0.566847,-1.521341,0.117819,-0.100387,0.078421,-0.521284,-0.536974,-0.663265,0.112028,0.088519,-0.028752,-25.024582,20.090996,-9.629173,,,,,,,
1512177111.864776,-0.671156,0.568298,-1.516615,0.215120,-0.138777,0.124476,-0.524141,-0.538198,-0.660013,0.064836,0.099111,0.003992,-25.025330,19.940987,-9.779243,,,,,,,
1512177111.884796,-0.676494,0.569641,-1.511406,0.178690,-0.118567,0.135741,-0.527204,-0.539330,-0.656642,0.039029,0.073036,0.039821,-25.250336,19.940651,-9.777336,,,,,,,
1512177111.904785,-0.680079,0.569716,-1.506690,0.101621,-0.032203,0.159446,-0.529529,-0.539393,-0.654716,0.000110,0.033030,0.043282,-25.249588,20.090645,-9.627266,,,,,,,
1512177111.924774,-0.681739,0.568476,-1.503535,-0.002376,0.013621,0.132512,-0.531037,-0.538349,-0.654355,-0.031296,-0.019498,0.029660,-24.949310,20.166100,-9.779778,,,,,,,
1512177111.944793,-0.681436,0.565680,-1.502711,-0.142525,0.052994,0.099702,-0.531784,-0.535990,-0.655682,-0.056717,-0.035925,-0.010608,-24.948380,20.391106,-9.929680,,,,,,,
1512177111.964782,-0.678539,0.560800,-1.504869,-0.292466,0.112627,0.080683,-0.531518,-0.531863,-0.659249,-0.052619,0.022601,-0.071433,-24.796204,20.841331,-9.630745,,,,,,,
1512177111.984802,-0.674262,0.555802,-1.507798,-0.225674,0.140586,0.040174,-0.530347,-0.527625,-0.663584,-0.026614,0.053916,-0.123357,-24.647186,20.616554,-9.557121,,,,,,,
1512177112.004791,-0.671645,0.554587,-1.508794,0.009647,0.073742,-0.012089,-0.529006,-0.526593,-0.665471,-0.016999,0.078564,-0.138072,-24.572067,20.616661,-9.332756,,,,,,,
1512177112.024810,-0.671770,0.556271,-1.508019,0.111264,-0.017913,-0.036518,-0.528537,-0.528023,-0.664710,-0.010922,0.078194,-0.104394,-24.798111,20.391335,-9.405952,,,,,,,
1512177112.044799,-0.673584,0.559073,-1.506708,0.161460,-0.074440,-0.045585,-0.528817,-0.530401,-0.662591,-0.000800,0.107519,-0.050528,-24.721390,20.766441,-9.331413,,,,,,,
1512177112.064788,-0.676812,0.562071,-1.505112,0.165584,-0.143876,-0.040437,-0.529955,-0.532939,-0.659639,0.028536,0.122630,-0.001387,-24.647858,20.466560,-9.557182,,,,,,,
1512177112.084808,-0.681029,0.565096,-1.502959,0.185428,-0.153505,-0.015662,-0.531714,-0.535497,-0.656142,0.048667,0.083608,0.038940,-24.799545,20.091331,-9.556084,,,,,,,
1512177112.104797,-0.684574,0.566421,-1.501078,0.031077,-0.126072,0.036566,-0.533588,-0.536616,-0.653703,0.028964,0.027811,0.046556,-24.424545,20.091896,-9.559273,,,,,,,
1512177112.124816,-0.686618,0.564137,-1.501569,-0.153385,-0.112473,0.039271,-0.535699,-0.534686,-0.653557,-0.017814,0.015415,0.023934,-24.499878,20.016777,-9.558678,,,,,,,
1512177112.144805,-0.686240,0.561644,-1.504777,-0.183645,-0.024724,-0.060002,-0.536294,-0.532579,-0.654789,-0.001258,0.080507,-0.000790,-24.649094,20.166557,-9.332329,,,,,,,
1512177112.164795,-0.683117,0.560390,-1.508748,-0.110436,0.086550,-0.099069,-0.534668,-0.531516,-0.656978,0.056671,0.089988,-0.004460,-24.949387,20.091103,-9.254814,,,,,,,
1512177112.184814,-0.679079,0.560633,-1.511045,-0.041782,0.164551,-0.056225,-0.531930,-0.531722,-0.659031,0.118859,0.073180,-0.006511,-24.723190,20.391441,-9.556587,,,,,,,
1512177112.204803,-0.675151,0.558208,-1.512047,-0.182874,0.160829,0.095229,-0.530142,-0.529667,-0.662120,0.110586,0.008747,-0.039418,-24.575897,19.791664,-9.558144,,,,,,,
1512177112.224823,-0.671982,0.552691,-1.512999,-0.258451,0.125354,0.151579,-0.529852,-0.524979,-0.666074,0.043066,-0.008468,-0.116443,-24.500183,19.941780,-9.483711,,,,,,,
1512177112.244812,-0.669226,0.546914,-1.513287,-0.198020,0.138226,0.172756,-0.529886,-0.520054,-0.669899,-0.001089,0.007710,-0.171975,-23.747513,20.542900,-9.564796,,,,,,,
1512177112.264801,-0.666745,0.543459,-1.512462,-0.055230,0.133219,0.110840,-0.529331,-0.517099,-0.672619,-0.000073,0.053888,-0.194492,-23.446426,20.768349,-9.417259,,,,,,,
1512177112.284820,-0.666085,0.543544,-1.510808,0.117860,0.018304,0.017003,-0.528860,-0.517173,-0.672934,0.018636,0.117819,-0.160654,-23.672745,20.468010,-9.340477,,,,,,,
1512177112.304809,-0.668646,0.547528,-1.508344,0.275736,-0.111616,-0.058979,-0.529299,-0.520578,-0.669955,0.041690,0.154947,-0.082364,-24.122925,20.467339,-9.711647,,,,,,,
1512177112.324829,-0.673345,0.552804,-1.504447,0.324931,-0.149044,-0.007233,-0.530722,-0.525075,-0.665304,0.054510,0.095769,-0.001444,-24.348297,20.392006,-9.784782,,,,,,,
1512177112.344818,-0.679287,0.556371,-1.500744,0.178408,-0.245452,0.016961,-0.533486,-0.528108,-0.660677,0.038750,0.092607,0.025286,-24.274460,20.167107,-10.085503,,,,,,,
1512177112.364807,-0.684681,0.557545,-1.498322,0.094519,-0.159151,0.066152,-0.536649,-0.529104,-0.657310,0.022184,0.055182,0.054679,-24.198380,20.392235,-9.936043,,,,,,,
1512177112.384826,-0.687392,0.556438,-1.495875,-0.031196,-0.020606,0.133042,-0.538801,-0.528165,-0.656305,-0.010150,0.029629,0.030694,-23.972214,20.617561,-9.637856,,,,,,,
1512177112.404815,-0.686129,0.552467,-1.495413,-0.198560,0.127602,0.139660,-0.539296,-0.524788,-0.658602,-0.046230,0.021477,-0.013883,-23.822174,20.617790,-9.564125,,,,,,,
1512177112.424835,-0.681777,0.547119,-1.497505,-0.284778,0.160729,0.069235,-0.538186,-0.520229,-0.663113,-0.058357,0.048351,-0.085972,-23.895111,21.067680,-9.488289,,,,,,,
1512177112.444824,-0.676810,0.542893,-1.501273,-0.233117,0.151379,-0.025996,-0.536258,-0.516615,-0.667486,-0.019590,0.080961,-0.114512,-23.671463,20.768013,-9.490334,,,,,,,
1512177112.464813,-0.672912,0.541725,-1.504191,-0.058545,0.100469,-0.078016,-0.534027,-0.515615,-0.670042,0.025466,0.101965,-0.112398,-23.671127,20.843025,-9.490303,,,,,,,
1512177112.484832,-0.671285,0.542038,-1.505432,-0.011603,0.022449,-0.018972,-0.532836,-0.515883,-0.670784,0.039321,0.090804,-0.122643,-23.521393,20.768242,-9.341606,,,,,,,
1512177112.504801,-0.672045,0.542143,-1.504589,0.047151,-0.040587,0.036032,-0.533311,-0.515973,-0.670336,0.000688,0.035977,-0.129392,-23.445755,20.918358,-9.417183,,,,,,,
1512177112.524821,-0.673947,0.542065,-1.502948,0.043521,-0.051326,0.061527,-0.534611,-0.515906,-0.669352,-0.050396,0.009711,-0.115651,-23.671158,20.843025,-9.565300,,,,,,,
1512177112.544810,-0.675355,0.542699,-1.501589,0.078692,-0.024448,-0.001836,-0.535348,-0.516449,-0.668343,-0.052924,0.064621,-0.096412,-23.521164,20.843239,-9.566582,,,,,,,
1512177112.564798,-0.675870,0.544712,-1.500899,0.114967,-0.015713,-0.067374,-0.535041,-0.518172,-0.667255,0.000800,0.100905,-0.046185,-23.896164,20.842674,-9.563393,,,,,,,
1512177112.584817,-0.677037,0.548211,-1.500939,0.149039,-0.086035,-0.133222,-0.534680,-0.521161,-0.665213,0.059460,0.114759,0.012152,-23.745972,20.917900,-9.864632,,,,,,,
1512177112.604806,-0.678943,0.552266,-1.501335,0.139584,-0.119142,-0.143068,-0.534616,-0.524618,-0.662542,0.090981,0.084951,0.049398,-23.821457,20.842796,-10.164024,,,,,,,
1512177112.624826,-0.680566,0.555038,-1.502229,0.047051,-0.078801,-0.089901,-0.534773,-0.526975,-0.660541,0.094984,0.025801,0.053943,-23.672363,20.618019,-9.940407,,,,,,,
1512177112.644815,-0.680392,0.553501,-1.502998,-0.149741,0.020971,0.083497,-0.535166,-0.525669,-0.661263,0.073039,-0.021023,0.002846,-23.749161,20.242897,-10.164940,,,,,,,
1512177112.664804,-0.678860,0.549048,-1.503828,-0.193647,0.061464,0.096858,-0.535617,-0.521876,-0.663897,0.035007,-0.019018,-0.075971,-24.126221,19.792336,-10.236961,,,,,,,
1512177112.684824,-0.676744,0.546417,-1.505365,-0.092969,0.076755,0.004557,-0.535070,-0.519630,-0.666097,0.035222,0.025199,-0.108775,-23.448334,20.393349,-9.867424,,,,,,,
1512177112.704813,-0.674991,0.546903,-1.504877,0.103175,0.090943,0.006384,-0.533744,-0.520045,-0.666837,0.081565,0.062479,-0.102588,-23.674088,20.243019,-10.015587,,,,,,,
1512177112.724833,-0.675989,0.549282,-1.501836,0.195035,-0.001949,0.055363,-0.533633,-0.522075,-0.665337,0.112933,0.062221,-0.059272,-23.898560,20.392677,-10.313591,,,,,,,
1512177112.744822,-0.679254,0.550844,-1.497344,0.170509,-0.082222,0.116560,-0.535289,-0.523406,-0.662956,0.088176,0.021255,-0.038017,-24.049652,20.167458,-10.462425,,,,,,,
1512177112.764811,-0.683601,0.551279,-1.492827,0.107262,-0.107999,0.135807,-0.538023,-0.523777,-0.660446,0.031995,0.010121,-0.045380,-23.897858,20.542671,-10.238518,,,,,,,
1512177112.784831,-0.686635,0.550530,-1.489949,0.042829,-0.054616,0.103080,-0.540272,-0.523139,-0.659114,0.007847,0.018760,-0.057591,-24.199997,20.092232,-10.461174,,,,,,,
1512177112.804820,-0.687721,0.550233,-1.487951,0.043626,-0.001114,0.057438,-0.541087,-0.522886,-0.658647,-0.002203,0.017789,-0.065535,-23.748230,20.467903,-10.314827,,,,,,,
1512177112.824838,-0.688105,0.550601,-1.487016,0.051820,-0.001016,0.012781,-0.541217,-0.523199,-0.658291,0.009494,0.016867,-0.056691,-23.447357,20.618355,-9.942314,,,,,,,
1512177112.844827,-0.689089,0.551484,-1.486441,0.046035,-0.063967,-0.026964,-0.541570,-0.523952,-0.657401,0.009329,0.050075,-0.057062,-23.672546,20.618019,-10.315392,,,,,,,
1512177112.864847,-0.690288,0.552703,-1.485675,0.089343,-0.026570,-0.001691,-0.541951,-0.524990,-0.656258,0.013417,0.054210,-0.029640,-23.449646,20.168358,-10.467522,,,,,,,
1512177112.884836,-0.691972,0.554163,-1.483777,0.110190,-0.044752,0.026266,-0.542566,-0.526232,-0.654754,0.010172,0.063433,-0.002702,-24.048645,20.392448,-10.462318,,,,,,,
1512177112.904825,-0.693636,0.554853,-1.482065,0.060970,-0.028826,0.038402,-0.543423,-0.526818,-0.653570,0.017086,0.071527,0.014242,-23.824310,20.242790,-10.464302,,,,,,,
1512177112.924845,-0.694805,0.554920,-1.479815,0.062293,0.007391,0.088650,-0.544163,-0.526875,-0.652908,0.024037,0.049855,0.022415,-24.123871,20.317345,-10.236717,,,,,,,
1512177112.944834,-0.695633,0.553405,-1.478140,-0.050958,0.002919,0.104053,-0.545214,-0.525587,-0.653069,0.013217,0.025908,0.002877,-24.049210,20.242455,-10.237389,,,,,,,
1512177112.964854,-0.695447,0.550979,-1.477153,-0.065899,0.047754,0.107190,-0.545908,-0.523522,-0.654147,-0.006048,-0.010002,-0.028074,-23.974655,20.167564,-10.463051,,,,,,,
1512177112.984843,-0.694515,0.548582,-1.477177,-0.105448,0.051013,0.049061,-0.546100,-0.521478,-0.655618,-0.022183,0.004907,-0.074576,-23.900635,19.942680,-10.388802,,,,,,,
1512177113.004832,-0.691950,0.546758,-1.478264,-0.084387,0.125908,0.003786,-0.545023,-0.519920,-0.657748,0.000162,0.021233,-0.091047,-23.898758,20.392677,-10.688591,,,,,,,
1512177113.024850,-0.689110,0.546557,-1.479422,-0.005676,0.098363,-0.051671,-0.543219,-0.519749,-0.659373,0.034048,0.058445,-0.097081,-23.898895,20.317680,-10.313622,,,,,,,
1512177113.044839,-0.687501,0.548390,-1.479427,0.114752,0.061160,-0.051121,-0.541551,-0.521314,-0.659509,0.059847,0.037763,-0.075110,-23.523346,20.468239,-10.541756,,,,,,,
1512177113.064859,-0.688080,0.550506,-1.477597,0.125113,-0.005207,0.028754,-0.541232,-0.523118,-0.658342,0.044634,0.021943,-0.058516,-23.598373,20.468132,-10.616112,,,,,,,
1512177113.084848,-0.689654,0.550718,-1.475041,0.057814,-0.011864,0.101313,-0.542197,-0.523299,-0.657403,0.010062,0.019378,-0.047110,-24.122849,20.617348,-10.911583,,,,,,,
1512177113.104837,-0.690571,0.549819,-1.472632,0.024772,0.028675,0.103108,-0.543099,-0.522533,-0.657268,-0.004936,0.038600,-0.044545,-24.198898,20.392235,-10.986046,,,,,,,
1512177113.124857,-0.690403,0.549238,-1.470938,0.027711,0.057613,0.055278,-0.543181,-0.522037,-0.657593,0.004897,0.038319,-0.028243,-23.597855,20.618126,-10.916039,,,,,,,
1512177113.144846,-0.689350,0.548824,-1.470937,-0.036113,0.043777,-0.018186,-0.542626,-0.521684,-0.658332,0.029046,0.042878,-0.032953,-23.597885,20.618126,-10.991035,,,,,,,
1512177113.164865,-0.687328,0.548764,-1.472051,-0.031599,0.077991,-0.031861,-0.541314,-0.521633,-0.659452,0.069436,0.016262,-0.032427,-23.899200,20.317680,-10.913628,,,,,,,
1512177113.184855,-0.685838,0.547805,-1.473256,-0.076093,0.025492,0.013152,-0.540647,-0.520815,-0.660645,0.091199,0.009401,-0.046951,-23.899658,20.242683,-11.138664,,,,,,,
1512177113.204844,-0.684996,0.546258,-1.473163,-0.043947,0.038247,0.068029,-0.540600,-0.519494,-0.661723,0.097561,0.013314,-0.081823,-24.049988,20.167458,-11.137428,,,,,,,
1512177113.224864,-0.685408,0.544792,-1.472208,-0.011116,-0.018334,0.078971,-0.541354,-0.518240,-0.662089,0.079852,0.026251,-0.102178,-23.750443,20.092903,-11.365013,,,,,,,
1512177113.244853,-0.686773,0.544424,-1.469806,0.098321,-0.003257,0.101930,-0.542378,-0.517925,-0.661497,0.063084,0.041256,-0.087450,-23.824280,20.317787,-11.064262,,,,,,,
1512177113.264871,-0.689265,0.545701,-1.465554,0.195227,-0.037302,0.106413,-0.543604,-0.519017,-0.659632,0.054147,0.045888,-0.047811,-23.600220,20.093132,-10.916283,,,,,,,
1512177113.284860,-0.692826,0.547162,-1.460772,0.183405,-0.072580,0.110383,-0.545464,-0.520266,-0.657108,0.037529,0.064822,-0.006283,-23.899689,20.242683,-11.213661,,,,,,,
1512177113.304849,-0.696310,0.548724,-1.456355,0.177412,-0.062924,0.086878,-0.547228,-0.521599,-0.654579,0.025576,0.068474,0.027504,-24.349915,20.167000,-10.984871,,,,,,,
1512177113.324869,-0.698605,0.549966,-1.453400,0.097152,-0.019169,0.042156,-0.548312,-0.522658,-0.652825,0.031574,0.054091,0.055047,-24.052536,19.642448,-11.512672,,,,,,,
1512177113.344858,-0.699012,0.549719,-1.452072,-0.012829,0.026573,0.055649,-0.548661,-0.522447,-0.652701,0.033357,0.033861,0.057349,-23.899200,20.317680,-10.913628,,,,,,,
1512177113.364877,-0.697781,0.547686,-1.452029,-0.111157,0.085137,0.073616,-0.548538,-0.520713,-0.654188,0.027802,0.030692,0.047789,-23.899460,20.242683,-10.763664,,,,,,,
1512177113.384866,-0.695134,0.544436,-1.452895,-0.153771,0.112845,0.073095,-0.547885,-0.517936,-0.656934,0.009647,0.038078,-0.016223,-23.672745,20.618019,-10.690392,,,,,,,
1512177113.404855,-0.692169,0.541787,-1.453711,-0.101141,0.146081,0.050518,-0.546809,-0.515668,-0.659610,0.012309,0.043729,-0.050260,-23.749130,20.317894,-10.764900,,,,,,,
1512177113.424875,-0.689126,0.539908,-1.453312,-0.045299,0.162114,0.091896,-0.545415,-0.514057,-0.662018,0.007557,0.020938,-0.066681,-23.748718,20.392906,-10.614861,,,,,,,
1512177113.444865,-0.687139,0.537325,-1.452180,-0.088614,0.107490,0.129454,-0.544939,-0.511840,-0.664124,-0.008437,0.043655,-0.086960,-23.449387,20.243355,-10.617485,,,,,,,
1512177113.464884,-0.685977,0.534730,-1.451136,-0.041334,0.076633,0.105513,-0.545006,-0.509609,-0.665782,-0.004524,0.061916,-0.082524,-23.674423,20.243019,-10.690575,,,,,,,
1512177113.484873,-0.685481,0.534071,-1.449604,0.045968,0.046979,0.046978,-0.544888,-0.509041,-0.666313,0.018796,0.068657,-0.068948,-23.523193,20.543236,-10.916710,,,,,,,
1512177113.504842,-0.685382,0.534990,-1.448720,0.068437,0.019378,-0.024219,-0.544526,-0.509833,-0.666004,0.047730,0.030585,-0.039135,-23.674957,20.168007,-11.065605,,,,,,,
1512177113.524862,-0.685028,0.535823,-1.448802,-0.009247,-0.004224,-0.033956,-0.544021,-0.510549,-0.665867,0.071289,-0.003352,-0.033581,-23.673859,20.393013,-10.915504,,,,,,,
1512177113.544851,-0.684220,0.535059,-1.451021,-0.112270,-0.008611,-0.057853,-0.543730,-0.509892,-0.666608,0.079801,-0.010784,-0.049517,-23.676147,19.868004,-10.765755,,,,,,,
1512177113.564870,-0.682564,0.534083,-1.453465,-0.072021,0.029872,-0.040079,-0.542938,-0.509052,-0.667894,0.093399,0.007023,-0.081831,-23.449768,20.168358,-10.692513,,,,,,,
1512177113.584859,-0.681299,0.534042,-1.454332,0.003376,0.034226,-0.021914,-0.542106,-0.509017,-0.668596,0.110130,0.032180,-0.098356,-23.674423,20.243019,-10.690575,,,,,,,
1512177113.604879,-0.680949,0.534623,-1.453562,0.067410,0.033139,0.038711,-0.541686,-0.509517,-0.668556,0.123428,0.028468,-0.071144,-23.599808,20.168129,-10.766243,,,,,,,
1512177113.624868,-0.681903,0.534841,-1.450499,0.104104,0.020170,0.139404,-0.542253,-0.509704,-0.667953,0.105669,0.025421,-0.052796,-23.675781,19.943016,-10.690712,,,,,,,
1512177113.644857,-0.683848,0.533881,-1.445115,0.106582,0.039191,0.249313,-0.543860,-0.508878,-0.667276,0.053519,0.014036,-0.045096,-23.447922,20.543358,-10.392357,,,,,,,
1512177113.664877,-0.685979,0.531575,-1.439264,0.050775,0.036926,0.271950,-0.546023,-0.506891,-0.667022,-0.003416,0.014719,-0.054062,-23.221268,20.918694,-10.469093,,,,,,,
1512177113.684866,-0.686779,0.528318,-1.434569,-0.016007,0.090270,0.250911,-0.547601,-0.504081,-0.667858,-0.033256,0.027305,-0.071003,-23.071457,20.843925,-10.170403,,,,,,,
1512177113.704885,-0.685991,0.525239,-1.431103,-0.017179,0.123495,0.194509,-0.548055,-0.501420,-0.669487,-0.038188,0.034684,-0.084297,-22.995453,21.069038,-10.170937,,,,,,,
1512177113.724874,-0.685187,0.523196,-1.429099,-0.020850,0.051061,0.090798,-0.548163,-0.499651,-0.670719,-0.029916,0.061251,-0.092404,-22.769852,21.219368,-10.322777,,,,,,,
1512177113.744863,-0.685186,0.522965,-1.428521,0.033993,0.000057,-0.005599,-0.548235,-0.499451,-0.670809,0.002764,0.073228,-0.072538,-22.770523,21.069374,-10.322838,,,,,,,
1512177113.764883,-0.685775,0.524519,-1.428222,0.079504,-0.039304,-0.051982,-0.548138,-0.500797,-0.669885,0.035702,0.085758,-0.051490,-22.770416,21.069374,-10.097847,,,,,,,
1512177113.784872,-0.687191,0.526080,-1.427888,0.079116,-0.064984,-0.029689,-0.548590,-0.502148,-0.668502,0.054983,0.076321,-0.024094,-23.069809,21.218925,-10.245216,,,,,,,
1512177113.804891,-0.688462,0.527707,-1.426996,0.082199,-0.035085,-0.021011,-0.548919,-0.503554,-0.667173,0.059829,0.038893,-0.016634,-23.145630,20.993813,-9.869698,,,,,,,
1512177113.824880,-0.688909,0.528127,-1.426637,-0.003619,-0.001101,0.013044,-0.549083,-0.503917,-0.666764,0.054927,0.006083,-0.019118,-22.994476,21.294029,-10.245827,,,,,,,
1512177113.844869,-0.688165,0.526905,-1.427042,-0.069780,0.044721,0.019709,-0.548977,-0.502861,-0.667648,0.040020,0.029274,-0.055207,-22.919510,21.294151,-10.321465,,,,,,,
1512177113.864889,-0.686050,0.525797,-1.427211,-0.023191,0.123788,0.041977,-0.547916,-0.501903,-0.669238,0.057285,0.054973,-0.073270,-22.844513,21.294258,-10.322105,,,,,,,
1512177113.884878,-0.684491,0.525675,-1.426391,0.055257,0.066306,0.001338,-0.546911,-0.501797,-0.670139,0.071554,0.093426,-0.068661,-22.694473,21.294487,-10.248375,,,,,,,
1512177113.904897,-0.684512,0.528194,-1.425048,0.173081,0.018492,-0.034432,-0.546124,-0.503974,-0.669146,0.081585,0.103034,-0.012723,-22.692719,21.669487,-10.098198,,,,,,,
1512177113.924886,-0.686065,0.530849,-1.421943,0.186462,-0.012650,0.057333,-0.546313,-0.506265,-0.667259,0.090106,0.082269,0.031044,-22.543350,21.594704,-10.699516,,,,,,,
1512177113.944875,-0.688118,0.532009,-1.418338,0.101647,-0.012852,0.093415,-0.547308,-0.507266,-0.665682,0.063315,0.052493,0.030444,-22.316956,21.895058,-10.626289,,,,,,,
1512177113.964895,-0.688999,0.530475,-1.416060,-0.047251,0.038104,0.139408,-0.548389,-0.505943,-0.665800,0.022021,0.007988,0.014234,-21.867447,21.745720,-10.255180,,,,,,,
1512177113.984884,-0.687345,0.527207,-1.415854,-0.146442,0.112837,0.080661,-0.548333,-0.503122,-0.667980,0.020837,0.044641,-0.054173,-22.241592,21.970161,-10.551888,,,,,,,
1512177114.004903,-0.683784,0.524784,-1.416714,-0.075089,0.163268,0.023239,-0.546720,-0.501026,-0.670872,0.073117,0.034137,-0.084545,-22.315613,22.195045,-10.626152,,,,,,,
1512177114.024892,-0.681086,0.525024,-1.416942,0.040724,0.099440,-0.021146,-0.544832,-0.501233,-0.672251,0.130480,0.019025,-0.083471,-22.239517,22.420174,-10.476677,,,,,,,
1512177114.044881,-0.680521,0.524819,-1.415840,-0.010285,0.026497,0.095129,-0.544517,-0.501056,-0.672639,0.138282,0.006702,-0.103179,-22.088623,22.645393,-10.702843,,,,,,,
1512177114.064901,-0.681293,0.522258,-1.414081,-0.051668,0.000695,0.146676,-0.545842,-0.498838,-0.673212,0.095143,-0.030840,-0.142095,-21.636139,23.171074,-10.481438,,,,,,,
1512177114.084890,-0.681649,0.520420,-1.412259,0.003500,0.040391,0.099638,-0.546659,-0.497244,-0.673729,0.049024,-0.016016,-0.180779,-22.088165,22.720390,-10.477821,,,,,,,
1512177114.104910,-0.681263,0.520335,-1.410089,0.097906,0.072654,0.065941,-0.546425,-0.497171,-0.673972,0.040092,0.015131,-0.171609,-21.711075,23.170952,-10.330788,,,,,,,
1512177114.124899,-0.681668,0.522737,-1.407242,0.220508,0.024903,-0.001744,-0.545944,-0.499253,-0.672822,0.049530,0.054902,-0.121398,-21.934799,23.470619,-10.478752,,,,,,,
1512177114.144888,-0.683480,0.527086,-1.403397,0.291763,-0.009190,0.006631,-0.545786,-0.503017,-0.670142,0.064890,0.051174,-0.055658,-22.160172,23.395287,-10.551872,,,,,,,
1512177114.164907,-0.686226,0.530528,-1.398820,0.218213,-0.044674,0.069407,-0.546523,-0.505989,-0.667297,0.062759,0.048897,-0.014466,-22.159607,23.545280,-10.776802,,,,,,,
1512177114.184896,-0.689093,0.531182,-1.394553,0.114561,-0.019356,0.150079,-0.548224,-0.506553,-0.665472,0.042013,0.044715,0.017446,-22.085587,23.320396,-10.702538,,,,,,,
1512177114.204916,-0.690721,0.530005,-1.390254,0.056362,0.042427,0.191026,-0.549686,-0.505538,-0.665037,0.005786,0.048323,0.010573,-22.458298,23.844841,-10.849113,,,,,,,
1512177114.224905,-0.691025,0.528051,-1.386644,0.011921,0.095804,0.173511,-0.550516,-0.503850,-0.665631,-0.008688,0.034673,0.007748,-22.458603,23.769844,-10.774147,,,,,,,
1512177114.244894,-0.689542,0.525750,-1.384340,-0.050290,0.135315,0.134372,-0.550265,-0.501862,-0.667339,0.007342,0.029602,-0.018544,-22.532654,23.994728,-10.923409,,,,,,,
1512177114.264913,-0.687116,0.523284,-1.384551,-0.123158,0.095890,0.025505,-0.549428,-0.499728,-0.669626,0.038075,0.027117,-0.055700,-22.007767,23.995522,-11.152870,,,,,,,
1512177114.284902,-0.684061,0.522397,-1.387407,-0.088743,0.085555,-0.122214,-0.547659,-0.498959,-0.671645,0.072256,0.025021,-0.093309,-22.307465,24.070061,-11.225288,,,,,,,
1512177114.304922,-0.680082,0.523631,-1.390917,-0.028419,0.133782,-0.158487,-0.544595,-0.500028,-0.673339,0.122659,0.033506,-0.112671,-22.458557,23.844841,-11.374107,,,,,,,
1512177114.324911,-0.676170,0.524758,-1.392983,0.006268,0.142196,-0.063074,-0.541604,-0.501003,-0.675025,0.155358,0.041851,-0.117715,-22.609009,23.769615,-11.597862,,,,,,,
1512177114.344900,-0.674598,0.525382,-1.391415,0.112466,0.089720,0.088598,-0.540346,-0.501544,-0.675631,0.145479,0.026751,-0.111432,-22.532883,23.994728,-11.373405,,,,,,,
1512177114.364919,-0.676390,0.526125,-1.386174,0.192889,0.018078,0.185457,-0.541323,-0.502186,-0.674371,0.101183,0.036808,-0.085868,-22.534042,23.769722,-11.673515,,,,,,,
1512177114.384908,-0.679161,0.526195,-1.379620,0.180298,0.022224,0.237523,-0.543168,-0.502246,-0.672841,0.046235,0.030872,-0.055186,-22.158447,23.920296,-11.826622,,,,,,,
1512177114.404928,-0.681194,0.525947,-1.373367,0.154340,0.059661,0.198906,-0.544612,-0.502032,-0.671832,0.007534,0.023517,-0.044904,-22.383179,23.994957,-11.974663,,,,,,,
1512177114.424917,-0.681702,0.526024,-1.369237,0.103685,0.067242,0.102249,-0.544930,-0.502099,-0.671525,-0.006142,0.015008,-0.038375,-22.533417,23.994728,-12.423393,,,,,,,
1512177114.444936,-0.680095,0.526392,-1.367800,0.022170,0.128198,0.006402,-0.543733,-0.502417,-0.672256,0.041002,0.016608,-0.042236,-22.759384,23.769386,-12.346581,,,,,,,
1512177114.464925,-0.677082,0.526304,-1.368498,-0.021841,0.133560,-0.040059,-0.541733,-0.502341,-0.673926,0.087220,0.026114,-0.054407,-22.535431,23.544716,-12.423607,,,,,,,
1512177114.484914,-0.673637,0.527470,-1.369611,0.043996,0.147644,-0.088094,-0.539043,-0.503348,-0.675330,0.121486,0.053291,-0.063577,-22.684494,23.769493,-12.572227,,,,,,,
1512177114.504915,-0.670649,0.529084,-1.369662,0.067253,0.144322,-0.012080,-0.536516,-0.504743,-0.676300,0.142702,0.038129,-0.067855,-22.759979,23.694389,-12.871620,,,,,,,
1512177114.524904,-0.668920,0.528886,-1.367521,0.043701,0.132272,0.122928,-0.535408,-0.504572,-0.677305,0.126152,0.019220,-0.092211,-22.759613,23.769386,-12.796593,,,,,,,
1512177114.544924,-0.668533,0.528251,-1.364000,0.102040,0.078924,0.138514,-0.535345,-0.504024,-0.677764,0.099599,0.031398,-0.113344,-22.534012,23.919731,-12.948433,,,,,,,
1512177114.564914,-0.669157,0.529066,-1.359380,0.187443,0.081203,0.131230,-0.535513,-0.504727,-0.677107,0.098470,0.036939,-0.094042,-22.459015,23.919838,-12.949059,,,,,,,
1512177114.584903,-0.669805,0.531109,-1.354234,0.234895,0.093091,0.098912,-0.535310,-0.506490,-0.675950,0.098069,0.015676,-0.065520,-22.533783,23.994728,-13.173393,,,,,,,
1512177114.604922,-0.669744,0.533453,-1.349906,0.181083,0.104828,0.066193,-0.534530,-0.508510,-0.675050,0.110931,0.004039,-0.065016,-22.384903,23.769951,-13.399773,,,,,,,
1512177114.624910,-0.669058,0.534731,-1.346984,0.119321,0.103668,0.061026,-0.533663,-0.509610,-0.674906,0.131960,0.011243,-0.062368,-22.535278,23.694725,-13.473534,,,,,,,
1512177114.644930,-0.668036,0.536269,-1.344319,0.153947,0.116599,0.030657,-0.532487,-0.510932,-0.674836,0.165925,0.059226,-0.067657,-22.610992,23.544609,-13.547966,,,,,,,
1512177114.664919,-0.666920,0.538583,-1.341242,0.184471,0.130481,0.054599,-0.531001,-0.512920,-0.674499,0.192226,0.029262,-0.066377,-22.460358,23.694832,-13.624168,,,,,,,
1512177114.684908,-0.667035,0.539993,-1.336344,0.175097,0.114216,0.169540,-0.530631,-0.514130,-0.673869,0.155585,-0.027389,-0.067907,-22.536118,23.544716,-13.773598,,,,,,,
1512177114.704927,-0.666732,0.538416,-1.330902,0.029540,0.173611,0.272113,-0.530927,-0.512777,-0.674666,0.083417,-0.063060,-0.123842,-21.859451,23.920738,-13.854164,,,,,,,
1512177114.724916,-0.664815,0.534832,-1.325537,0.016340,0.248313,0.300967,-0.530763,-0.509696,-0.677124,0.015519,-0.060937,-0.170928,-21.709717,23.845955,-13.705467,,,,,,,
1512177114.744936,-0.662472,0.532321,-1.319057,0.117813,0.274123,0.289733,-0.529961,-0.507535,-0.679373,0.002342,0.022564,-0.176782,-21.634079,23.996071,-13.781044,,,,,,,
1512177114.764925,-0.660920,0.532887,-1.312112,0.262345,0.227553,0.186127,-0.528730,-0.508022,-0.679968,0.027799,0.049282,-0.120920,-21.632538,24.371056,-14.080864,,,,,,,
1512177114.784914,-0.660594,0.535536,-1.305269,0.279069,0.155035,0.138145,-0.527680,-0.510302,-0.679075,0.059464,0.068713,-0.047716,-21.407471,24.371407,-13.932777,,,,,,,
1512177114.804934,-0.661218,0.537750,-1.300038,0.191169,0.066316,0.098183,-0.527409,-0.512204,-0.677852,0.077321,0.067350,-0.006520,-21.782364,24.445839,-14.379555,,,,,,,
1512177114.824923,-0.662281,0.538419,-1.296558,0.083438,0.022353,0.099667,-0.527918,-0.512779,-0.677021,0.069926,0.068397,-0.001141,-21.632324,24.446068,-14.305840,,,,,,,
1512177114.844943,-0.663099,0.537702,-1.293987,0.029907,0.021178,0.113814,-0.528698,-0.512164,-0.676878,0.046428,0.067324,-0.022859,-21.632736,24.371056,-14.455864,,,,,,,
1512177114.864932,-0.663579,0.536824,-1.291353,0.050214,0.053257,0.112087,-0.529299,-0.511409,-0.676979,0.043307,0.047603,-0.049157,-21.181381,24.671745,-14.459541,,,,,,,
1512177114.884920,-0.662486,0.537051,-1.289560,0.059327,0.127167,0.015464,-0.528488,-0.511604,-0.677465,0.048538,0.031044,-0.076121,-21.257324,24.446617,-14.309029,,,,,,,
1512177114.904939,-0.658685,0.538087,-1.289274,0.050602,0.235133,-0.032260,-0.525584,-0.512494,-0.679049,0.082698,0.007840,-0.090787,-21.257538,24.446617,-14.759026,,,,,,,
1512177114.924928,-0.653404,0.539141,-1.288095,0.105988,0.319470,0.040265,-0.521662,-0.513399,-0.681386,0.133982,-0.004087,-0.110728,-21.183701,24.221748,-15.059761,,,,,,,
1512177114.944948,-0.648833,0.540929,-1.283870,0.232688,0.340879,0.115733,-0.517987,-0.514933,-0.683031,0.197094,0.001200,-0.124831,-20.660873,23.772530,-15.364433,,,,,,,
1512177114.964937,-0.645411,0.543537,-1.277016,0.308387,0.341935,0.179731,-0.514836,-0.517166,-0.683724,0.250371,0.011078,-0.132972,-20.885025,23.997200,-15.662407,,,,,,,
1512177114.984926,-0.643608,0.546602,-1.268128,0.383200,0.298153,0.230767,-0.512649,-0.519787,-0.683380,0.290862,0.024670,-0.118744,-20.813507,23.247307,-15.888390,,,,,,,
1512177115.004946,-0.644313,0.550321,-1.257058,0.452532,0.228705,0.289095,-0.511966,-0.522961,-0.681468,0.320758,0.043622,-0.081426,-20.511032,23.847755,-16.340660,,,,,,,
1512177115.024935,-0.646881,0.553181,-1.244376,0.423076,0.203885,0.393054,-0.512811,-0.525397,-0.678955,0.261300,0.018912,-0.076645,-20.210571,23.998207,-16.793144,,,,,,,
1512177115.044955,-0.649122,0.552859,-1.229525,0.332534,0.317666,0.589364,-0.514434,-0.525122,-0.677939,0.151503,-0.030725,-0.089975,-19.834229,24.298775,-16.796196,,,,,,,
1512177115.064944,-0.649641,0.549414,-1.213555,0.257727,0.404980,0.668535,-0.515877,-0.522188,-0.679108,0.050621,-0.052183,-0.123092,-19.383820,24.374428,-16.649986,,,,,,,
1512177115.084933,-0.649540,0.546114,-1.197813,0.305557,0.400894,0.612714,-0.516847,-0.519370,-0.680530,-0.020292,-0.035699,-0.155423,-19.084000,24.374886,-17.027534,,,,,,,
1512177115.104953,-0.650130,0.545442,-1.181970,0.429596,0.368147,0.523783,-0.517460,-0.518796,-0.680502,-0.045391,0.011777,-0.149943,-18.708359,24.525444,-17.105644,,,,,,,
1512177115.124942,-0.651185,0.547612,-1.166968,0.481835,0.317208,0.391102,-0.517494,-0.520650,-0.679058,-0.013496,0.050649,-0.116718,-18.107651,24.676353,-17.035683,,,,,,,
1512177115.144960,-0.651809,0.551071,-1.154607,0.437912,0.263964,0.271947,-0.516822,-0.523600,-0.677300,0.017539,0.043086,-0.103386,-17.881226,25.051689,-17.562416,,,,,,,
1512177115.164949,-0.652621,0.554957,-1.145001,0.377657,0.187158,0.172730,-0.516133,-0.526907,-0.675258,0.044240,0.050787,-0.095479,-17.583435,24.527138,-17.265205,,,,,,,
1512177115.184969,-0.652784,0.558662,-1.137619,0.323177,0.192532,0.115459,-0.515053,-0.530052,-0.673618,0.083931,0.042214,-0.085293,-17.509109,24.452248,-17.940880,,,,,,,
1512177115.204958,-0.651825,0.562453,-1.131671,0.291959,0.219278,0.070325,-0.513184,-0.533263,-0.672510,0.109192,0.024230,-0.089651,-17.584259,24.452141,-18.240242,,,,,,,
1512177115.224947,-0.649825,0.565981,-1.126669,0.263443,0.239567,0.056128,-0.510697,-0.536244,-0.672033,0.129960,0.018467,-0.096842,-17.885468,24.226692,-18.612785,,,,,,,
1512177115.244967,-0.647247,0.569474,-1.121664,0.274966,0.278004,0.069217,-0.507830,-0.539189,-0.671849,0.127566,-0.001049,-0.094615,-17.210541,24.227715,-18.768532,,,,,,,
1512177115.264956,-0.643766,0.573222,-1.116129,0.307985,0.343205,0.074187,-0.504272,-0.542342,-0.671991,0.118469,-0.013506,-0.098242,-16.910568,24.228157,-18.846077,,,,,,,
1512177115.284976,-0.640035,0.577403,-1.110052,0.329098,0.340012,0.087277,-0.500403,-0.545850,-0.672043,0.125128,-0.026827,-0.100235,-17.137863,23.777824,-19.369362,,,,,,,
1512177115.304965,-0.636716,0.581554,-1.103717,0.328884,0.325029,0.098946,-0.496817,-0.549323,-0.671873,0.134421,0.011024,-0.083834,-16.839172,23.478264,-19.297050,,,,,,,
1512177115.324954,-0.634190,0.585968,-1.096208,0.399484,0.328242,0.149018,-0.493677,-0.553006,-0.671166,0.149058,0.028577,-0.067924,-16.990707,23.178047,-19.670921,,,,,,,
1512177115.344972,-0.632997,0.591242,-1.086033,0.508395,0.337916,0.203934,-0.491144,-0.557393,-0.669393,0.147715,0.046147,-0.068918,-16.542206,22.878716,-19.974892,,,,,,,
1512177115.364961,-0.632058,0.597801,-1.074263,0.578799,0.396768,0.203022,-0.488345,-0.562826,-0.666890,0.138552,0.040792,-0.053523,-16.467651,22.803825,-20.200554,,,,,,,
1512177115.384981,-0.630064,0.605305,-1.061479,0.641506,0.479088,0.219144,-0.484512,-0.569013,-0.664431,0.143539,0.021329,-0.041989,-16.018967,22.579491,-20.804482,,,,,,,
1512177115.404970,-0.627630,0.613221,-1.047434,0.678486,0.538919,0.242276,-0.480233,-0.575505,-0.661942,0.160897,0.012684,-0.039779,-15.795807,22.204826,-21.106560,,,,,,,
1512177115.424959,-0.624334,0.622078,-1.032692,0.735418,0.606351,0.219884,-0.475050,-0.582725,-0.659360,0.163664,-0.006661,-0.051288,-15.802338,20.929817,-22.682152,,,,,,,
1512177115.444978,-0.620655,0.631750,-1.017440,0.764099,0.629877,0.226775,-0.469322,-0.590558,-0.656487,0.175346,-0.014179,-0.060234,-15.805023,20.404823,-23.357384,,,,,,,
1512177115.464967,-0.617778,0.641795,-1.001424,0.807561,0.593600,0.240072,-0.463971,-0.598635,-0.652965,0.196988,-0.022932,-0.058231,-15.207016,20.030708,-23.962654,,,,,,,
1512177115.484987,-0.617085,0.652590,-0.984371,0.844752,0.522085,0.244630,-0.459752,-0.607246,-0.647979,0.194158,-0.039269,-0.042054,-14.912125,19.056160,-25.390648,,,,,,,
1512177115.504963,-0.618309,0.662952,-0.967108,0.783377,0.432192,0.276472,-0.456873,-0.615447,-0.642253,0.176676,-0.066103,0.000408,-14.466690,18.081825,-25.769936,,,,,,,
1512177115.524952,-0.619521,0.669784,-0.951158,0.534987,0.440227,0.341128,-0.455199,-0.620817,-0.638261,0.119094,-0.074008,0.018403,-14.165497,18.382271,-26.072334,,,,,,,
1512177115.544972,-0.617791,0.671373,-0.938341,0.264915,0.511340,0.367316,-0.453522,-0.622062,-0.638242,0.072251,-0.044213,0.005781,-13.565521,18.383171,-26.152443,,,,,,,
1512177115.564961,-0.612670,0.671310,-0.928911,0.202829,0.550983,0.254614,-0.450270,-0.622012,-0.640589,0.049651,-0.011228,-0.034994,-13.564957,18.533180,-26.377373,,,,,,,
1512177115.584980,-0.605869,0.673374,-0.922390,0.236222,0.537446,0.103671,-0.445171,-0.623627,-0.642579,0.065700,-0.017562,-0.059966,-13.415451,18.458397,-26.678673,,,,,,,
1512177115.604969,-0.597102,0.675772,-0.917618,0.167167,0.616409,0.093351,-0.438679,-0.625500,-0.645219,0.096302,-0.052433,-0.090636,-12.893143,17.859184,-26.683403,,,,,,,
1512177115.624958,-0.586919,0.676217,-0.912597,0.098255,0.694067,0.203494,-0.431931,-0.625847,-0.649420,0.116197,-0.110054,-0.119714,-12.741943,18.159416,-26.984550,,,,,,,
1512177115.644978,-0.577123,0.673996,-0.906108,0.021953,0.679865,0.304681,-0.426306,-0.624113,-0.654784,0.131689,-0.128695,-0.172013,-12.067093,18.085426,-26.615318,,,,,,,
1512177115.664967,-0.568977,0.671426,-0.898828,0.081606,0.590231,0.303102,-0.421821,-0.622103,-0.659584,0.151375,-0.098386,-0.202095,-11.692398,18.085991,-27.218498,,,,,,,
1512177115.684986,-0.564337,0.671421,-0.890795,0.223151,0.415373,0.243776,-0.418758,-0.622099,-0.661537,0.183697,-0.065645,-0.204155,-11.391083,18.386436,-27.295921,,,,,,,
1512177115.704975,-0.563440,0.673567,-0.881987,0.295669,0.269156,0.234722,-0.417451,-0.623778,-0.660782,0.203446,-0.004305,-0.150421,-11.166153,18.386772,-27.447823,,,,,,,
1512177115.724964,-0.565548,0.676283,-0.872186,0.331390,0.157000,0.261502,-0.417933,-0.625899,-0.658467,0.204310,0.037657,-0.083995,-11.318176,17.936546,-27.446754,,,,,,,
1512177115.744984,-0.570179,0.679282,-0.861662,0.354719,0.076919,0.265829,-0.419963,-0.628234,-0.654942,0.190547,0.046111,-0.012493,-11.619278,17.711098,-27.594307,,,,,,,
1512177115.764973,-0.575968,0.681837,-0.850942,0.310469,0.030855,0.295941,-0.422872,-0.630220,-0.651152,0.177327,0.029894,0.034819,-11.169754,17.636772,-27.898170,,,,,,,
1512177115.784992,-0.582004,0.682153,-0.840577,0.188149,0.013485,0.343148,-0.426685,-0.630466,-0.648421,0.137760,0.009326,0.047942,-11.320389,17.486549,-27.821968,,,,,,,
1512177115.804981,-0.586861,0.680945,-0.832010,0.116495,0.039107,0.293158,-0.430250,-0.629527,-0.646975,0.115492,0.027934,0.029543,-11.095734,17.411888,-27.823906,,,,,,,
1512177115.825001,-0.590675,0.679880,-0.823898,0.148343,0.079728,0.303356,-0.433088,-0.628700,-0.645885,0.104612,0.064704,0.015377,-10.869339,17.712227,-27.750694,,,,,,,
1512177115.844990,-0.594223,0.679164,-0.814540,0.178796,0.135265,0.334909,-0.435629,-0.628143,-0.644717,0.081778,0.012634,0.018131,-10.794647,17.637337,-27.676369,,,,,,,
1512177115.864979,-0.596807,0.677388,-0.804922,0.095958,0.199130,0.382967,-0.437919,-0.626760,-0.644511,0.056205,-0.069529,0.010539,-10.720276,17.487450,-27.602058,,,,,,,
1512177115.884998,-0.597808,0.672831,-0.795647,-0.033002,0.251147,0.448443,-0.440167,-0.623203,-0.646427,0.037533,-0.120266,-0.052243,-10.569305,17.712669,-27.678246,,,,,,,
1512177115.904987,-0.597599,0.665978,-0.788008,-0.154152,0.244601,0.425345,-0.442425,-0.617828,-0.650034,0.033810,-0.094665,-0.136129,-9.967834,18.013573,-27.458199,,,,,,,
1512177115.925007,-0.595979,0.660043,-0.782016,-0.046786,0.281298,0.316157,-0.443422,-0.613151,-0.653773,0.031252,-0.057031,-0.172322,-9.741791,18.238914,-27.385002,,,,,,,
1512177115.944996,-0.594113,0.659588,-0.775755,0.204104,0.265954,0.163024,-0.442357,-0.612791,-0.654831,0.119084,0.051771,-0.171402,-9.742798,18.013908,-27.385109,,,,,,,
1512177115.964985,-0.593577,0.662727,-0.769462,0.282571,0.196730,0.121281,-0.440928,-0.615269,-0.653470,0.199366,0.030628,-0.079684,-9.443100,17.939354,-27.312706,,,,,,,
1512177115.985004,-0.594891,0.664952,-0.762282,0.217110,0.123820,0.208562,-0.441018,-0.617021,-0.651754,0.195489,-0.036543,-0.043085,-9.969193,17.713570,-27.458336,,,,,,,
1512177116.004994,-0.596872,0.664293,-0.755288,0.088179,0.113893,0.269560,-0.442537,-0.616503,-0.651215,0.168489,-0.085066,-0.072875,-9.894638,17.638680,-27.684013,,,,,,,
1512177116.025013,-0.598943,0.662332,-0.747945,0.102551,0.124525,0.302849,-0.444565,-0.614958,-0.651295,0.128647,-0.068407,-0.139934,-9.369980,17.564476,-27.688515,,,,,,,
1512177116.045002,-0.601177,0.661692,-0.739206,0.224069,0.168502,0.305829,-0.446242,-0.614452,-0.650625,0.123793,-0.007648,-0.146464,-9.144257,17.714806,-27.615349,,,,,,,
1512177116.064991,-0.604231,0.663709,-0.728500,0.367126,0.168743,0.292977,-0.447522,-0.616042,-0.648238,0.131985,0.009170,-0.092454,-9.295197,17.489586,-27.464180,,,,,,,
1512177116.085011,-0.608701,0.666182,-0.715766,0.387869,0.154695,0.392373,-0.449542,-0.617989,-0.644979,0.144733,0.015099,-0.032450,-9.145355,17.489815,-27.765450,,,,,,,
1512177116.105000,-0.615377,0.667278,-0.701403,0.357974,0.066926,0.454528,-0.453447,-0.618850,-0.641410,0.123826,0.004882,-0.007699,-9.221024,17.339699,-27.764885,,,,,,,
1512177116.125019,-0.622786,0.667336,-0.687311,0.312166,0.061523,0.452782,-0.458166,-0.618895,-0.638003,0.082525,0.003920,-0.014020,-9.370575,17.414467,-27.538582,,,,,,,
1512177116.145008,-0.628702,0.666745,-0.674158,0.269855,0.135197,0.436435,-0.462147,-0.618431,-0.635578,0.039921,0.012489,-0.031048,-8.695389,17.490486,-27.844276,,,,,,,
1512177116.164997,-0.632161,0.666444,-0.662172,0.276598,0.212281,0.354715,-0.464453,-0.618194,-0.634125,0.041235,0.017868,-0.031783,-8.772522,17.040367,-28.068855,,,,,,,
1512177116.185017,-0.634079,0.667906,-0.651967,0.304898,0.208251,0.254903,-0.465131,-0.619344,-0.632505,0.070661,0.038762,-0.017093,-8.773621,16.815361,-28.218956,,,,,,,
1512177116.205006,-0.635748,0.670417,-0.642456,0.327773,0.214752,0.225406,-0.465262,-0.621313,-0.630474,0.102164,0.033376,0.001583,-9.075668,16.364906,-28.291603,,,,,,,
1512177116.225025,-0.636458,0.671890,-0.633093,0.236249,0.280719,0.282939,-0.465165,-0.622466,-0.629407,0.114991,0.006469,0.001660,-8.999710,16.590019,-28.367134,,,,,,,
1512177116.245014,-0.635658,0.671123,-0.623649,0.171456,0.367038,0.337737,-0.464944,-0.621866,-0.630163,0.092035,-0.068671,-0.053583,-8.697189,17.115486,-28.069450,,,,,,,
1512177116.265003,-0.633123,0.669426,-0.614275,0.147958,0.435357,0.344032,-0.463970,-0.620536,-0.632189,0.081386,-0.104241,-0.118253,-7.949249,16.666603,-28.151039,,,,,,,
1512177116.285023,-0.629719,0.668378,-0.605037,0.199727,0.460079,0.309691,-0.462198,-0.619714,-0.634290,0.083169,-0.096167,-0.157489,-7.724365,16.666939,-28.377937,,,,,,,
1512177116.305012,-0.625887,0.669765,-0.596040,0.305907,0.471120,0.205724,-0.459259,-0.620802,-0.635359,0.110565,-0.057207,-0.165147,-7.575073,16.517159,-28.454292,,,,,,,
1512177116.325031,-0.622026,0.673934,-0.587342,0.393146,0.430775,0.150348,-0.455291,-0.624065,-0.635019,0.161040,-0.059330,-0.138571,-7.199890,16.592720,-28.757439,,,,,,,
1512177116.345020,-0.621315,0.677986,-0.577642,0.370475,0.275702,0.224102,-0.453364,-0.627226,-0.633281,0.196635,-0.018892,-0.109212,-7.202728,15.992714,-29.057716,,,,,,,
