timestamp(unix),attitude_roll(radians),attitude_pitch(radians),attitude_yaw(radians),rotation_rate_x(radians/s),rotation_rate_y(radians/s),rotation_rate_z(radians/s),gravity_x(G),gravity_y(G),gravity_z(G),user_acc_x(G),user_acc_y(G),user_acc_z(G),magnetic_field_x(microteslas),magnetic_field_y(microteslas),magnetic_field_z(microteslas),latitude(degree),longitude(degree),altitude(meter),speed(m/s),course(degree),timestamp(unix),User Mark
1512178125.618200,-0.084546,0.380482,0.332847,0.104293,0.077123,-0.072578,-0.078406,-0.371368,-0.925169,0.001502,0.000458,-0.014772,30.573841,12.210251,-23.421967,,,,,,,
1512178125.638189,-0.084363,0.384576,0.332319,0.248263,-0.047741,-0.016555,-0.078109,-0.375167,-0.923661,0.037978,-0.000993,-0.045913,30.195469,11.459686,-23.419113,,,,,,,
1512178125.658209,-0.086899,0.389949,0.333140,0.272150,-0.123619,0.017639,-0.080275,-0.380141,-0.921438,-0.007357,0.008696,-0.002359,29.968281,11.009354,-23.717407,,,,,,,
1512178125.678198,-0.089391,0.394926,0.333290,0.224204,-0.094721,-0.046917,-0.082401,-0.384740,-0.919339,-0.013318,0.017308,0.045591,29.968662,11.084351,-23.642380,,,,,,,
1512178125.698187,-0.089237,0.398431,0.331873,0.139779,0.014200,-0.093601,-0.082138,-0.387972,-0.918003,-0.018692,0.000765,0.044148,29.965473,10.409348,-23.942688,,,,,,,
1512178125.718206,-0.087681,0.400426,0.329883,0.069548,0.049361,-0.098757,-0.080641,-0.389811,-0.917357,-0.010896,0.001887,0.041457,29.813419,9.959122,-24.016617,,,,,,,
1512178125.738195,-0.085411,0.401192,0.327961,0.024618,0.080243,-0.088643,-0.078533,-0.390516,-0.917240,0.008495,-0.008562,0.022663,29.735004,9.209000,-24.091324,,,,,,,
1512178125.758215,-0.083617,0.402311,0.326677,0.076082,0.064204,-0.043182,-0.076851,-0.391546,-0.916943,0.009118,-0.004343,0.015347,30.040394,10.334457,-23.418365,,,,,,,
1512178125.778204,-0.082671,0.404783,0.326697,0.149962,0.050345,0.001550,-0.075903,-0.393819,-0.916049,0.001349,0.012807,0.014132,30.190327,10.334686,-23.569626,,,,,,,
1512178125.798193,-0.081380,0.408456,0.326913,0.194002,0.075021,-0.016913,-0.074603,-0.397193,-0.914698,-0.000943,0.030341,0.012537,30.413609,9.960022,-23.646729,,,,,,,
1512178125.818212,-0.079419,0.412223,0.326063,0.176857,0.083656,-0.075764,-0.072690,-0.400647,-0.913344,-0.002201,0.027234,0.000472,30.340366,10.334900,-23.495911,,,,,,,
1512178125.838201,-0.076950,0.415947,0.324154,0.183895,0.089087,-0.114020,-0.070319,-0.404057,-0.912027,-0.013452,0.016178,0.022363,30.714359,10.110458,-23.499207,,,,,,,
1512178125.858221,-0.072884,0.419293,0.322318,0.133188,0.224580,-0.071644,-0.066512,-0.407115,-0.910952,-0.028474,-0.021184,0.070742,30.563938,9.960236,-22.972992,,,,,,,
1512178125.878210,-0.066339,0.420160,0.321816,-0.021274,0.363083,-0.007305,-0.060525,-0.407906,-0.911015,-0.023795,-0.020347,0.058797,31.165180,10.261139,-23.202957,,,,,,,
1512178125.898229,-0.058530,0.417719,0.321172,-0.165686,0.357588,-0.042465,-0.053467,-0.405676,-0.912452,0.001785,0.003439,0.014029,31.462925,9.736588,-22.980743,,,,,,,
1512178125.918218,-0.053917,0.413520,0.317682,-0.250721,0.064147,-0.265390,-0.049348,-0.401835,-0.914381,-0.011855,0.023265,0.015593,31.465595,10.336594,-23.055481,,,,,,,
1512178125.938207,-0.049783,0.407106,0.308442,-0.408618,0.003389,-0.455518,-0.045696,-0.395954,-0.917133,0.029506,0.005283,-0.007260,31.540409,10.336700,-23.431107,,,,,,,
1512178125.958227,-0.046937,0.397850,0.298590,-0.532002,-0.063114,-0.410629,-0.043255,-0.387437,-0.920881,-0.006305,-0.021148,0.026868,31.772785,11.912048,-22.832306,,,,,,,
1512178125.978216,-0.043793,0.385572,0.289644,-0.716973,0.057229,-0.372382,-0.040565,-0.376089,-0.925695,-0.026146,-0.030176,0.069158,31.778049,13.112061,-23.131744,,,,,,,
1512178125.998236,-0.037702,0.369203,0.281847,-0.890858,0.206362,-0.292292,-0.035153,-0.360872,-0.931952,0.042599,-0.032988,0.023276,31.629169,13.336838,-22.905365,,,,,,,
1512178126.018225,-0.032209,0.351854,0.277754,-0.841494,0.183533,-0.054993,-0.030231,-0.344639,-0.938248,0.061404,-0.034816,-0.055770,31.709721,14.536957,-22.605453,,,,,,,
1512178126.038214,-0.030591,0.338978,0.279734,-0.503378,0.086366,0.188366,-0.028845,-0.332523,-0.942654,0.013907,-0.014035,-0.049122,31.860355,14.687180,-22.681656,,,,,,,
1512178126.058233,-0.029967,0.335504,0.283739,0.015137,0.128862,0.165109,-0.028292,-0.329245,-0.943821,0.000780,0.021658,-0.025204,32.160023,14.612640,-22.684250,,,,,,,
1512178126.078222,-0.026832,0.341563,0.285988,0.427292,0.235441,0.065912,-0.025279,-0.334960,-0.941893,-0.011556,0.037444,-0.054780,32.461491,14.913086,-22.461655,,,,,,,
1512178126.098242,-0.024219,0.352994,0.287181,0.634396,0.036057,0.038368,-0.022723,-0.345708,-0.938067,0.017444,0.031728,-0.096617,32.534382,14.463196,-22.612503,,,,,,,
1512178126.118231,-0.025910,0.366564,0.288177,0.692078,-0.097353,0.024881,-0.024186,-0.358410,-0.933251,0.015076,0.027477,-0.058174,32.230030,13.487732,-22.535400,,,,,,,
1512178126.138250,-0.028337,0.379931,0.288721,0.650982,-0.124062,-0.005657,-0.026313,-0.370856,-0.928317,-0.011834,0.016333,-0.012692,31.926655,12.737289,-22.533203,,,,,,,
1512178126.158239,-0.032001,0.391526,0.288628,0.553288,-0.235246,-0.034110,-0.029574,-0.381600,-0.923854,-0.002164,0.016884,-0.037282,32.149220,12.212616,-22.685349,,,,,,,
1512178126.178228,-0.038338,0.401777,0.287503,0.497633,-0.377291,-0.092981,-0.035277,-0.391054,-0.919691,0.004668,0.021364,-0.003435,31.548252,11.986710,-22.605347,,,,,,,
1512178126.198248,-0.043720,0.410008,0.285205,0.372698,-0.252406,-0.138061,-0.040083,-0.398617,-0.916241,-0.001100,-0.001011,0.047696,31.397709,11.911499,-22.979111,,,,,,,
1512178126.218237,-0.046464,0.417016,0.282494,0.354479,-0.174481,-0.129530,-0.042467,-0.405034,-0.913315,-0.003371,-0.009975,0.046631,31.019001,11.085922,-22.976303,,,,,,,
1512178126.238256,-0.048392,0.424477,0.280701,0.396357,-0.104014,-0.079639,-0.044080,-0.411844,-0.910187,-0.018877,-0.000738,0.047364,31.093555,11.011032,-23.201965,,,,,,,
1512178126.258245,-0.048832,0.432637,0.279723,0.417394,-0.020700,-0.057720,-0.044315,-0.419266,-0.906781,-0.014645,0.002548,0.037930,30.640934,10.410355,-23.048431,,,,,,,
1512178126.278234,-0.049300,0.440059,0.279262,0.325129,-0.057226,-0.024004,-0.044585,-0.425993,-0.903627,0.011458,-0.014086,0.020784,31.015659,10.335922,-22.901642,,,,,,,
1512178126.298254,-0.051684,0.444224,0.279319,0.146817,-0.135504,-0.010869,-0.046647,-0.429758,-0.901738,0.044983,-0.018591,0.017919,30.640598,10.335358,-23.048462,,,,,,,
1512178126.318243,-0.053766,0.446476,0.279217,0.112558,-0.096057,-0.000569,-0.048472,-0.431790,-0.900671,0.014308,-0.005130,0.021474,30.788456,9.885574,-23.274948,,,,,,,
1512178126.338262,-0.055357,0.449547,0.280026,0.186548,-0.043685,0.040128,-0.049831,-0.434558,-0.899264,-0.020115,0.013034,0.000033,30.562595,9.660233,-22.973129,,,,,,,
1512178126.358251,-0.056901,0.454089,0.280874,0.244683,-0.059544,0.005739,-0.051107,-0.438644,-0.897206,-0.013926,0.023483,-0.004619,30.563114,9.810242,-23.273071,,,,,,,
1512178126.378240,-0.058134,0.458808,0.280426,0.215573,-0.093678,-0.040642,-0.052092,-0.442879,-0.895066,0.016051,0.004784,-0.005111,30.561420,9.435242,-23.273239,,,,,,,
1512178126.398237,-0.059870,0.461942,0.280257,0.118876,-0.084306,0.004894,-0.053563,-0.445687,-0.893585,0.014714,-0.015617,0.003311,30.332233,8.534897,-23.571732,,,,,,,
1512178126.418226,-0.061242,0.463905,0.280727,0.105978,-0.027727,0.014500,-0.054735,-0.447444,-0.892635,-0.018354,0.001231,0.008663,30.412144,9.585007,-23.196884,,,,,,,
1512178126.438246,-0.061450,0.466591,0.281108,0.164854,0.008708,0.001622,-0.054846,-0.449845,-0.891421,-0.024301,0.017304,0.004931,30.410343,9.210007,-23.422073,,,,,,,
1512178126.458235,-0.061159,0.470064,0.280712,0.176279,-0.012548,-0.046261,-0.054491,-0.452943,-0.889872,-0.008299,0.011629,0.002177,30.334660,9.059891,-23.421509,,,,,,,
1512178126.478254,-0.061521,0.473096,0.279620,0.124107,-0.059616,-0.052511,-0.054729,-0.455645,-0.888477,0.000103,-0.015943,0.009876,30.033421,8.759445,-23.194077,,,,,,,
1512178126.498243,-0.062839,0.474955,0.279149,0.080791,-0.075787,-0.012686,-0.055847,-0.457298,-0.887558,-0.004685,-0.016258,0.012756,30.109776,9.059555,-23.194580,,,,,,,
1512178126.518232,-0.064293,0.476729,0.279104,0.103136,-0.058666,-0.009104,-0.057085,-0.458876,-0.886665,-0.005049,-0.000765,0.004554,29.883427,8.759216,-23.192810,,,,,,,
1512178126.538252,-0.064877,0.478860,0.278983,0.103294,-0.014862,-0.017482,-0.057539,-0.460768,-0.885653,-0.010530,-0.001131,0.025119,30.182346,8.534668,-23.345459,,,,,,,
1512178126.558241,-0.064651,0.479876,0.278509,-0.004164,-0.000047,-0.029647,-0.057309,-0.461669,-0.885199,-0.010150,-0.008301,0.031973,29.958729,8.834335,-23.268417,,,,,,,
1512178126.578260,-0.064662,0.478290,0.277306,-0.120904,-0.049292,-0.063490,-0.057366,-0.460261,-0.885928,0.001382,0.005733,0.015124,29.806293,8.309097,-23.417389,,,,,,,
1512178126.598249,-0.065154,0.476270,0.275381,-0.079063,-0.065215,-0.079994,-0.057862,-0.458467,-0.886825,-0.006927,0.003481,0.002487,29.733646,8.834000,-23.416504,,,,,,,
1512178126.618238,-0.065410,0.476222,0.273910,0.035685,-0.036252,-0.055847,-0.058091,-0.458425,-0.886832,-0.002014,0.000265,-0.000360,30.033466,8.759445,-23.119080,,,,,,,
1512178126.638258,-0.065554,0.478141,0.273044,0.110050,-0.022279,-0.038727,-0.058160,-0.460129,-0.885945,0.004434,0.002228,-0.004070,29.883015,8.684219,-23.342850,,,,,,,
1512178126.658247,-0.065792,0.480491,0.272550,0.110914,-0.013755,-0.025891,-0.058300,-0.462215,-0.884849,0.000820,-0.004247,0.001335,29.731358,8.308990,-23.266754,,,,,,,
1512178126.678266,-0.065749,0.482204,0.272197,0.063919,0.003249,-0.020118,-0.058210,-0.463733,-0.884060,-0.004443,-0.006894,0.004605,29.656406,8.308884,-23.191101,,,,,,,
1512178126.698255,-0.065726,0.483033,0.271692,0.034223,-0.034163,-0.031340,-0.058165,-0.464468,-0.883678,0.009199,0.001226,-0.014546,29.729633,7.933990,-23.341919,,,,,,,
1512178126.718275,-0.066670,0.483845,0.271066,0.041568,-0.071549,-0.026033,-0.058973,-0.465187,-0.883246,0.011244,-0.000283,-0.000116,29.730991,8.233994,-23.341782,,,,,,,
1512178126.738264,-0.067902,0.484561,0.270437,0.027810,-0.076900,-0.032648,-0.060039,-0.465820,-0.882840,0.002666,-0.012864,0.008573,29.204044,7.783203,-23.187515,,,,,,,
1512178126.758253,-0.068830,0.485164,0.269606,0.032212,-0.062989,-0.039997,-0.060839,-0.466353,-0.882504,0.014727,-0.014268,0.005246,29.581776,8.383759,-23.115433,,,,,,,
1512178126.778272,-0.069373,0.486176,0.269140,0.055167,-0.026695,-0.007555,-0.061285,-0.467248,-0.881999,0.004736,-0.018790,0.017955,29.431629,8.383545,-23.414169,,,,,,,
1512178126.798261,-0.069467,0.487149,0.269313,0.045378,0.004237,0.005201,-0.061337,-0.468109,-0.881539,0.003064,-0.013535,0.018701,29.655643,8.158875,-23.341171,,,,,,,
1512178126.818281,-0.069261,0.487912,0.269201,0.027576,0.008520,-0.014231,-0.061130,-0.468783,-0.881195,0.015888,-0.003553,0.010529,29.431065,8.233536,-23.189224,,,,,,,
1512178126.838270,-0.068897,0.488333,0.269006,0.015668,0.014891,-0.002654,-0.060796,-0.469154,-0.881021,0.001562,-0.006142,0.016717,29.731022,8.233994,-23.266785,,,,,,,
1512178126.858259,-0.068612,0.488751,0.269348,0.022683,0.024462,0.025200,-0.060532,-0.469523,-0.880842,0.003693,-0.008214,0.019240,29.431065,8.233536,-23.189224,,,,,,,
1512178126.878278,-0.068358,0.489307,0.270346,0.033989,0.038312,0.050995,-0.060290,-0.470014,-0.880597,-0.001722,0.005476,0.006513,29.581364,8.308762,-23.265472,,,,,,,
1512178126.898267,-0.068527,0.490441,0.271605,0.075526,0.009536,0.052566,-0.060402,-0.471015,-0.880055,-0.003746,0.019187,0.001088,29.807346,8.534103,-23.342270,,,,,,,
1512178126.918287,-0.069070,0.491990,0.272444,0.071823,-0.021383,0.016155,-0.060830,-0.472381,-0.879293,-0.001884,0.024688,0.002309,29.656513,8.308884,-22.966110,,,,,,,
1512178126.938276,-0.069728,0.493022,0.272266,0.033005,-0.039526,-0.022850,-0.061374,-0.473290,-0.878766,-0.008084,0.014580,0.012372,29.429447,7.858536,-23.039413,,,,,,,
1512178126.958296,-0.069907,0.493228,0.271570,-0.005128,-0.012851,-0.036101,-0.061525,-0.473472,-0.878658,-0.010207,0.006690,0.018306,29.429371,7.858536,-23.189407,,,,,,,
1512178126.978285,-0.069499,0.493245,0.270609,0.007811,-0.004268,-0.044411,-0.061166,-0.473486,-0.878675,0.003610,0.004080,0.000272,29.430882,8.158539,-22.889267,,,,,,,
1512178126.998274,-0.069391,0.493761,0.269782,0.040669,-0.026673,-0.034420,-0.061054,-0.473941,-0.878437,0.005832,0.001590,0.007130,29.654377,7.858871,-23.191315,,,,,,,
1512178127.018293,-0.070027,0.494649,0.269363,0.043511,-0.052347,-0.014214,-0.061583,-0.474723,-0.877978,0.001113,-0.003259,0.014865,29.579151,7.783768,-22.965714,,,,,,,
1512178127.038282,-0.071246,0.495231,0.269240,0.015732,-0.058802,-0.010373,-0.062634,-0.475235,-0.877626,-0.004032,0.002594,0.021242,29.654377,7.858871,-23.191315,,,,,,,
1512178127.058302,-0.071623,0.495304,0.268716,0.003352,-0.025661,-0.033891,-0.062962,-0.475300,-0.877568,-0.006008,0.011951,0.011418,29.654758,7.933884,-23.116287,,,,,,,
1512178127.078291,-0.071435,0.495991,0.267808,0.056825,-0.009540,-0.043722,-0.062773,-0.475904,-0.877254,-0.002153,0.021909,-0.014149,29.429722,7.933533,-23.189362,,,,,,,
1512178127.098280,-0.071519,0.498132,0.266909,0.121847,-0.027597,-0.043907,-0.062774,-0.477786,-0.876231,-0.007019,0.015933,0.000575,29.503025,7.558655,-23.190170,,,,,,,
1512178127.118299,-0.071321,0.500273,0.266115,0.075995,0.005445,-0.041257,-0.062527,-0.479665,-0.875221,-0.009250,-0.003230,0.018501,29.277424,7.408310,-23.038345,,,,,,,
1512178127.138288,-0.070375,0.500505,0.265180,-0.029545,0.024507,-0.040589,-0.061692,-0.479868,-0.875169,-0.000183,-0.015432,0.009324,29.730503,8.083984,-22.966843,,,,,,,
1512178127.158308,-0.070465,0.499372,0.264440,-0.060875,-0.046085,-0.018901,-0.061809,-0.478874,-0.875705,0.011592,-0.011757,-0.003583,29.052235,7.407974,-23.411423,,,,,,,
1512178127.178297,-0.071539,0.498334,0.264352,-0.035794,-0.047177,0.011307,-0.062785,-0.477963,-0.876133,0.002055,-0.015155,0.015186,29.204746,7.933197,-23.112457,,,,,,,
1512178127.198316,-0.072211,0.497974,0.264904,-0.007284,0.000903,0.031079,-0.063386,-0.477646,-0.876263,0.004701,-0.018676,0.024349,29.204380,7.858200,-23.187485,,,,,,,
1512178127.218305,-0.071780,0.497978,0.265897,0.002065,0.068173,0.048503,-0.063008,-0.477650,-0.876288,0.003453,-0.012066,0.017798,29.204044,7.783203,-23.187515,,,,,,,
1512178127.238294,-0.070985,0.497985,0.266975,-0.002167,0.056424,0.046270,-0.062311,-0.477656,-0.876334,0.010309,-0.003469,0.002143,29.353031,7.558426,-23.188904,,,,,,,
1512178127.258314,-0.070844,0.497652,0.267986,-0.022435,0.011530,0.044753,-0.062199,-0.477364,-0.876502,0.004704,-0.000328,-0.005319,29.279758,7.933319,-23.113098,,,,,,,
1512178127.278303,-0.071132,0.497040,0.268838,-0.042522,0.010454,0.034866,-0.062472,-0.476826,-0.876775,0.000659,0.005207,0.005361,29.431812,8.383545,-23.039169,,,,,,,
1512178127.298322,-0.071148,0.496240,0.269334,-0.039154,0.014749,0.024267,-0.062514,-0.476122,-0.877154,0.006529,-0.000089,-0.008542,29.879795,7.934219,-23.043198,,,,,,,
1512178127.318311,-0.071562,0.495873,0.270023,-0.001004,-0.018332,0.036431,-0.062889,-0.475800,-0.877302,-0.001534,0.013016,-0.014833,29.730503,8.083984,-22.966843,,,,,,,
1512178127.338300,-0.072116,0.496415,0.270491,0.042181,-0.013927,0.004025,-0.063356,-0.476276,-0.877010,-0.008085,0.016377,-0.002079,29.578617,7.708755,-23.340744,,,,,,,
1512178127.358320,-0.071925,0.497175,0.270120,0.024624,0.016019,-0.029175,-0.063163,-0.476945,-0.876661,-0.010507,0.007477,0.015546,29.429493,7.858536,-22.964401,,,,,,,
1512178127.378309,-0.071228,0.496988,0.269373,-0.031821,0.012739,-0.032133,-0.062558,-0.476781,-0.876794,-0.004977,-0.003414,0.013314,29.201633,7.258194,-23.262772,,,,,,,
1512178127.398294,-0.070920,0.496097,0.268688,-0.040602,-0.009739,-0.018482,-0.062318,-0.475997,-0.877236,0.005418,-0.008790,0.004174,29.279713,7.933319,-23.188095,,,,,,,
1512178127.418283,-0.071054,0.495635,0.268849,-0.002907,0.001988,0.023682,-0.062452,-0.475590,-0.877447,-0.004061,-0.004833,0.011557,29.580082,8.008759,-23.115616,,,,,,,
1512178127.438302,-0.071297,0.495832,0.269822,0.012733,0.017988,0.045283,-0.062658,-0.475764,-0.877338,0.000341,0.007319,0.007633,29.507420,8.533661,-23.189728,,,,,,,
1512178127.458291,-0.071398,0.495643,0.270510,-0.023079,0.005174,0.019138,-0.062753,-0.475597,-0.877422,-0.002585,0.003261,-0.002568,29.505497,8.083649,-22.964935,,,,,,,
1512178127.478280,-0.071738,0.494923,0.270657,-0.042160,-0.026884,0.011288,-0.063076,-0.474964,-0.877742,0.003353,0.008243,-0.002644,29.580204,8.008759,-22.890610,,,,,,,
1512178127.498300,-0.072621,0.494364,0.270873,-0.016595,-0.037531,0.011620,-0.063870,-0.474472,-0.877950,0.002087,0.010910,0.004125,29.504444,7.858643,-23.040039,,,,,,,
1512178127.518289,-0.073356,0.494550,0.271125,0.023906,-0.027860,0.012239,-0.064509,-0.474635,-0.877815,-0.007421,0.007426,-0.001777,29.654408,7.858871,-23.116318,,,,,,,
1512178127.538308,-0.073811,0.495180,0.271403,0.034697,-0.011807,0.004988,-0.064886,-0.475190,-0.877487,-0.008051,0.013093,0.000321,29.654408,7.858871,-23.116318,,,,,,,
1512178127.558297,-0.073998,0.495673,0.271163,0.018082,-0.012848,-0.021908,-0.065033,-0.475624,-0.877242,0.000305,0.012794,0.005553,29.730396,8.083984,-23.191849,,,,,,,
1512178127.578286,-0.073563,0.495710,0.270503,-0.009480,0.014901,-0.029672,-0.064650,-0.475656,-0.877252,-0.004914,0.002771,0.019113,29.654789,7.933884,-23.041290,,,,,,,
1512178127.598306,-0.072825,0.495140,0.269948,-0.039596,0.024429,-0.014089,-0.064022,-0.475155,-0.877570,0.010494,-0.010121,0.007010,29.727985,7.558990,-23.267090,,,,,,,
1512178127.618295,-0.072717,0.494058,0.270092,-0.058260,0.001912,0.018615,-0.063964,-0.474203,-0.878089,0.013412,-0.004481,0.003928,29.579334,7.858765,-23.265686,,,,,,,
1512178127.638314,-0.072975,0.492853,0.270390,-0.055032,-0.004488,0.016507,-0.064233,-0.473141,-0.878642,0.004769,-0.004062,-0.002477,29.506397,8.308655,-23.189835,,,,,,,
1512178127.658303,-0.073403,0.492458,0.270593,0.008018,-0.018257,0.006713,-0.064623,-0.472793,-0.878801,0.007982,0.005370,-0.012007,29.732121,8.459000,-23.116669,,,,,,,
1512178127.678323,-0.073822,0.493406,0.270893,0.063370,-0.005369,0.011822,-0.064958,-0.473629,-0.878326,0.002260,0.000072,0.001785,29.505085,8.008652,-23.114975,,,,,,,
1512178127.698312,-0.074222,0.494825,0.271625,0.069296,-0.009678,0.041749,-0.065259,-0.474878,-0.877629,0.013303,-0.009894,0.000508,29.430424,8.083542,-23.114304,,,,,,,
1512178127.718301,-0.074955,0.495473,0.272939,0.012493,-0.009808,0.059044,-0.065879,-0.475448,-0.877274,-0.006325,-0.003526,0.016403,29.576267,7.183762,-23.340988,,,,,,,
1512178127.738320,-0.075376,0.494837,0.273833,-0.047757,0.004046,0.028369,-0.066272,-0.474888,-0.877547,-0.001584,0.006154,0.018706,29.054935,8.007980,-23.411148,,,,,,,
1512178127.758309,-0.075010,0.493637,0.273932,-0.062310,0.025431,0.006912,-0.065993,-0.473832,-0.878139,0.000152,-0.001724,0.015423,29.280155,8.008316,-22.963058,,,,,,,
1512178127.778329,-0.074549,0.492760,0.274309,-0.027531,0.033975,0.030896,-0.065619,-0.473059,-0.878584,-0.006723,0.003867,0.010908,29.428410,7.633530,-23.114502,,,,,,,
1512178127.798318,-0.073835,0.492686,0.275108,0.008801,0.063949,0.027263,-0.064994,-0.472994,-0.878665,-0.004876,0.019427,0.007648,29.504490,7.858643,-22.965042,,,,,,,
1512178127.818307,-0.072462,0.493042,0.275198,0.017898,0.070441,-0.006696,-0.063776,-0.473308,-0.878585,0.010095,0.009318,-0.014603,29.578739,7.708755,-23.115753,,,,,,,
1512178127.838326,-0.072039,0.493596,0.275353,0.033390,-0.006497,0.019913,-0.063385,-0.473796,-0.878351,0.020508,-0.005300,-0.018836,29.581516,8.308762,-22.965469,,,,,,,
1512178127.858315,-0.073456,0.494373,0.276577,0.043336,-0.053560,0.061472,-0.064602,-0.474480,-0.877893,0.009442,-0.001030,0.001962,29.804722,7.934097,-23.192551,,,,,,,
1512178127.878335,-0.074954,0.495192,0.278015,0.048800,-0.024701,0.054186,-0.065889,-0.475201,-0.877407,-0.004439,0.001339,0.020718,29.654819,7.933884,-22.966278,,,,,,,
1512178127.898324,-0.075827,0.496484,0.279295,0.094637,-0.016086,0.054881,-0.066608,-0.476337,-0.876736,0.003680,0.009617,-0.001499,29.426792,7.258530,-22.964676,,,,,,,
1512178127.918313,-0.077072,0.499163,0.280854,0.172396,-0.040545,0.056986,-0.067601,-0.478691,-0.875377,-0.000896,0.007087,-0.004658,29.052052,7.332977,-23.111465,,,,,,,
1512178127.938333,-0.078324,0.502541,0.282217,0.153415,-0.013843,0.046145,-0.068570,-0.481654,-0.873675,-0.015979,0.000437,0.023089,29.428776,7.708542,-23.039474,,,,,,,
1512178127.958322,-0.078594,0.503806,0.283112,0.009885,0.021228,0.023931,-0.068758,-0.482762,-0.873048,-0.008696,0.005223,0.020875,29.426868,7.258530,-22.814682,,,,,,,
1512178127.978341,-0.078284,0.502146,0.283098,-0.126126,0.006120,-0.003678,-0.068550,-0.481308,-0.873867,-0.009377,0.006745,0.004391,29.427158,7.333542,-22.889648,,,,,,,
1512178127.998330,-0.078404,0.499347,0.282384,-0.125738,-0.039761,-0.029417,-0.068760,-0.478852,-0.875199,-0.009045,0.013093,-0.002304,29.426792,7.258530,-22.964676,,,,,,,
1512178128.018350,-0.078298,0.498336,0.281588,-0.005220,0.013838,-0.029614,-0.068705,-0.477965,-0.875688,-0.009389,0.007765,0.017183,29.652531,7.408875,-22.816528,,,,,,,
1512178128.038339,-0.077039,0.499874,0.281465,0.115853,0.091934,0.001192,-0.067546,-0.479315,-0.875040,-0.005269,-0.005258,0.007089,29.351749,7.258423,-23.039047,,,,,,,
1512178128.058328,-0.075454,0.502760,0.282370,0.152514,0.095119,0.041180,-0.066054,-0.481846,-0.873763,-0.006944,-0.003689,0.001906,29.576527,7.183762,-22.815994,,,,,,,
1512178128.078347,-0.074487,0.504890,0.283552,0.072681,0.068309,0.032467,-0.065133,-0.483711,-0.872801,-0.001731,0.003273,0.013716,29.577915,7.483765,-22.740860,,,,,,,
1512178128.098336,-0.073678,0.504869,0.283654,-0.035413,0.022293,-0.008703,-0.064427,-0.483693,-0.872863,0.010167,-0.003536,0.002532,29.575886,7.033752,-22.741074,,,,,,,
1512178128.118356,-0.074405,0.503641,0.283623,-0.062516,-0.077134,0.014013,-0.065106,-0.482618,-0.873408,0.002087,-0.006533,-0.013143,29.651905,7.258865,-22.741608,,,,,,,
1512178128.138345,-0.076472,0.502978,0.284225,-0.005301,-0.067480,0.035128,-0.066936,-0.482037,-0.873590,-0.006871,-0.005222,0.006845,29.277576,7.408310,-22.738342,,,,,,,
1512178128.158334,-0.077124,0.504057,0.285000,0.094081,0.018150,0.025140,-0.067465,-0.482982,-0.873027,-0.008463,0.001308,0.016231,29.202244,7.333191,-22.737747,,,,,,,
1512178128.178353,-0.076674,0.506865,0.285937,0.158912,0.045999,0.038971,-0.066968,-0.485439,-0.871702,-0.000369,-0.005742,0.012113,29.502201,7.333649,-22.815292,,,,,,,
1512178128.198342,-0.076420,0.509495,0.287507,0.106186,0.056540,0.069159,-0.066649,-0.487737,-0.870443,0.001143,-0.015178,0.018652,29.275852,7.033310,-22.813507,,,,,,,
1512178128.218362,-0.076313,0.510203,0.289083,0.002961,0.035042,0.056928,-0.066530,-0.488354,-0.870106,-0.002074,-0.004291,0.013416,29.651234,7.108871,-22.741669,,,,,,,
1512178128.238351,-0.076408,0.509186,0.289778,-0.072100,-0.001311,0.017337,-0.066650,-0.487467,-0.870594,-0.015717,0.014353,0.004460,29.575657,6.958755,-22.516098,,,,,,,
1512178128.258370,-0.076628,0.507761,0.289365,-0.061777,-0.026845,-0.028444,-0.066895,-0.486222,-0.871271,-0.003356,0.010468,-0.005880,29.275547,6.958313,-22.738556,,,,,,,
1512178128.278359,-0.076743,0.507752,0.288522,0.032146,-0.026691,-0.035613,-0.066995,-0.486214,-0.871268,-0.001700,0.007058,-0.011713,29.651234,7.108871,-22.741669,,,,,,,
1512178128.298348,-0.077189,0.509786,0.288220,0.130937,-0.030851,-0.013939,-0.067307,-0.487990,-0.870250,-0.004547,-0.000932,-0.012547,29.725895,7.033981,-22.742340,,,,,,,
1512178128.318368,-0.077902,0.512781,0.288309,0.146848,-0.029771,-0.009443,-0.067814,-0.490603,-0.868741,0.005512,0.001650,-0.001972,29.425846,7.033524,-22.814789,,,,,,,
1512178128.338357,-0.078642,0.515108,0.287948,0.094980,-0.053302,-0.032662,-0.068367,-0.492629,-0.867550,0.004692,-0.011476,0.007763,29.425663,6.958527,-22.514832,,,,,,,
1512178128.358377,-0.079172,0.516192,0.287419,0.041529,-0.041650,-0.022734,-0.068785,-0.493572,-0.866981,-0.009478,-0.010792,0.005012,29.650669,6.958862,-22.516739,,,,,,,
1512178128.378366,-0.080210,0.516887,0.287238,0.035959,-0.061980,-0.009026,-0.069657,-0.494176,-0.866566,0.003541,0.000799,0.006993,29.046726,6.132965,-22.962006,,,,,,,
1512178128.398361,-0.080962,0.517346,0.287092,0.010267,-0.018242,-0.000718,-0.070290,-0.494575,-0.866288,0.002480,-0.018365,0.022248,28.973637,6.507858,-22.511215,,,,,,,
1512178128.418380,-0.081284,0.517302,0.287546,-0.000966,-0.007648,0.034335,-0.070571,-0.494537,-0.866287,0.000777,-0.013733,0.008819,29.423969,6.583527,-22.514999,,,,,,,
1512178128.438369,-0.082381,0.518073,0.288724,0.075491,-0.033201,0.051345,-0.071489,-0.495207,-0.865829,-0.004011,0.011610,-0.002167,29.198566,6.508194,-22.663132,,,,,,,
1512178128.458389,-0.083187,0.520567,0.289648,0.146538,0.003302,0.010923,-0.072084,-0.497372,-0.864537,-0.017653,0.020291,0.018742,28.972507,6.282852,-22.736313,,,,,,,
1512178128.478378,-0.082242,0.523282,0.289435,0.108939,0.059950,-0.033131,-0.071156,-0.499726,-0.863256,-0.016017,0.009201,0.025274,29.347813,6.358414,-22.814468,,,,,,,
1512178128.498397,-0.080687,0.524496,0.288650,0.023770,0.042745,-0.040821,-0.069765,-0.500777,-0.862760,0.000734,0.006423,0.002409,29.269367,5.608292,-22.964172,,,,,,,
1512178128.518386,-0.080156,0.524829,0.287534,0.018651,-0.017055,-0.057096,-0.069294,-0.501065,-0.862631,0.017307,0.013562,0.003531,29.272556,6.283295,-22.663864,,,,,,,
1512178128.538375,-0.079784,0.525531,0.286227,0.041063,-0.011674,-0.057817,-0.068945,-0.501672,-0.862306,0.000295,0.005792,0.024125,29.422520,6.283524,-22.740143,,,,,,,
1512178128.558395,-0.079756,0.526602,0.285365,0.052354,-0.014916,-0.032081,-0.068877,-0.502599,-0.861772,0.003936,-0.000835,0.020951,29.647282,6.208862,-22.517090,,,,,,,
1512178128.578384,-0.079683,0.527735,0.285252,0.058135,0.012789,0.006477,-0.068769,-0.503578,-0.861209,0.002424,-0.003502,0.017199,29.572254,6.208755,-22.591446,,,,,,,
1512178128.598403,-0.079502,0.528870,0.285887,0.060921,0.022358,0.032137,-0.068568,-0.504558,-0.860650,0.011104,-0.000309,0.009729,29.197895,6.358185,-22.663193,,,,,,,
1512178128.618392,-0.079476,0.529656,0.287013,0.030778,0.032961,0.050928,-0.068514,-0.505237,-0.860257,0.003649,-0.004285,0.015057,29.420872,5.908524,-22.665314,,,,,,,
1512178128.638381,-0.079265,0.529662,0.288173,-0.018194,0.043573,0.047056,-0.068332,-0.505242,-0.860268,0.002750,0.003045,0.013360,29.421207,5.983521,-22.665283,,,,,,,
1512178128.658401,-0.078849,0.528667,0.288744,-0.059311,0.023274,0.018673,-0.068014,-0.504383,-0.860797,0.004721,0.001759,-0.007519,29.345570,5.833405,-22.589706,,,,,,,
1512178128.678390,-0.078882,0.527668,0.288835,-0.035678,-0.014051,0.006094,-0.068082,-0.503519,-0.861297,0.003583,0.008219,-0.008728,29.421314,5.983521,-22.440277,,,,,,,
1512178128.698409,-0.079426,0.527626,0.288896,0.011271,-0.022523,0.002478,-0.068552,-0.503484,-0.861281,-0.005895,0.000585,0.004240,29.196156,5.983185,-22.738358,,,,,,,
1512178128.718398,-0.079518,0.528198,0.289059,0.029333,0.015950,0.008204,-0.068609,-0.503978,-0.860987,-0.007685,-0.003347,0.013408,28.969578,5.607849,-22.511627,,,,,,,
1512178128.738418,-0.079122,0.528365,0.289418,-0.004912,0.027628,0.016275,-0.068261,-0.504122,-0.860930,-0.013251,-0.002210,0.003768,29.570896,5.908752,-22.591583,,,,,,,
1512178128.758407,-0.078776,0.527758,0.289438,-0.037638,0.001981,-0.004543,-0.067987,-0.503598,-0.861259,-0.005682,0.004163,-0.014763,29.497181,6.208633,-22.740814,,,,,,,
1512178128.778396,-0.079005,0.527033,0.288977,-0.031968,-0.034278,-0.025904,-0.068213,-0.502971,-0.861607,-0.005258,0.011577,-0.011226,29.345493,5.833405,-22.739716,,,,,,,
1512178128.798415,-0.079180,0.527000,0.288217,0.012962,-0.012831,-0.034775,-0.068366,-0.502943,-0.861612,-0.010461,0.001249,0.004754,29.421497,6.058533,-22.740234,,,,,,,
1512178128.818404,-0.078714,0.527829,0.287575,0.048082,0.021392,-0.029885,-0.067931,-0.503659,-0.861228,-0.014360,0.000012,0.007712,29.497181,6.208633,-22.740814,,,,,,,
1512178128.838424,-0.078060,0.528760,0.287024,0.044899,0.002167,-0.031061,-0.067331,-0.504463,-0.860804,0.001535,0.003289,-0.003408,29.421955,6.133530,-22.515213,,,,,,,
1512178128.858413,-0.078156,0.529379,0.286308,0.019352,-0.023502,-0.034719,-0.067389,-0.504998,-0.860486,0.004370,-0.004051,0.021634,29.422626,6.283524,-22.515137,,,,,,,
1512178128.878402,-0.077866,0.529159,0.285800,-0.032197,0.020165,-0.009729,-0.067148,-0.504808,-0.860616,0.004908,-0.016722,0.035161,29.647556,6.283859,-22.667053,,,,,,,
1512178128.898422,-0.077216,0.527765,0.285849,-0.092312,0.044586,0.016134,-0.066644,-0.503604,-0.861360,0.005563,-0.012525,0.023760,29.795933,5.909088,-22.518494,,,,,,,
1512178128.918411,-0.076728,0.525708,0.286074,-0.101883,0.016806,0.013768,-0.066302,-0.501826,-0.862424,0.008715,0.000163,0.003461,29.646503,6.058868,-22.742157,,,,,,,
1512178128.938430,-0.076788,0.524203,0.286229,-0.053956,-0.009827,0.015437,-0.066412,-0.500523,-0.863172,0.008261,0.002797,-0.006762,29.721836,6.133972,-22.742752,,,,,,,
1512178128.958419,-0.077315,0.524245,0.286868,0.026700,-0.005480,0.036873,-0.066865,-0.500560,-0.863116,0.001710,0.002299,0.004763,29.496571,6.058640,-22.590881,,,,,,,
1512178128.978439,-0.077404,0.525123,0.287808,0.036457,0.034079,0.029692,-0.066908,-0.501320,-0.862671,-0.013766,0.008644,0.014069,29.497288,6.208633,-22.515808,,,,,,,
1512178128.998428,-0.076247,0.525109,0.287781,-0.028778,0.067190,-0.021244,-0.065910,-0.501307,-0.862755,-0.010307,0.009623,0.009606,29.797291,6.209091,-22.518356,,,,,,,
1512178129.018417,-0.074442,0.523535,0.286614,-0.113548,0.051099,-0.053445,-0.064411,-0.499945,-0.863659,-0.007992,0.012182,0.000347,29.571842,6.133743,-22.741486,,,,,,,
1512178129.038436,-0.073012,0.520630,0.284848,-0.163349,0.013677,-0.073485,-0.063282,-0.497427,-0.865195,-0.014904,0.004065,-0.001871,29.645710,5.908859,-22.967209,,,,,,,
1512178129.058425,-0.071708,0.517567,0.282856,-0.149471,0.025448,-0.074310,-0.062262,-0.494767,-0.866792,-0.004449,0.006547,-0.002288,30.099689,6.734543,-22.445663,,,,,,,
1512178129.078445,-0.070624,0.515859,0.281389,-0.044381,0.017012,-0.047230,-0.061382,-0.493282,-0.867701,0.010037,0.000469,-0.017217,29.874958,6.809204,-22.593719,,,,,,,
1512178129.098434,-0.070617,0.516388,0.281210,0.056976,-0.016063,0.010623,-0.061358,-0.493742,-0.867441,0.003725,-0.003984,-0.004675,29.723225,6.433975,-22.667618,,,,,,,
1512178129.118423,-0.071266,0.517669,0.281843,0.058990,-0.011794,0.019201,-0.061876,-0.494856,-0.866769,-0.001906,-0.005373,0.013559,29.948292,6.434311,-22.519531,,,,,,,
1512178129.138442,-0.071311,0.518216,0.281848,0.012644,0.001017,-0.014475,-0.061895,-0.495331,-0.866496,-0.006998,-0.000259,0.013209,29.948856,6.584320,-22.744461,,,,,,,
1512178129.158431,-0.070897,0.518015,0.281215,-0.022285,0.007399,-0.029886,-0.061544,-0.495157,-0.866621,-0.004176,0.000543,0.012404,29.645115,5.758865,-22.817291,,,,,,,
1512178129.178451,-0.070410,0.517350,0.280540,-0.038403,0.005221,-0.022666,-0.061145,-0.494578,-0.866979,-0.001767,-0.005376,0.005010,30.099873,6.809540,-22.745636,,,,,,,
1512178129.198440,-0.069995,0.516820,0.280114,-0.023604,0.013778,-0.013891,-0.060803,-0.494118,-0.867266,0.011029,-0.004860,0.007220,30.099506,6.734543,-22.820663,,,,,,,
1512178129.218459,-0.069552,0.516745,0.280190,0.010012,0.030855,0.016503,-0.060422,-0.494052,-0.867330,0.009015,-0.011990,0.002859,30.024235,6.659424,-22.670074,,,,,,,
1512178129.238448,-0.069495,0.517407,0.281086,0.043659,0.016969,0.044662,-0.060350,-0.494628,-0.867007,0.006914,0.001266,0.006899,30.396763,6.134995,-22.898483,,,,,,,
1512178129.258437,-0.070105,0.517842,0.282091,0.006459,-0.021530,0.035458,-0.060864,-0.495006,-0.866755,0.003644,0.004344,-0.001439,30.099949,6.809540,-22.595627,,,,,,,
1512178129.278457,-0.071038,0.517661,0.282543,-0.014573,-0.030068,0.018069,-0.061678,-0.494849,-0.866787,-0.001081,0.003668,0.010434,30.098682,6.509537,-22.445770,,,,,,,
1512178129.298446,-0.071357,0.517331,0.283162,-0.015841,0.009424,0.032046,-0.061967,-0.494562,-0.866930,-0.010497,0.009729,0.007021,30.099506,6.734543,-22.820663,,,,,,,
1512178129.318466,-0.071217,0.517342,0.283421,0.010271,0.011657,-0.000619,-0.061845,-0.494572,-0.866934,0.003251,0.017841,-0.007349,30.174885,6.809662,-22.746277,,,,,,,
1512178129.338455,-0.071254,0.517927,0.283187,0.042412,-0.018175,-0.010914,-0.061857,-0.495080,-0.866642,0.010755,0.002969,-0.002926,29.649876,6.808868,-22.741806,,,,,,,
1512178129.358444,-0.071832,0.519063,0.283544,0.063098,-0.018219,0.027764,-0.062317,-0.496067,-0.866045,0.003250,-0.008771,0.007540,30.022892,6.359421,-22.670212,,,,,,,
1512178129.378463,-0.072701,0.519984,0.284473,0.033123,-0.024690,0.034769,-0.063037,-0.496866,-0.865535,0.003192,-0.004080,0.010188,30.098530,6.509537,-22.745773,,,,,,,
1512178129.398431,-0.073784,0.519833,0.285013,-0.026315,-0.050383,0.017828,-0.063979,-0.496735,-0.865541,0.001448,-0.005188,0.010637,29.649570,6.733871,-22.666840,,,,,,,
1512178129.418451,-0.074760,0.518703,0.285248,-0.067848,-0.038690,0.016202,-0.064866,-0.495754,-0.866037,0.001084,-0.005451,0.012827,29.950886,7.034317,-22.744247,,,,,,,
1512178129.438440,-0.075395,0.517222,0.285502,-0.076380,-0.018410,0.017215,-0.065471,-0.494468,-0.866727,-0.001164,-0.000375,0.008847,29.573856,6.583755,-22.741272,,,,,,,
1512178129.458459,-0.076005,0.516030,0.285998,-0.045761,-0.022674,0.034699,-0.066044,-0.493431,-0.867274,0.005452,0.002770,-0.003164,29.498829,6.583649,-22.815628,,,,,,,
1512178129.478448,-0.077491,0.515490,0.287094,-0.015220,-0.064329,0.055251,-0.067354,-0.492961,-0.867440,0.001497,0.008418,-0.009894,29.495487,5.833633,-22.740982,,,,,,,
1512178129.498437,-0.079159,0.515365,0.288049,-0.001993,-0.054640,0.029893,-0.068805,-0.492852,-0.867388,-0.010373,0.011697,0.000079,29.648975,6.583862,-22.516907,,,,,,,
1512178129.518457,-0.080192,0.515472,0.288296,0.009118,-0.033208,0.003477,-0.069697,-0.492945,-0.867264,-0.008321,0.010798,0.004349,29.423908,6.583527,-22.665009,,,,,,,
1512178129.538446,-0.080570,0.515668,0.288546,0.011023,-0.000124,0.018543,-0.070017,-0.493116,-0.867142,-0.009741,0.001447,0.006378,29.798862,6.584091,-22.743179,,,,,,,
1512178129.558465,-0.080572,0.515570,0.288838,-0.009992,-0.002254,0.000109,-0.070023,-0.493030,-0.867190,0.000656,0.012623,-0.003370,29.499989,6.808640,-22.515533,,,,,,,
1512178129.578454,-0.080539,0.515365,0.288356,-0.004151,-0.011793,-0.030753,-0.070002,-0.492852,-0.867293,0.003275,0.008279,-0.001039,29.498859,6.583649,-22.740631,,,,,,,
1512178129.598443,-0.080970,0.515724,0.288075,0.032663,-0.035300,-0.002588,-0.070362,-0.493165,-0.867086,0.006275,-0.001418,0.002187,29.573231,6.433746,-22.666351,,,,,,,
1512178129.618463,-0.081916,0.516506,0.288341,0.033535,-0.036390,0.009148,-0.071150,-0.493845,-0.866634,0.000746,0.002146,0.016002,29.425632,6.958527,-22.589828,,,,,,,
1512178129.638452,-0.082587,0.516543,0.288277,-0.019410,-0.031084,-0.011854,-0.071731,-0.493877,-0.866568,0.000274,-0.000034,0.021277,29.649204,6.658859,-22.741882,,,,,,,
1512178129.658471,-0.082446,0.515638,0.287571,-0.054262,0.000943,-0.030371,-0.071645,-0.493090,-0.867023,0.000005,-0.002760,0.018070,29.498631,6.508636,-22.515671,,,,,,,
1512178129.678460,-0.081896,0.514717,0.286754,-0.037084,-0.002219,-0.037595,-0.071205,-0.492289,-0.867515,0.005959,0.013346,-0.002008,29.498066,6.433640,-22.965698,,,,,,,
1512178129.698480,-0.081693,0.514629,0.285776,0.004461,-0.020320,-0.037058,-0.071033,-0.492212,-0.867573,0.000949,0.000329,-0.003506,29.424763,6.808533,-22.964890,,,,,,,
1512178129.718469,-0.081993,0.514664,0.285374,-0.013137,-0.020411,-0.004265,-0.071292,-0.492243,-0.867534,-0.000287,-0.004766,-0.001149,29.346317,6.058411,-23.114594,,,,,,,
1512178129.738458,-0.082413,0.514080,0.285446,-0.044241,-0.022618,0.007003,-0.071679,-0.491734,-0.867790,0.001504,0.002766,0.002068,29.723530,6.508972,-22.742584,,,,,,,
1512178129.758477,-0.082686,0.513009,0.285467,-0.051629,-0.005528,0.003759,-0.071960,-0.490801,-0.868295,-0.005814,0.001330,0.005624,29.949497,6.734314,-22.819382,,,,,,,
1512178129.778467,-0.082619,0.512315,0.285362,-0.016327,-0.006524,-0.003193,-0.071930,-0.490197,-0.868639,-0.001800,0.007103,-0.004195,29.574497,6.733749,-22.816208,,,,,,,
1512178129.798486,-0.082890,0.512841,0.285567,0.049492,-0.005395,0.012685,-0.072144,-0.490655,-0.868362,0.000794,0.001443,-0.000305,29.650593,6.958862,-22.666748,,,,,,,
1512178129.818475,-0.082906,0.514279,0.286193,0.080179,0.027736,0.028170,-0.072099,-0.491907,-0.867657,0.000352,-0.004889,0.009457,29.495716,5.908630,-22.965942,,,,,,,
1512178129.838464,-0.082716,0.515700,0.287161,0.068345,0.028771,0.034397,-0.071876,-0.493144,-0.866973,0.009361,-0.005071,-0.004487,29.648609,6.508865,-22.591949,,,,,,,
1512178129.858484,-0.083240,0.516507,0.288075,0.020320,-0.020438,0.035664,-0.072298,-0.493846,-0.866539,0.004274,0.002925,0.003776,29.423527,6.508530,-22.740036,,,,,,,
1512178129.878473,-0.083917,0.515780,0.288432,-0.064498,-0.025855,0.006697,-0.072915,-0.493214,-0.866847,0.004021,-0.000912,0.013072,29.422398,6.283524,-22.965134,,,,,,,
1512178129.898492,-0.084243,0.514276,0.288304,-0.072973,-0.009839,0.004499,-0.073259,-0.491905,-0.867561,-0.001433,-0.001488,0.011024,29.647846,6.358871,-22.742020,,,,,,,
1512178129.918481,-0.084316,0.513604,0.288718,-0.000891,0.012650,0.030140,-0.073351,-0.491319,-0.867886,0.000292,0.004548,-0.000065,29.348194,6.433411,-22.739426,,,,,,,
1512178129.938470,-0.084357,0.514324,0.289727,0.054280,0.022319,0.046965,-0.073356,-0.491946,-0.867530,-0.000282,0.000522,0.005164,29.422779,6.358521,-22.890091,,,,,,,
1512178129.958490,-0.084392,0.515008,0.290959,0.021291,0.026553,0.044373,-0.073359,-0.492542,-0.867191,-0.009878,0.010609,0.011021,29.422474,6.283524,-22.815140,,,,,,,
1512178129.978479,-0.084354,0.514782,0.291216,-0.029084,0.000934,-0.005486,-0.073334,-0.492345,-0.867305,-0.011276,0.012869,0.005260,29.573414,6.508759,-22.966293,,,,,,,
1512178129.998498,-0.084420,0.514130,0.290952,-0.024860,-0.020428,-0.004435,-0.073419,-0.491778,-0.867620,-0.001502,0.002093,-0.005976,29.423038,6.433533,-23.040070,,,,,,,
1512178130.018487,-0.084881,0.514372,0.291164,0.035586,-0.008624,0.015672,-0.073809,-0.491988,-0.867468,-0.008268,0.002730,0.015447,29.196461,6.058182,-22.813324,,,,,,,
1512178130.038507,-0.084713,0.515239,0.291566,0.041207,0.030939,-0.000100,-0.073627,-0.492743,-0.867055,-0.013989,0.011267,0.025670,29.122700,6.358078,-23.037552,,,,,,,
1512178130.058496,-0.083605,0.515430,0.291094,-0.009403,0.041607,-0.033845,-0.072659,-0.492909,-0.867042,0.001049,0.002918,0.015663,29.045033,5.757965,-22.962189,,,,,,,
1512178130.078485,-0.083013,0.515054,0.290491,-0.014030,0.005240,-0.013785,-0.072161,-0.492582,-0.867269,0.010119,-0.001253,-0.003443,29.648182,6.433868,-22.741974,,,,,,,
1512178130.098504,-0.083050,0.515728,0.290646,0.068783,0.012807,0.007699,-0.072165,-0.493168,-0.866935,0.000158,0.009053,0.008980,29.574238,6.658752,-22.666245,,,,,,,
1512178130.118493,-0.081849,0.517758,0.290870,0.109629,0.106899,-0.008440,-0.071041,-0.494933,-0.866022,-0.012348,0.005416,0.019815,29.497929,6.358643,-22.590744,,,,,,,
1512178130.138513,-0.079245,0.519478,0.290551,0.060853,0.118604,-0.024032,-0.068719,-0.496427,-0.865354,-0.003532,-0.007418,-0.006747,29.572330,6.208755,-22.441452,,,,,,,
1512178130.158502,-0.078119,0.520094,0.290270,0.016787,-0.000064,-0.008026,-0.067720,-0.496962,-0.865126,0.012987,-0.000230,-0.021059,29.644703,5.683868,-22.967316,,,,,,,
1512178130.178491,-0.078700,0.519874,0.290332,-0.022960,-0.034336,0.009405,-0.068232,-0.496771,-0.865196,0.002528,-0.010721,-0.005349,29.572361,6.208755,-22.366455,,,,,,,
1512178130.198510,-0.079525,0.519081,0.290773,-0.046715,-0.021598,0.027223,-0.068977,-0.496083,-0.865531,-0.000024,-0.006069,0.003699,29.346470,6.058411,-22.814606,,,,,,,
1512178130.218499,-0.080084,0.518141,0.291413,-0.039268,-0.009835,0.029507,-0.069498,-0.495266,-0.865957,-0.004767,-0.000279,-0.003244,29.798420,6.509094,-22.968216,,,,,,,
1512178130.238519,-0.080299,0.517727,0.291899,-0.003823,0.006279,0.015156,-0.069701,-0.494906,-0.866146,-0.010179,0.010577,-0.002399,29.797855,6.359085,-22.743286,,,,,,,
1512178130.258508,-0.080207,0.517948,0.292125,0.009080,0.013782,0.007903,-0.069613,-0.495098,-0.866044,-0.019590,0.008068,0.001725,29.648869,6.583862,-22.741913,,,,,,,
1512178130.278528,-0.080049,0.517645,0.292008,-0.033195,-0.010802,-0.015180,-0.069488,-0.494835,-0.866204,-0.006562,0.007561,0.002587,29.647968,6.358871,-22.517014,,,,,,,
1512178130.298517,-0.080408,0.516772,0.291467,-0.044858,-0.040721,-0.020785,-0.069833,-0.494076,-0.866609,-0.000434,0.007046,0.006975,29.647556,6.283859,-22.667053,,,,,,,
1512178130.318506,-0.080890,0.516310,0.291055,-0.006622,-0.020388,-0.011634,-0.070269,-0.493675,-0.866803,-0.008909,0.004661,0.015561,29.947178,6.209320,-22.744629,,,,,,,
1512178130.338525,-0.080799,0.516835,0.290979,0.047679,0.018139,-0.005382,-0.070170,-0.494131,-0.866551,-0.006643,0.007589,0.004139,29.798527,6.509094,-22.743225,,,,,,,
1512178130.358514,-0.080521,0.518011,0.291066,0.053985,0.008521,-0.001063,-0.069882,-0.495153,-0.865991,-0.003452,0.011556,-0.000510,29.797215,6.209091,-22.668365,,,,,,,
1512178130.378534,-0.080836,0.518419,0.290789,-0.005304,-0.037445,-0.027665,-0.070138,-0.495507,-0.865767,-0.002341,0.011147,0.007079,29.646870,6.133865,-22.667130,,,,,,,
1512178130.398496,-0.081184,0.517514,0.289704,-0.069990,-0.044980,-0.048883,-0.070476,-0.494721,-0.866190,0.000698,-0.001831,0.007288,29.873142,6.434204,-22.818893,,,,,,,
1512178130.418485,-0.081219,0.516096,0.288487,-0.068975,-0.016147,-0.044505,-0.070563,-0.493489,-0.866885,-0.004892,-0.004543,0.012027,29.873493,6.509201,-22.818863,,,,,,,
1512178130.438504,-0.080858,0.515245,0.287634,-0.024516,0.000972,-0.024612,-0.070284,-0.492748,-0.867329,0.011629,-0.007664,-0.002117,29.647770,6.358871,-22.892014,,,,,,,
1512178130.458493,-0.081053,0.515308,0.287480,0.014399,-0.026797,0.006774,-0.070450,-0.492803,-0.867284,0.012299,-0.009806,-0.003138,29.798267,6.434097,-22.593262,,,,,,,
1512178130.478513,-0.082073,0.515673,0.287962,0.014092,-0.039651,0.024848,-0.071320,-0.493121,-0.867033,0.001648,-0.007841,0.016401,29.872105,6.209198,-22.893997,,,,,,,
1512178130.498502,-0.082601,0.515571,0.288459,-0.017772,-0.000169,0.019191,-0.071783,-0.493032,-0.867045,-0.000636,-0.007945,0.021494,29.724171,6.658981,-22.817505,,,,,,,
1512178130.518521,-0.082435,0.514852,0.288669,-0.044220,0.014772,0.008202,-0.071667,-0.492406,-0.867410,0.001492,0.006078,0.017770,29.648563,6.508865,-22.666946,,,,,,,
1512178130.538510,-0.081869,0.513817,0.288525,-0.055712,0.031868,-0.005766,-0.071218,-0.491505,-0.867958,-0.001215,0.003255,0.006095,29.423496,6.508530,-22.815033,,,,,,,
1512178130.558499,-0.081146,0.513079,0.288266,-0.023719,0.014827,-0.007495,-0.070620,-0.490862,-0.868371,0.003115,0.009020,-0.012641,29.647816,6.358871,-22.817017,,,,,,,
1512178130.578519,-0.081343,0.513231,0.288227,0.017658,-0.022518,0.002568,-0.070785,-0.490995,-0.868282,0.003738,0.008161,-0.010533,29.643284,5.383865,-23.117462,,,,,,,
1512178130.598508,-0.081933,0.513737,0.288400,0.024015,-0.025710,0.005852,-0.071276,-0.491435,-0.867993,-0.003064,0.003673,0.003674,29.645679,5.908859,-23.042221,,,,,,,
1512178130.618526,-0.082395,0.513950,0.288531,0.004930,-0.004366,0.000318,-0.071670,-0.491621,-0.867855,-0.009965,0.005522,0.018520,29.724201,6.658981,-22.742508,,,,,,,
1512178130.638515,-0.081709,0.513817,0.288284,-0.015118,0.040485,-0.010479,-0.071079,-0.491505,-0.867969,-0.001873,-0.001873,0.009266,29.650318,6.883865,-22.516769,,,,,,,
1512178130.658504,-0.081535,0.513411,0.288081,-0.018444,-0.014009,-0.005386,-0.070944,-0.491151,-0.868181,0.013815,-0.001937,-0.005858,29.649570,6.733871,-22.666840,,,,,,,
1512178130.678524,-0.082038,0.513133,0.288098,-0.006886,-0.030031,0.004321,-0.071392,-0.490910,-0.868280,-0.001468,0.000233,0.003000,29.645863,5.908859,-22.667221,,,,,,,
1512178130.698514,-0.082608,0.513320,0.288035,0.017862,-0.019285,-0.009142,-0.071880,-0.491072,-0.868148,-0.002583,0.001342,0.011611,29.873524,6.509201,-22.743866,,,,,,,
1512178130.718533,-0.082570,0.513928,0.287933,0.035874,0.009566,-0.001319,-0.071822,-0.491602,-0.867853,0.001449,-0.001058,0.015039,29.798634,6.509094,-22.518219,,,,,,,
1512178130.738523,-0.082469,0.514564,0.288341,0.029124,0.014857,0.020991,-0.071709,-0.492156,-0.867549,-0.000328,0.002913,0.012034,29.798679,6.509094,-22.443222,,,,,,,
1512178130.758542,-0.082411,0.514719,0.288536,-0.004618,-0.006515,-0.003028,-0.071652,-0.492290,-0.867477,-0.007740,0.013576,-0.001297,29.797520,6.284088,-22.743332,,,,,,,
1512178130.778531,-0.082547,0.514351,0.287953,-0.028604,-0.023572,-0.035413,-0.071785,-0.491970,-0.867647,-0.004387,0.013745,-0.004484,29.948521,6.509323,-22.744492,,,,,,,
1512178130.798520,-0.082460,0.513970,0.286964,-0.013626,-0.016066,-0.038368,-0.071725,-0.491638,-0.867841,0.006097,0.002945,-0.008044,29.497852,6.358643,-22.740738,,,,,,,
1512178130.818540,-0.082401,0.514448,0.286631,0.040129,0.009575,-0.000189,-0.071654,-0.492055,-0.867610,-0.001298,0.002339,0.008663,29.498524,6.508636,-22.740677,,,,,,,
1512178130.838529,-0.082159,0.515335,0.286934,0.047456,0.019182,0.008479,-0.071409,-0.492826,-0.867193,-0.003298,0.004804,0.010900,29.425327,6.883530,-22.514862,,,,,,,
1512178130.858548,-0.081890,0.515893,0.287034,0.018922,0.014896,-0.006875,-0.071153,-0.493312,-0.866938,0.003099,0.009700,0.006372,29.424198,6.658524,-22.739960,,,,,,,
1512178130.878536,-0.081467,0.515870,0.286543,-0.017006,0.004199,-0.026621,-0.070787,-0.493292,-0.866979,-0.004195,0.005514,0.012868,29.422855,6.358521,-22.740097,,,,,,,
1512178130.898525,-0.080881,0.515145,0.285652,-0.045590,0.007382,-0.038752,-0.070308,-0.492661,-0.867377,0.005809,-0.003174,0.013678,29.648640,6.508865,-22.516953,,,,,,,
1512178130.918545,-0.080360,0.514332,0.284933,-0.040635,0.008410,-0.016291,-0.069888,-0.491953,-0.867812,0.002505,-0.011923,0.011367,29.649158,6.658859,-22.816879,,,,,,,
1512178130.938534,-0.080318,0.513889,0.285031,-0.013456,0.006257,0.017147,-0.069869,-0.491568,-0.868032,0.001128,-0.005213,0.004766,29.799885,6.809097,-22.743088,,,,,,,
1512178130.958554,-0.080345,0.513732,0.285315,-0.007860,0.010570,0.001253,-0.069899,-0.491431,-0.868107,-0.002825,0.005621,0.009175,29.797855,6.359085,-22.743286,,,,,,,
1512178130.978543,-0.079522,0.513606,0.284617,-0.014552,0.034148,-0.044604,-0.069189,-0.491321,-0.868226,-0.006907,0.005023,0.007524,29.874531,6.734207,-22.743759,,,,,,,
1512178130.998563,-0.078152,0.513023,0.283607,-0.046703,0.043688,-0.034378,-0.068022,-0.490813,-0.868605,-0.004778,-0.007661,-0.000093,29.422810,6.358521,-22.815094,,,,,,,
1512178131.018552,-0.077285,0.512222,0.282810,-0.033957,0.015930,-0.033225,-0.067299,-0.490115,-0.869056,0.001931,0.005817,-0.008279,29.949909,6.809326,-22.669357,,,,,,,
1512178131.038541,-0.076583,0.512224,0.282203,0.014943,0.023468,-0.023960,-0.066689,-0.490117,-0.869102,-0.007545,0.008489,-0.002038,29.649204,6.658859,-22.741882,,,,,,,
1512178131.058560,-0.076028,0.512923,0.281807,0.039356,0.014945,-0.018307,-0.066180,-0.490726,-0.868797,-0.000516,0.002750,-0.001244,30.025959,7.034424,-22.594894,,,,,,,
1512178131.078549,-0.076110,0.513420,0.281749,0.008022,-0.011856,0.005664,-0.066233,-0.491159,-0.868548,-0.002751,0.000726,0.004794,30.024540,6.734436,-22.745026,,,,,,,
1512178131.098569,-0.076504,0.512953,0.281818,-0.036537,-0.011894,-0.006705,-0.066593,-0.490752,-0.868751,-0.013958,0.008834,0.011405,29.723560,6.508972,-22.667587,,,,,,,
1512178131.118557,-0.076028,0.512116,0.281118,-0.039244,0.019133,-0.035422,-0.066210,-0.490023,-0.869191,-0.005750,0.005679,0.008321,29.874531,6.734207,-22.743759,,,,,,,
1512178131.138546,-0.075382,0.511689,0.280372,-0.009590,0.004201,-0.024384,-0.065665,-0.489650,-0.869443,0.006278,-0.008580,0.000470,29.874348,6.659210,-22.443787,,,,,,,
1512178131.158566,-0.075204,0.511789,0.280036,0.008393,0.003146,-0.015597,-0.065506,-0.489738,-0.869405,0.000016,-0.001213,0.016424,30.176380,7.109665,-22.446121,,,,,,,
1512178131.178555,-0.074597,0.511943,0.279513,0.001214,0.033074,-0.031589,-0.064973,-0.489872,-0.869370,-0.000106,-0.006954,0.021256,29.874531,6.734207,-22.743759,,,,,,,
1512178131.198575,-0.073365,0.511707,0.278894,-0.022448,0.051170,-0.018010,-0.063910,-0.489667,-0.869564,0.004950,-0.013934,0.004971,30.174610,6.734650,-22.596298,,,,,,,
1512178131.218564,-0.072415,0.511121,0.278794,-0.031340,0.039362,0.003140,-0.063105,-0.489155,-0.869911,0.007929,-0.006374,-0.003624,30.025288,6.884430,-22.594955,,,,,,,
1512178131.238584,-0.071755,0.510777,0.278862,-0.006872,0.034050,0.005607,-0.062543,-0.488855,-0.870120,0.000638,0.001154,-0.009839,30.024647,6.734436,-22.520035,,,,,,,
1512178131.258573,-0.071668,0.511260,0.279113,0.037869,-0.010741,0.006102,-0.062450,-0.489276,-0.869890,-0.001164,0.009876,-0.010573,30.100590,6.959549,-22.670563,,,,,,,
1512178131.278562,-0.071973,0.511963,0.279229,0.024186,-0.011810,-0.004761,-0.062691,-0.489890,-0.869527,0.002647,0.003638,-0.005534,30.023869,6.584427,-22.745102,,,,,,,
1512178131.298581,-0.072115,0.512073,0.278829,-0.013936,-0.019312,-0.020263,-0.062810,-0.489985,-0.869465,-0.004634,0.002253,0.000874,30.024570,6.734436,-22.670029,,,,,,,
1512178131.318570,-0.072682,0.511369,0.278229,-0.043690,-0.059935,-0.028299,-0.063329,-0.489372,-0.869773,-0.004359,0.003349,0.001166,30.173832,6.584656,-22.821365,,,,,,,
1512178131.338590,-0.073289,0.510469,0.277336,-0.042522,-0.041770,-0.034620,-0.063889,-0.488586,-0.870173,0.002609,-0.002594,0.012385,30.028324,7.559433,-22.594650,,,,,,,
1512178131.358579,-0.073292,0.509946,0.276780,-0.014085,-0.002242,-0.010612,-0.063910,-0.488130,-0.870428,0.005026,-0.009154,0.016073,29.725285,6.883987,-22.592407,,,,,,,
1512178131.378567,-0.074032,0.510039,0.277166,0.014993,-0.055696,0.033330,-0.064551,-0.488212,-0.870335,0.014120,-0.002160,-0.011394,29.723606,6.508972,-22.592575,,,,,,,
1512178131.398549,-0.076041,0.510473,0.277874,0.031286,-0.085544,0.013206,-0.066283,-0.488590,-0.869992,0.009704,0.013568,-0.008151,29.651005,7.033875,-22.516708,,,,,,,
1512178131.418538,-0.078261,0.511259,0.277547,0.043748,-0.170880,-0.034880,-0.068184,-0.489276,-0.869460,0.022225,0.021945,-0.049425,29.649799,6.808868,-22.891800,,,,,,,
1512178131.438558,-0.084574,0.512398,0.276355,0.054587,-0.454960,-0.060234,-0.073624,-0.490269,-0.868456,-0.013809,0.010151,0.062395,29.348820,6.583420,-22.814362,,,,,,,
1512178131.458547,-0.088487,0.512874,0.275332,0.024409,-0.158105,-0.024452,-0.077001,-0.490684,-0.867929,-0.019724,-0.048989,0.066506,28.896275,6.057739,-23.185776,,,,,,,
1512178131.478566,-0.088603,0.514030,0.276688,0.088411,0.104491,0.114909,-0.077052,-0.491690,-0.867354,-0.006047,-0.032480,0.019881,28.671238,6.057404,-23.258865,,,,,,,
1512178131.498555,-0.090028,0.515473,0.280713,0.074512,-0.008883,0.176143,-0.078224,-0.492946,-0.866536,0.030006,0.002575,-0.015895,29.047993,6.432968,-23.111877,,,,,,,
1512178131.518544,-0.092106,0.514923,0.283760,-0.073609,-0.044225,0.105644,-0.080049,-0.492468,-0.866641,0.024904,0.005530,-0.025388,28.898441,6.507736,-22.885559,,,,,,,
1512178131.538564,-0.094530,0.511891,0.284865,-0.193064,-0.122250,0.041815,-0.082290,-0.489826,-0.867928,0.024429,0.001545,-0.069206,29.048374,6.507965,-23.036835,,,,,,,
1512178131.558553,-0.098197,0.508380,0.285201,-0.158722,-0.198008,0.023925,-0.085640,-0.486763,-0.869326,-0.023246,0.011162,-0.078336,28.599018,6.657288,-23.107941,,,,,,,
1512178131.578572,-0.101819,0.507474,0.285085,0.026182,-0.178451,-0.005315,-0.088833,-0.485971,-0.869448,-0.034320,0.024561,-0.007551,28.525654,7.032181,-23.182129,,,,,,,
1512178131.598561,-0.103265,0.508345,0.285639,0.020438,0.061814,0.031684,-0.090047,-0.486732,-0.868898,-0.076930,-0.000786,0.068864,28.447956,6.432068,-23.181778,,,,,,,
1512178131.618550,-0.099966,0.506938,0.285123,-0.115430,0.179296,-0.062622,-0.087248,-0.485503,-0.869870,-0.026674,0.007140,0.042447,28.299686,6.806839,-23.105331,,,,,,,
1512178131.638570,-0.094867,0.504669,0.281772,-0.077618,0.126142,-0.159266,-0.082916,-0.483517,-0.871399,0.043579,0.014249,-0.050797,28.972996,6.432846,-23.111237,,,,,,,
1512178131.658559,-0.094213,0.506185,0.279630,0.157018,-0.079887,-0.046782,-0.082277,-0.484844,-0.870722,0.030519,-0.013279,-0.034414,28.747959,6.432510,-23.184326,,,,,,,
1512178131.678579,-0.096568,0.511011,0.281422,0.274081,-0.039399,0.096842,-0.084100,-0.489059,-0.868186,-0.004004,-0.020691,0.012382,28.670490,5.907394,-23.408936,,,,,,,
1512178131.698568,-0.098131,0.515382,0.284606,0.168505,0.046949,0.103074,-0.085247,-0.492867,-0.865919,-0.003178,0.005181,0.061048,28.822514,6.357635,-23.410004,,,,,,,
1512178131.718587,-0.095997,0.515656,0.285315,-0.052217,0.140850,-0.019198,-0.083387,-0.493106,-0.865964,0.012769,0.015246,0.044095,28.747059,6.207520,-22.959427,,,,,,,
1512178131.738576,-0.092529,0.513530,0.283481,-0.125908,0.120562,-0.075767,-0.080479,-0.491255,-0.867290,0.028599,0.012220,0.032558,29.198338,6.508194,-23.113113,,,,,,,
1512178131.758565,-0.090578,0.511301,0.282816,-0.099962,0.046689,0.027758,-0.078886,-0.489312,-0.868533,0.020445,0.010125,0.000339,28.972660,6.357849,-23.111267,,,,,,,
1512178131.778585,-0.091707,0.510717,0.284238,0.018743,-0.039729,0.065423,-0.079893,-0.488803,-0.868728,0.000212,0.045703,0.001464,29.199467,6.733185,-22.888016,,,,,,,
1512178131.798574,-0.092031,0.511919,0.284987,0.063590,0.035244,0.000239,-0.080120,-0.489851,-0.868116,-0.023121,0.053252,0.026793,28.972630,6.357849,-23.186264,,,,,,,
1512178131.818593,-0.089878,0.512093,0.284331,-0.040112,0.123827,-0.042534,-0.078243,-0.490003,-0.868202,-0.029713,0.029233,0.033348,29.121616,6.133072,-23.187653,,,,,,,
1512178131.838582,-0.085616,0.510021,0.282615,-0.138657,0.186766,-0.075724,-0.074629,-0.488195,-0.869538,-0.016573,0.022345,0.022766,29.198444,6.508194,-22.888123,,,,,,,
1512178131.858571,-0.080953,0.506920,0.280537,-0.159988,0.150414,-0.077227,-0.070695,-0.485487,-0.871381,0.012285,0.025618,-0.015552,29.349506,6.733414,-22.814285,,,,,,,
1512178131.878591,-0.079663,0.505156,0.278776,-0.040911,-0.035289,-0.066552,-0.069639,-0.483944,-0.872324,0.032423,0.032924,-0.029593,29.426228,7.108536,-22.739761,,,,,,,
1512178131.898580,-0.080311,0.505900,0.277606,0.072917,-0.059710,-0.053262,-0.070176,-0.484595,-0.871919,0.018280,0.018088,0.005784,29.351307,7.108414,-22.589111,,,,,,,
1512178131.918599,-0.080243,0.508067,0.276659,0.112364,0.018324,-0.049219,-0.070032,-0.486489,-0.870875,0.011469,-0.008384,0.026759,29.349277,6.658417,-22.589325,,,,,,,
1512178131.938588,-0.078784,0.509896,0.276113,0.072454,0.075881,-0.018683,-0.068691,-0.488086,-0.870088,0.014538,-0.019467,0.025056,29.047428,6.282959,-22.886948,,,,,,,
1512178131.958608,-0.076772,0.510133,0.275969,-0.019525,0.093863,0.000302,-0.066932,-0.488293,-0.870109,0.011024,-0.017276,0.012382,29.500248,6.883636,-22.665497,,,,,,,
1512178131.978597,-0.075456,0.508406,0.275900,-0.118827,0.047768,0.008300,-0.065849,-0.486786,-0.871036,0.019417,-0.011917,-0.000165,29.500629,6.958649,-22.590469,,,,,,,
1512178131.998586,-0.075171,0.505137,0.275842,-0.180795,-0.012158,0.013590,-0.065721,-0.483927,-0.872637,0.035493,-0.008108,-0.022658,29.575962,7.033752,-22.591064,,,,,,,
1512178132.018605,-0.076265,0.502175,0.275975,-0.120254,-0.076179,0.023838,-0.066785,-0.481333,-0.873990,0.025510,0.001033,-0.032917,29.726673,7.183990,-22.517273,,,,,,,
1512178132.038594,-0.078000,0.501328,0.276663,-0.001081,-0.061069,0.038410,-0.068332,-0.480591,-0.874278,0.013095,0.005112,-0.012623,29.353062,7.483429,-22.438950,,,,,,,
1512178132.058614,-0.078848,0.502311,0.277491,0.066266,-0.000063,0.030003,-0.069036,-0.481453,-0.873749,-0.001352,0.002006,0.005600,29.353291,7.558426,-22.663910,,,,,,,
1512178132.078603,-0.078922,0.503657,0.278189,0.060928,0.010609,0.031029,-0.069050,-0.482632,-0.873097,0.006489,0.000759,0.003605,29.202045,7.258194,-22.437775,,,,,,,
1512178132.098592,-0.078877,0.504079,0.279020,0.003261,-0.002308,0.036545,-0.068995,-0.483001,-0.872897,0.005671,0.002624,-0.010236,29.500706,6.958649,-22.440460,,,,,,,
1512178132.118611,-0.079500,0.503563,0.279375,-0.030342,-0.033273,0.003969,-0.069558,-0.482549,-0.873102,0.003564,0.009985,-0.011526,29.274082,6.583298,-22.288727,,,,,,,
1512178132.138600,-0.080422,0.503232,0.279082,-0.002336,-0.056696,-0.014897,-0.070376,-0.482259,-0.873197,0.002825,0.007970,-0.005129,29.051182,7.032974,-22.136612,,,,,,,
1512178132.158620,-0.081157,0.503736,0.278846,0.041280,-0.037410,-0.007799,-0.070998,-0.482701,-0.872903,-0.005159,0.003025,-0.000449,28.901188,7.032745,-22.135330,,,,,,,
1512178132.178609,-0.081518,0.504994,0.278557,0.067105,-0.022394,-0.022300,-0.071264,-0.483802,-0.872271,-0.005167,0.015831,0.000155,28.901142,7.032745,-22.210327,,,,,,,
1512178132.198629,-0.081634,0.506053,0.277706,0.035666,-0.029848,-0.054760,-0.071323,-0.484728,-0.871752,-0.002362,0.016528,-0.003736,28.978321,7.482864,-21.910767,,,,,,,
1512178132.218618,-0.081657,0.506026,0.276053,-0.026900,-0.055545,-0.077082,-0.071344,-0.484705,-0.871763,0.000375,0.004068,-0.006136,28.524906,6.732178,-21.982285,,,,,,,
1512178132.238607,-0.082449,0.505166,0.274234,-0.054706,-0.097251,-0.073364,-0.072069,-0.483952,-0.872122,0.003191,0.010137,0.001089,28.151783,7.106628,-21.603928,,,,,,,
1512178132.258626,-0.083100,0.504173,0.272361,-0.053428,-0.055566,-0.083860,-0.072676,-0.483084,-0.872553,-0.015657,0.016531,0.013636,28.527790,7.332184,-21.607010,,,,,,,
1512178132.278615,-0.082379,0.503630,0.269859,-0.012198,-0.019102,-0.125778,-0.072069,-0.482608,-0.872866,-0.014158,0.020969,0.004244,28.452229,7.182068,-21.381439,,,,,,,
1512178132.298635,-0.081684,0.504391,0.266625,0.047889,-0.052072,-0.150606,-0.071433,-0.483274,-0.872550,0.002310,0.023359,0.001044,28.377338,7.181961,-21.155807,,,,,,,
1512178132.318624,-0.080778,0.505929,0.263202,0.072488,-0.032806,-0.155517,-0.070582,-0.484620,-0.871872,0.012217,-0.002165,0.014618,28.151447,6.956619,-20.929001,,,,,,,
1512178132.338613,-0.080149,0.507381,0.260536,0.051295,-0.035084,-0.098263,-0.069977,-0.485890,-0.871214,0.015640,-0.006237,0.005736,28.075993,6.881516,-21.153397,,,,,,,
1512178132.358632,-0.080496,0.507843,0.259237,0.003527,-0.049146,-0.046767,-0.070261,-0.486294,-0.870966,0.002939,0.020016,0.008982,28.001820,7.031403,-20.852692,,,,,,,
1512178132.378621,-0.080254,0.507214,0.257394,-0.050854,-0.018129,-0.109279,-0.070075,-0.485744,-0.871288,0.000967,0.028972,0.014156,27.627689,7.180832,-20.474426,,,,,,,
1512178132.398630,-0.078690,0.506314,0.253902,-0.048919,-0.006273,-0.161447,-0.068746,-0.484957,-0.871832,-0.006266,0.025286,0.002188,28.078251,7.331512,-20.703186,,,,,,,
1512178132.418619,-0.077219,0.506308,0.250109,0.011851,-0.031813,-0.162787,-0.067464,-0.484952,-0.871935,-0.002681,0.022626,-0.012251,27.629826,7.630844,-20.249222,,,,,,,
1512178132.438637,-0.076703,0.507599,0.246410,0.068474,-0.077635,-0.171717,-0.066966,-0.486080,-0.871345,0.017985,0.025234,-0.010079,27.927204,7.031281,-20.102051,,,,,,,
1512178132.458627,-0.076343,0.509081,0.242406,0.055815,-0.078710,-0.180435,-0.066598,-0.487375,-0.870649,0.007668,0.003794,0.002928,27.703922,7.405945,-20.024963,,,,,,,
1512178132.478616,-0.076149,0.509772,0.238811,0.006224,-0.075649,-0.147030,-0.066403,-0.487978,-0.870327,0.002271,0.004137,0.007869,27.179630,7.555161,-19.945435,,,,,,,
1512178132.498636,-0.076081,0.509297,0.235409,-0.054329,-0.070376,-0.159616,-0.066361,-0.487564,-0.870562,-0.002487,0.020050,0.012682,27.329029,7.405380,-19.796768,,,,,,,
1512178132.518625,-0.075465,0.508053,0.230833,-0.076990,-0.103426,-0.209097,-0.065871,-0.486477,-0.871207,0.003051,0.023922,-0.014093,27.030231,7.629944,-19.419128,,,,,,,
1512178132.538644,-0.075950,0.506975,0.225813,-0.057774,-0.168550,-0.214377,-0.066333,-0.485535,-0.871697,0.015582,0.017151,-0.021690,26.506351,7.854156,-19.189560,,,,,,,
1512178132.558633,-0.076682,0.506768,0.220706,-0.007407,-0.150278,-0.228505,-0.066979,-0.485354,-0.871748,-0.013267,0.013736,-0.005556,26.507374,8.079163,-19.189453,,,,,,,
1512178132.578622,-0.076608,0.507133,0.215196,-0.000549,-0.105356,-0.254904,-0.066901,-0.485673,-0.871577,-0.006677,0.018418,0.004862,26.131763,7.928589,-19.036346,,,,,,,
1512178132.598642,-0.074919,0.507607,0.208766,0.013992,-0.071069,-0.294015,-0.065411,-0.486087,-0.871459,-0.003299,0.011325,-0.010774,26.133411,8.303589,-19.111176,,,,,,,
1512178132.618631,-0.073378,0.508402,0.202350,0.034933,-0.092448,-0.272467,-0.064040,-0.486782,-0.871173,-0.017442,0.003292,-0.035886,26.058643,8.303482,-18.660538,,,,,,,
1512178132.638651,-0.072967,0.510523,0.196327,0.126611,-0.140371,-0.274503,-0.063606,-0.488634,-0.870167,0.017723,0.021517,-0.038738,25.834690,8.528152,-18.583511,,,,,,,
1512178132.658640,-0.073186,0.513953,0.190284,0.157509,-0.161693,-0.275199,-0.063674,-0.491623,-0.868477,0.020583,0.010041,-0.014580,25.909199,8.378250,-18.209229,,,,,,,
1512178132.678658,-0.073518,0.517103,0.184353,0.137039,-0.168153,-0.261656,-0.063848,-0.494364,-0.866907,0.008031,0.000529,0.002619,25.382618,8.002472,-17.979935,,,,,,,
1512178132.698647,-0.074100,0.520188,0.179099,0.152557,-0.142550,-0.231491,-0.064240,-0.497043,-0.865345,-0.001007,0.021717,0.011173,25.159016,8.302139,-17.902878,,,,,,,
1512178132.718637,-0.074149,0.523989,0.174297,0.194953,-0.117952,-0.215868,-0.064141,-0.500338,-0.863451,-0.006278,0.027193,0.012606,25.159397,8.377136,-17.827850,,,,,,,
1512178132.738657,-0.074557,0.527775,0.167584,0.158717,-0.159663,-0.218671,-0.064353,-0.503613,-0.861529,0.016471,0.024151,0.003726,24.709583,8.376450,-17.449020,,,,,,,
1512178132.758646,-0.075849,0.530102,0.158748,0.068029,-0.200395,-0.215861,-0.065376,-0.505621,-0.860275,0.014183,0.013449,0.012878,24.710026,8.451462,-17.223999,,,,,,,
1512178132.778665,-0.076996,0.530505,0.149986,-0.029174,-0.153573,-0.202183,-0.066347,-0.505969,-0.859996,-0.006254,0.009311,0.041484,24.335102,8.450897,-17.070816,,,,,,,
1512178132.798654,-0.076106,0.529183,0.141524,-0.098536,-0.032992,-0.192108,-0.065633,-0.504828,-0.860721,-0.016856,0.024039,0.034519,24.037342,8.900452,-16.618057,,,,,,,
1512178132.818643,-0.074092,0.527297,0.132965,-0.109109,-0.014840,-0.196462,-0.063970,-0.503200,-0.861799,-0.012171,0.031734,0.018415,23.963505,9.125336,-16.317307,,,,,,,
1512178132.838663,-0.071503,0.525292,0.124125,-0.117151,0.003362,-0.225299,-0.061810,-0.501466,-0.862966,-0.019107,0.028306,0.013418,23.737232,8.824997,-16.165543,,,,,,,
1512178132.858652,-0.068756,0.523555,0.114671,-0.094417,-0.016849,-0.246357,-0.059499,-0.499962,-0.864001,-0.011378,0.017586,-0.004163,23.737919,8.975006,-16.165466,,,,,,,
1512178132.878670,-0.066239,0.522675,0.105343,-0.044490,0.004566,-0.234900,-0.057353,-0.499200,-0.864586,-0.032521,0.008233,0.012429,23.515278,9.424667,-15.488358,,,,,,,
1512178132.898659,-0.063038,0.522098,0.096780,-0.045067,0.050426,-0.197436,-0.054603,-0.498700,-0.865053,-0.022622,-0.016635,-0.001067,23.590275,9.424774,-15.488998,,,,,,,
1512178132.918679,-0.060390,0.520860,0.089608,-0.083685,0.042730,-0.119136,-0.052350,-0.497626,-0.865810,-0.034335,-0.024011,-0.018727,23.368793,10.174454,-15.186737,,,,,,,
1512178132.938668,-0.059751,0.519371,0.084008,-0.067543,-0.058820,-0.068083,-0.051841,-0.496334,-0.866582,-0.023278,-0.014729,-0.041148,23.593693,10.099777,-14.738678,,,,,,,
1512178132.958658,-0.060327,0.518627,0.079052,-0.019661,-0.055558,-0.063116,-0.052362,-0.495688,-0.866920,-0.055807,0.000922,-0.032539,23.143238,10.024109,-14.959900,,,,,,,
1512178132.978677,-0.061213,0.518984,0.074140,0.021851,-0.084340,-0.060482,-0.053120,-0.495998,-0.866697,-0.078029,0.009746,-0.028002,22.619694,10.323318,-14.730301,,,,,,,
1512178132.998666,-0.061872,0.519325,0.068710,-0.001843,-0.063978,-0.108724,-0.053680,-0.496294,-0.866493,-0.067551,0.017351,-0.023888,22.470142,10.398102,-14.503983,,,,,,,
1512178133.018686,-0.061116,0.518796,0.061677,-0.056191,-0.037229,-0.173382,-0.053041,-0.495835,-0.866795,-0.060759,0.006150,-0.014721,22.245823,10.547760,-14.501999,,,,,,,
1512178133.038675,-0.059861,0.517991,0.054112,-0.028622,-0.038280,-0.165528,-0.051977,-0.495136,-0.867259,-0.043787,-0.015972,-0.029103,22.021122,10.622421,-14.575058,,,,,,,
1512178133.058664,-0.059824,0.518829,0.047986,0.081000,-0.055350,-0.090440,-0.051920,-0.495863,-0.866847,-0.044042,-0.016756,-0.016607,21.798557,11.147095,-14.422897,,,,,,,
1512178133.078683,-0.059748,0.521586,0.043169,0.159564,0.002411,-0.067779,-0.051773,-0.498256,-0.865482,-0.053223,-0.006108,-0.002270,21.421268,10.621521,-14.269958,,,,,,,
1512178133.098672,-0.057582,0.524871,0.037858,0.156112,0.101835,-0.112258,-0.049804,-0.501102,-0.863954,-0.056108,0.001132,-0.007460,21.347019,10.771408,-14.119247,,,,,,,
1512178133.118692,-0.053957,0.527876,0.031526,0.135363,0.111491,-0.145569,-0.046589,-0.503700,-0.862621,-0.046001,0.002555,-0.019062,21.122013,10.771072,-14.117325,,,,,,,
1512178133.138680,-0.050412,0.530281,0.025154,0.104138,0.100721,-0.127938,-0.043470,-0.505776,-0.861569,-0.050631,0.006813,-0.016483,21.123066,10.996078,-14.042236,,,,,,,
1512178133.158700,-0.047232,0.532862,0.018975,0.147959,0.096523,-0.135850,-0.040669,-0.508000,-0.860396,-0.042492,0.021489,-0.016969,21.123173,10.996078,-13.817230,,,,,,,
1512178133.178689,-0.044184,0.536860,0.012929,0.222358,0.091273,-0.121996,-0.037956,-0.511440,-0.858480,-0.040062,0.018108,-0.019786,21.122700,10.921082,-14.117264,,,,,,,
1512178133.198678,-0.041457,0.541635,0.007440,0.242221,0.076300,-0.099375,-0.035513,-0.515537,-0.856130,-0.051035,0.012196,-0.022288,20.672764,10.920410,-13.963440,,,,,,,
1512178133.218698,-0.039376,0.545884,0.002510,0.189638,0.064429,-0.078856,-0.033645,-0.519174,-0.854006,-0.059571,0.027231,-0.002836,20.447132,10.770065,-13.886597,,,,,,,
1512178133.238687,-0.037336,0.548510,-0.002875,0.096500,0.061166,-0.119660,-0.031852,-0.521417,-0.852707,-0.062417,0.026696,0.032379,20.292896,9.869827,-14.260742,,,,,,,
1512178133.258707,-0.033013,0.549143,-0.009221,0.004270,0.197805,-0.143973,-0.028154,-0.521957,-0.852507,-0.057356,0.012313,0.050077,20.670811,10.470398,-13.813644,,,,,,,
1512178133.278696,-0.027114,0.549463,-0.015197,0.038742,0.234086,-0.099640,-0.023120,-0.522229,-0.852491,-0.035520,0.011960,0.013960,20.597050,10.770294,-14.037872,,,,,,,
1512178133.298685,-0.022976,0.551503,-0.019052,0.154248,0.164629,0.004135,-0.019568,-0.523968,-0.851512,-0.028390,0.019208,-0.031895,20.220707,10.469727,-14.034821,,,,,,,
1512178133.318704,-0.021742,0.555906,-0.017632,0.257591,0.089880,0.068267,-0.018467,-0.527713,-0.849221,-0.035534,0.032184,-0.021613,20.220325,10.394730,-14.109848,,,,,,,
1512178133.338693,-0.022197,0.561213,-0.015386,0.256078,0.009724,0.092490,-0.018791,-0.532214,-0.846401,-0.048729,0.032504,-0.016621,20.219959,10.319733,-14.184891,,,,,,,
1512178133.358713,-0.023969,0.565017,-0.013106,0.150755,-0.028867,0.076968,-0.020242,-0.535431,-0.844336,-0.050727,0.032699,0.015112,19.994877,10.319382,-14.332977,,,,,,,
1512178133.378702,-0.024975,0.566398,-0.011468,0.037033,0.023337,0.058445,-0.021073,-0.536596,-0.843575,-0.062087,0.036489,0.029992,19.693409,10.018936,-14.555573,,,,,,,
1512178133.398690,-0.025015,0.566105,-0.010321,-0.014928,0.020087,0.041690,-0.021111,-0.536349,-0.843732,-0.045586,0.041491,-0.009769,19.619801,10.318817,-14.479797,,,,,,,
1512178133.418674,-0.026305,0.566104,-0.009047,0.029496,-0.051452,0.059141,-0.022199,-0.536348,-0.843704,-0.037051,0.044939,-0.018921,19.393681,10.093491,-14.702988,,,,,,,
1512178133.438663,-0.028710,0.567231,-0.007076,0.078100,-0.056769,0.085413,-0.024210,-0.537299,-0.843044,-0.059789,0.042395,0.004863,19.392918,9.943481,-14.853058,,,,,,,
1512178133.458683,-0.030527,0.568334,-0.005028,0.037886,-0.014067,0.070056,-0.025724,-0.538229,-0.842406,-0.056032,0.048650,0.016447,19.092182,9.793030,-15.000565,,,,,,,
1512178133.478672,-0.031153,0.567617,-0.004007,-0.078589,0.018953,0.022638,-0.026264,-0.537624,-0.842775,-0.052594,0.049266,0.019060,19.467731,9.943604,-15.228683,,,,,,,
1512178133.498691,-0.030736,0.564852,-0.004573,-0.149946,0.001892,-0.046681,-0.025957,-0.535291,-0.844268,-0.035047,0.047742,0.000366,19.393970,10.243484,-15.452911,,,,,,,
1512178133.518680,-0.030151,0.562351,-0.005909,-0.090185,-0.022572,-0.051229,-0.025504,-0.533177,-0.845619,-0.023187,0.044712,-0.021950,18.794193,10.317581,-15.672775,,,,,,,
1512178133.538669,-0.031867,0.562001,-0.006541,0.025457,-0.132480,-0.023287,-0.026961,-0.532881,-0.845760,0.003615,0.036589,-0.005100,18.867207,9.867691,-15.598618,,,,,,,
1512178133.558689,-0.034837,0.562793,-0.006965,0.034956,-0.154902,-0.017894,-0.029458,-0.533551,-0.845254,0.004266,0.010296,0.035974,18.418079,10.092026,-15.894684,,,,,,,
1512178133.578678,-0.038130,0.562089,-0.006845,-0.080697,-0.145525,0.014579,-0.032256,-0.532955,-0.845528,0.003447,-0.003560,0.065881,18.342960,10.091904,-16.119049,,,,,,,
1512178133.598698,-0.040132,0.558417,-0.006534,-0.235218,-0.054971,0.014784,-0.034027,-0.529844,-0.847412,0.000076,0.009962,0.052856,18.569279,10.392242,-16.195831,,,,,,,
1512178133.618687,-0.040067,0.552580,-0.007088,-0.306932,0.004824,-0.029756,-0.034094,-0.524885,-0.850489,0.005972,0.032469,0.008082,18.570103,10.617249,-16.570724,,,,,,,
1512178133.638676,-0.039032,0.546974,-0.008963,-0.254713,-0.017399,-0.094106,-0.033328,-0.520105,-0.853451,0.025104,0.039286,-0.031009,18.196735,10.991684,-16.642365,,,,,,,
1512178133.658695,-0.038863,0.543573,-0.012198,-0.136626,-0.105772,-0.148137,-0.033253,-0.517197,-0.855220,0.044667,0.012223,-0.022146,18.421375,10.917023,-16.719299,,,,,,,
1512178133.678684,-0.039711,0.542135,-0.015795,-0.053583,-0.153722,-0.143902,-0.034008,-0.515966,-0.855933,0.054088,-0.034220,0.003242,18.422047,11.067032,-16.719238,,,,,,,
1512178133.698704,-0.041811,0.541941,-0.018504,0.002143,-0.178298,-0.098407,-0.035809,-0.515800,-0.855960,0.052426,-0.056695,0.039721,18.046818,11.066467,-17.166061,,,,,,,
1512178133.718693,-0.043951,0.541837,-0.024156,-0.015086,-0.147365,-0.085754,-0.037644,-0.515711,-0.855935,0.043839,-0.062475,0.067528,18.271336,10.991806,-17.467987,,,,,,,
1512178133.738712,-0.044231,0.540779,-0.030395,-0.079441,-0.053394,-0.122607,-0.037907,-0.514804,-0.856469,0.025044,-0.066831,0.072381,17.971256,10.991348,-17.615448,,,,,,,
1512178133.758701,-0.042896,0.538625,-0.037322,-0.133586,-0.020335,-0.133935,-0.036811,-0.512956,-0.857625,0.028144,-0.067351,0.038289,17.748173,11.441010,-17.838318,,,,,,,
1512178133.778690,-0.041837,0.536164,-0.044027,-0.134945,-0.051350,-0.118073,-0.035956,-0.510842,-0.858922,0.032355,-0.055228,0.010457,17.522236,11.290680,-18.361481,,,,,,,
1512178133.798710,-0.041735,0.534463,-0.050491,-0.089168,-0.082260,-0.115384,-0.035904,-0.509379,-0.859792,0.025009,-0.048162,0.010259,17.747791,11.366013,-17.913361,,,,,,,
1512178133.818699,-0.042093,0.533514,-0.056588,-0.068161,-0.090812,-0.096987,-0.036233,-0.508562,-0.860262,0.026345,-0.057020,0.008776,17.972904,11.441360,-18.365234,,,,,,,
1512178133.838718,-0.043121,0.532408,-0.061975,-0.076056,-0.113304,-0.071593,-0.037141,-0.507609,-0.860786,0.021485,-0.048207,0.003868,17.823917,11.666138,-18.363861,,,,,,,
1512178133.858707,-0.044252,0.531320,-0.067784,-0.064603,-0.119604,-0.120491,-0.038139,-0.506672,-0.861294,0.006294,-0.027981,0.025097,17.973774,11.666351,-18.665131,,,,,,,
1512178133.878696,-0.044492,0.530371,-0.074898,-0.063691,-0.097063,-0.174768,-0.038367,-0.505853,-0.861765,-0.003045,-0.041998,0.030512,17.748142,11.516022,-18.588287,,,,,,,
1512178133.898716,-0.043767,0.529532,-0.083037,-0.060898,-0.084162,-0.214126,-0.037761,-0.505130,-0.862216,-0.007711,-0.042264,0.040882,17.597080,11.365784,-19.337067,,,,,,,
1512178133.918705,-0.042468,0.528721,-0.091999,-0.059218,-0.078747,-0.251397,-0.036658,-0.504430,-0.862674,-0.005441,-0.050533,0.045047,17.600315,12.040802,-18.961761,,,,,,,
1512178133.938724,-0.040813,0.527886,-0.101556,-0.057794,-0.076564,-0.272688,-0.035248,-0.503708,-0.863154,-0.007721,-0.059784,0.038676,17.824863,11.966125,-19.188705,,,,,,,
1512178133.958713,-0.039182,0.527414,-0.111208,-0.034339,-0.082939,-0.273438,-0.033849,-0.503300,-0.863448,-0.002680,-0.061626,0.032485,17.749638,11.966019,-19.638077,,,,,,,
1512178133.978733,-0.037737,0.527412,-0.120827,-0.013921,-0.090359,-0.282759,-0.032602,-0.503299,-0.863497,-0.004462,-0.059201,0.035219,18.049854,11.966476,-19.190628,,,,,,,
1512178133.998722,-0.036141,0.527241,-0.130669,-0.052183,-0.083996,-0.289688,-0.031226,-0.503151,-0.863633,0.000632,-0.064247,0.042756,17.750202,12.041016,-19.188034,,,,,,,
1512178134.018711,-0.034597,0.525475,-0.140555,-0.148182,-0.092695,-0.286845,-0.029923,-0.501624,-0.864568,0.006776,-0.077462,0.035756,17.974781,11.966354,-19.339981,,,,,,,
1512178134.038730,-0.033606,0.522198,-0.150143,-0.195393,-0.133393,-0.270615,-0.029122,-0.498786,-0.866235,0.010369,-0.069222,0.005105,18.050114,12.041473,-19.340591,,,,,,,
1512178134.058719,-0.033995,0.519410,-0.159434,-0.131569,-0.189925,-0.265626,-0.029506,-0.496368,-0.867610,0.015147,-0.044984,-0.011189,17.978046,12.716354,-19.564636,,,,,,,
1512178134.078739,-0.035188,0.518467,-0.168907,-0.039551,-0.239941,-0.287917,-0.030557,-0.495549,-0.868042,0.027246,-0.041881,-0.015931,17.750950,12.266022,-19.712936,,,,,,,
1512178134.098728,-0.037180,0.518613,-0.178926,-0.013595,-0.291128,-0.313306,-0.032283,-0.495676,-0.867907,0.021617,-0.054983,0.003283,17.826664,12.416138,-19.638504,,,,,,,
1512178134.118717,-0.039647,0.518624,-0.189339,-0.031488,-0.321034,-0.328594,-0.034424,-0.495686,-0.867819,0.018891,-0.065075,0.034277,17.527378,12.565689,-19.560883,,,,,,,
1512178134.138737,-0.042340,0.517929,-0.199831,-0.068882,-0.328577,-0.323831,-0.036776,-0.495082,-0.868067,0.027559,-0.060597,0.051691,17.378086,12.715454,-19.484543,,,,,,,
1512178134.158726,-0.044917,0.516506,-0.210479,-0.104867,-0.310438,-0.338145,-0.039044,-0.493845,-0.868672,0.024564,-0.052633,0.077305,17.075901,12.265015,-19.782196,,,,,,,
1512178134.178745,-0.046043,0.514520,-0.221618,-0.129986,-0.241001,-0.363857,-0.040067,-0.492117,-0.869606,0.025953,-0.046320,0.085563,17.077412,12.565002,-19.482056,,,,,,,
1512178134.198734,-0.046046,0.512603,-0.233295,-0.125347,-0.215312,-0.385020,-0.040114,-0.490447,-0.870546,0.030424,-0.051636,0.083895,16.476170,12.339111,-19.927063,,,,,,,
1512178134.218754,-0.045252,0.510840,-0.245114,-0.115697,-0.169360,-0.385785,-0.039461,-0.488910,-0.871440,0.035677,-0.062970,0.097774,16.326542,12.413879,-19.850754,,,,,,,
1512178134.238743,-0.043528,0.509284,-0.256522,-0.105308,-0.106359,-0.366226,-0.037992,-0.487552,-0.872266,0.035093,-0.070691,0.104444,16.400196,12.113998,-19.851532,,,,,,,
1512178134.258732,-0.041638,0.507293,-0.267364,-0.147264,-0.108606,-0.343389,-0.036384,-0.485813,-0.873304,0.030707,-0.069958,0.096434,16.404316,13.014008,-19.701111,,,,,,,
1512178134.278751,-0.040242,0.503481,-0.278135,-0.254831,-0.145072,-0.351470,-0.035238,-0.482477,-0.875198,0.020682,-0.062780,0.088455,16.553944,12.939224,-19.777420,,,,,,,
1512178134.298740,-0.039652,0.497662,-0.289537,-0.347070,-0.201762,-0.384986,-0.034833,-0.477373,-0.878009,0.012662,-0.052290,0.094333,16.555103,13.164230,-19.477310,,,,,,,
1512178134.318760,-0.038912,0.490627,-0.301470,-0.384168,-0.171883,-0.396078,-0.034313,-0.471179,-0.881369,-0.004627,-0.055799,0.094275,16.106495,13.463547,-19.398361,,,,,,,
1512178134.338749,-0.036878,0.484076,-0.313288,-0.326522,-0.074595,-0.397040,-0.032633,-0.465391,-0.884503,-0.019811,-0.051317,0.087704,16.107395,13.688553,-19.623245,,,,,,,
1512178134.358738,-0.032796,0.479143,-0.327547,-0.234617,0.018497,-0.406045,-0.029098,-0.461018,-0.886913,-0.025529,-0.043407,0.057216,16.183964,13.988663,-19.173752,,,,,,,
1512178134.378757,-0.027673,0.475803,-0.339611,-0.166940,0.037891,-0.435911,-0.024596,-0.458053,-0.888584,-0.024355,-0.037278,0.037556,15.958622,13.913330,-19.171875,,,,,,,
1512178134.398746,-0.022959,0.473138,-0.352744,-0.158671,-0.043179,-0.489379,-0.020435,-0.455682,-0.889907,-0.016552,-0.039405,0.037857,15.735661,14.363007,-19.169754,,,,,,,
1512178134.418768,-0.019523,0.469807,-0.366665,-0.204053,-0.108345,-0.520111,-0.017406,-0.452715,-0.891485,-0.040196,-0.046110,0.064672,15.511967,14.662659,-19.242706,,,,,,,
1512178134.438757,-0.017121,0.465405,-0.381545,-0.257391,-0.188409,-0.586191,-0.015299,-0.448785,-0.893508,-0.070653,-0.050116,0.086959,15.584721,14.137772,-19.018585,,,,,,,
1512178134.458776,-0.014565,0.460215,-0.398760,-0.280830,-0.190325,-0.716597,-0.013049,-0.444141,-0.895861,-0.085019,-0.036785,0.115451,15.138126,14.887100,-18.939423,,,,,,,
1512178134.478765,-0.009505,0.454978,-0.418890,-0.271325,-0.113163,-0.836656,-0.008538,-0.439443,-0.898230,-0.089088,-0.081965,0.107290,15.289509,15.187332,-18.865555,,,,,,,
1512178134.498754,-0.003393,0.450005,-0.439599,-0.259022,-0.092905,-0.805489,-0.003055,-0.434970,-0.900439,-0.082638,-0.128277,0.064563,15.066883,15.711990,-18.863403,,,,,,,
1512178134.518774,0.001512,0.445028,-0.458635,-0.257846,-0.131475,-0.750174,0.001365,-0.430483,-0.902597,-0.086082,-0.098173,0.001764,14.690601,15.411438,-18.710342,,,,,,,
1512178134.538763,0.003669,0.440571,-0.478403,-0.216989,-0.355540,-0.846305,0.003319,-0.426456,-0.904502,-0.089897,-0.043240,-0.051812,14.166355,15.560638,-18.555817,,,,,,,
1512178134.558783,0.000812,0.437270,-0.501938,-0.154063,-0.721415,-1.059879,0.000735,-0.423468,-0.905910,-0.131396,-0.048838,-0.005314,14.017246,15.785416,-18.779449,,,,,,,
1512178134.578772,-0.004094,0.434644,-0.529997,-0.152417,-0.759540,-1.226293,-0.003713,-0.421088,-0.907012,-0.195689,-0.106271,0.124434,13.043262,16.008957,-18.771057,,,,,,,
1512178134.598761,-0.003271,0.431536,-0.559490,-0.173238,-0.352569,-1.236906,-0.002971,-0.418267,-0.908319,-0.212269,-0.129402,0.142511,12.141605,15.632614,-18.688568,,,,,,,
1512178134.618780,0.005598,0.428940,-0.587987,-0.083239,-0.016054,-1.183261,0.005091,-0.415907,-0.909392,-0.152155,-0.071749,-0.012345,11.917286,15.782272,-18.686584,,,,,,,
1512178134.638769,0.014849,0.429437,-0.616092,0.115233,-0.171672,-1.202248,0.013500,-0.416359,-0.909100,-0.105053,0.012016,-0.122944,11.692661,15.856934,-18.609650,,,,,,,
1512178134.658789,0.018107,0.433742,-0.646113,0.290427,-0.577111,-1.308793,0.016429,-0.420269,-0.907250,-0.097041,0.027066,-0.091483,11.239246,15.106247,-18.681168,,,,,,,
1512178134.678778,0.016228,0.439190,-0.677341,0.277555,-0.765123,-1.312831,0.014687,-0.425207,-0.904977,-0.137490,-0.043986,0.021645,10.265247,15.329788,-18.672775,,,,,,,
1512178134.698797,0.013411,0.442731,-0.706442,0.135566,-0.652399,-1.165246,0.012118,-0.428409,-0.903503,-0.160433,-0.089093,0.095932,9.813038,14.879120,-19.044159,,,,,,,
1512178134.718786,0.013190,0.443357,-0.731735,-0.003444,-0.439300,-1.000215,0.011915,-0.428974,-0.903238,-0.167386,-0.077999,0.085092,8.763065,14.877548,-18.960236,,,,,,,
1512178134.738775,0.014743,0.441614,-0.754055,-0.118226,-0.336085,-0.887451,0.013328,-0.427399,-0.903964,-0.147910,-0.046249,0.041141,8.537479,14.727203,-18.808395,,,,,,,
1512178134.758795,0.015768,0.437503,-0.774494,-0.245188,-0.351368,-0.816849,0.014282,-0.423679,-0.905699,-0.127014,-0.028408,0.016463,7.786076,14.426071,-18.877151,,,,,,,
1512178134.778784,0.015576,0.430480,-0.793129,-0.389314,-0.378446,-0.741211,0.014154,-0.417307,-0.908655,-0.105295,-0.016637,-0.006522,7.712513,14.725967,-18.726379,,,,,,,
1512178134.798803,0.012840,0.421899,-0.810448,-0.417710,-0.520627,-0.706937,0.011714,-0.409494,-0.912237,-0.100566,0.020227,-0.011118,7.416477,15.625519,-18.873413,,,,,,,
1512178134.818792,0.006805,0.414575,-0.828696,-0.305430,-0.682633,-0.799684,0.006229,-0.402801,-0.915266,-0.103565,0.050186,0.066358,6.366444,15.623947,-18.939499,,,,,,,
1512178134.838781,-0.000285,0.410423,-0.849751,-0.153229,-0.765486,-0.918232,-0.000261,-0.398997,-0.916952,-0.102049,0.032847,0.106435,6.141178,15.548615,-18.787613,,,,,,,
1512178134.858801,-0.006699,0.407922,-0.872024,-0.132568,-0.671418,-0.938929,-0.006149,-0.396702,-0.917926,-0.132477,-0.038646,0.236545,4.789906,15.246582,-18.626282,,,,,,,
1512178134.878790,-0.009302,0.404810,-0.894627,-0.183120,-0.450325,-0.965544,-0.008550,-0.393844,-0.919137,-0.127360,-0.058625,0.252877,4.114750,15.245575,-18.920547,,,,,,,
1512178134.898809,-0.006800,0.401154,-0.918448,-0.187091,-0.219463,-1.037292,-0.006260,-0.390481,-0.920589,-0.103252,-0.057471,0.217006,3.664890,15.244888,-18.616714,,,,,,,
1512178134.918798,0.000142,0.398420,-0.943626,-0.097700,-0.056867,-1.084470,0.000131,-0.387963,-0.921675,-0.064340,-0.095573,0.127180,3.441212,15.544556,-18.689667,,,,,,,
1512178134.938818,0.007739,0.398502,-0.968339,0.077094,-0.077023,-1.018043,0.007132,-0.388038,-0.921615,-0.039573,-0.133568,0.044509,3.065952,15.468994,-18.536514,,,,,,,
1512178134.958807,0.012707,0.401620,-0.990420,0.202575,-0.190339,-0.874831,0.011695,-0.390910,-0.920354,-0.020347,-0.173284,0.004110,2.762196,14.643539,-18.609344,,,,,,,
1512178134.978796,0.014203,0.405401,-1.009058,0.188186,-0.296422,-0.718699,0.013051,-0.394388,-0.918851,-0.012059,-0.198722,-0.037478,2.911518,14.493759,-18.610687,,,,,,,
1512178134.998815,0.013709,0.408233,-1.024046,0.127650,-0.299946,-0.603387,0.012582,-0.396988,-0.917737,-0.040033,-0.207733,-0.089221,2.158665,13.892639,-18.904587,,,,,,,
1512178135.018804,0.012252,0.410591,-1.036057,0.132709,-0.316122,-0.523417,0.011233,-0.399151,-0.916816,-0.038256,-0.197437,-0.118874,2.234989,14.192749,-18.980087,,,,,,,
1512178135.038824,0.009953,0.413097,-1.046262,0.123586,-0.332355,-0.423396,0.009115,-0.401448,-0.915836,-0.020514,-0.208019,-0.136181,1.559788,14.116730,-18.674393,,,,,,,
1512178135.058813,0.005001,0.415198,-1.053132,0.093820,-0.427838,-0.239734,0.004576,-0.403371,-0.915025,-0.017791,-0.195781,-0.162093,1.408482,13.816513,-18.598251,,,,,,,
1512178135.078802,-0.004699,0.416750,-1.055698,0.071470,-0.605552,-0.056246,-0.004297,-0.404791,-0.914399,-0.015479,-0.152094,-0.181762,0.507053,13.515152,-18.740738,,,,,,,
1512178135.098822,-0.017661,0.417788,-1.056479,0.031898,-0.671849,-0.051719,-0.016141,-0.405740,-0.913846,-0.045001,-0.085685,-0.126361,0.206043,13.289703,-18.738297,,,,,,,
1512178135.118811,-0.028206,0.417906,-1.059796,-0.005538,-0.528412,-0.230859,-0.025775,-0.405847,-0.913577,-0.025967,-0.049109,-0.073575,-0.168209,13.439148,-18.585037,,,,,,,
1512178135.138830,-0.032296,0.419210,-1.068059,0.118933,-0.277808,-0.461651,-0.029494,-0.407039,-0.912934,0.035094,-0.055211,-0.063583,-0.693584,13.363358,-18.655609,,,,,,,
1512178135.158819,-0.030348,0.425412,-1.080974,0.403689,-0.074169,-0.589011,-0.027639,-0.412696,-0.910449,0.091619,-0.076714,-0.025480,-1.145275,12.987686,-18.651962,,,,,,,
1512178135.178839,-0.023690,0.436343,-1.095330,0.572670,0.161013,-0.545232,-0.021468,-0.422628,-0.906049,0.098433,-0.136439,0.016492,-1.221935,12.612564,-18.576492,,,,,,,
1512178135.198828,-0.014454,0.446433,-1.106701,0.397936,0.322721,-0.349982,-0.013037,-0.431751,-0.901898,0.081274,-0.160306,0.026288,-1.150829,11.787674,-18.952515,,,,,,,
1512178135.218817,-0.003896,0.448238,-1.112528,-0.131955,0.526475,-0.076572,-0.003511,-0.433379,-0.901204,0.083818,-0.146440,0.017522,-0.925457,11.863007,-18.879395,,,,,,,
1512178135.238836,0.007360,0.437330,-1.113448,-0.784923,0.582830,0.087929,0.006667,-0.423522,-0.905861,0.074830,-0.078690,-0.074135,-0.475155,11.938675,-18.958176,,,,,,,
1512178135.258825,0.016745,0.416317,-1.112345,-1.151161,0.493547,0.118557,0.015314,-0.404395,-0.914456,0.088141,0.017341,-0.135670,-0.023205,12.389359,-19.111786,,,,,,,
1512178135.278845,0.024800,0.395231,-1.112853,-0.918467,0.373500,-0.034133,0.022886,-0.385021,-0.922623,0.118853,0.077358,-0.147475,0.734226,14.040497,-19.117401,,,,,,,
1512178135.298834,0.030090,0.384927,-1.116949,-0.241888,0.120535,-0.154206,0.027884,-0.375492,-0.926406,0.142877,0.083301,-0.081346,0.659901,14.190384,-19.116699,,,,,,,
1512178135.318823,0.030650,0.388163,-1.120268,0.363979,-0.054043,0.010678,0.028366,-0.378489,-0.925171,0.119904,0.033655,0.065552,0.884602,14.115723,-19.043640,,,,,,,
1512178135.338842,0.028112,0.398100,-1.118437,0.504761,-0.046857,0.265397,0.025910,-0.387668,-0.921434,0.054794,-0.012967,0.193895,0.884907,14.190720,-19.118607,,,,,,,
1512178135.358831,0.026414,0.405116,-1.112625,0.204554,0.139393,0.377894,0.024273,-0.394125,-0.918736,0.006412,0.022314,0.255970,0.658207,13.815384,-19.116867,,,,,,,
1512178135.378851,0.028464,0.403901,-1.107186,-0.224151,0.288512,0.265598,0.026170,-0.393008,-0.919162,-0.009294,0.066394,0.233829,1.108784,13.966049,-19.345627,,,,,,,
1512178135.398840,0.032812,0.396157,-1.105104,-0.453863,0.270321,0.101229,0.030266,-0.385876,-0.922054,0.014732,0.082134,0.182155,1.409046,14.041504,-19.498138,,,,,,,
1512178135.418800,0.036108,0.387788,-1.104973,-0.362711,0.139152,0.062651,0.033419,-0.378141,-0.925144,0.032163,0.071791,0.162433,1.561100,14.491730,-19.424210,,,,,,,
1512178135.438819,0.036515,0.384204,-1.104086,-0.063619,0.037957,0.150852,0.033846,-0.374821,-0.926479,0.039427,0.026677,0.188914,1.637455,14.791855,-19.424713,,,,,,,
1512178135.458808,0.034432,0.386591,-1.101654,0.191329,-0.019693,0.332377,0.031884,-0.377033,-0.925650,0.008185,-0.012280,0.240348,1.639103,15.166855,-19.499527,,,,,,,
1512178135.478828,0.030637,0.391114,-1.094536,0.189680,-0.025230,0.432545,0.028319,-0.381218,-0.924051,-0.019881,-0.020973,0.298883,1.787724,14.867081,-19.575943,,,,,,,
1512178135.498817,0.027303,0.392423,-1.087256,-0.042958,0.028983,0.384588,0.025225,-0.382428,-0.923640,-0.055895,-0.032260,0.306361,1.561436,14.566742,-19.424179,,,,,,,
1512178135.518837,0.025640,0.388452,-1.082044,-0.292414,0.049151,0.256315,0.023727,-0.378757,-0.925192,-0.064331,-0.032834,0.240774,1.412388,14.791519,-19.572784,,,,,,,
1512178135.538826,0.024320,0.381391,-1.079861,-0.368037,-0.045761,0.118434,0.022570,-0.372212,-0.927873,-0.048250,-0.045193,0.145768,1.113773,15.091064,-19.495102,,,,,,,
1512178135.558815,0.021261,0.374981,-1.079898,-0.282634,-0.164043,0.041440,0.019782,-0.366255,-0.930304,-0.034171,-0.082491,0.096701,1.341206,15.616409,-19.346771,,,,,,,
1512178135.578834,0.016760,0.371048,-1.080847,-0.143832,-0.233238,0.024017,0.015618,-0.362593,-0.931816,-0.056741,-0.119997,0.063393,1.266773,15.766296,-19.571060,,,,,,,
1512178135.598823,0.011436,0.369873,-1.082189,-0.008976,-0.284235,-0.010451,0.010662,-0.361497,-0.932312,-0.078808,-0.128997,-0.001084,1.042179,15.840958,-19.419128,,,,,,,
1512178135.618843,0.005823,0.371099,-1.085392,0.099403,-0.322308,-0.119884,0.005426,-0.362640,-0.931913,-0.080973,-0.136490,-0.059344,0.890827,15.540726,-19.417984,,,,,,,
1512178135.638832,0.000562,0.374160,-1.090417,0.180280,-0.334765,-0.241353,0.000523,-0.365490,-0.930814,-0.096745,-0.151905,-0.078081,0.137897,14.939606,-19.861893,,,,,,,
1512178135.658821,-0.003411,0.378282,-1.097167,0.210971,-0.310985,-0.354890,-0.003170,-0.369324,-0.929295,-0.096608,-0.163146,-0.101360,0.290226,15.389832,-19.262955,,,,,,,
1512178135.678840,-0.005486,0.382256,-1.105839,0.186698,-0.247850,-0.431780,-0.005090,-0.373014,-0.927811,-0.080603,-0.174471,-0.145752,-0.162167,14.864151,-19.334366,,,,,,,
1512178135.698829,-0.006005,0.385840,-1.115809,0.170410,-0.185835,-0.475509,-0.005564,-0.376338,-0.926465,-0.060720,-0.182439,-0.203799,-0.460781,15.163696,-19.256683,,,,,,,
1512178135.718849,-0.004909,0.389195,-1.126392,0.164599,-0.116352,-0.508403,-0.004542,-0.379444,-0.925203,-0.036016,-0.168911,-0.261885,-0.687145,14.863358,-19.254913,,,,,,,
1512178135.738838,-0.003017,0.393710,-1.138473,0.281040,-0.197190,-0.591214,-0.002786,-0.383617,-0.923487,-0.011191,-0.141117,-0.328649,-0.689846,14.263351,-19.255188,,,,,,,
1512178135.758857,-0.005854,0.401691,-1.151409,0.445879,-0.504593,-0.581364,-0.005388,-0.390975,-0.920385,-0.042311,-0.123399,-0.295008,-0.917583,13.663010,-19.328552,,,,,,,
1512178135.778846,-0.014127,0.410113,-1.163116,0.354243,-0.686437,-0.528958,-0.012955,-0.398713,-0.916984,-0.095566,-0.119201,-0.179543,-1.967922,13.586441,-19.319656,,,,,,,
1512178135.798835,-0.019624,0.413038,-1.175282,-0.011113,-0.334362,-0.594859,-0.017973,-0.401394,-0.915729,-0.127795,-0.078434,-0.106809,-2.269115,13.285995,-19.017258,,,,,,,
1512178135.818855,-0.013662,0.409332,-1.191898,-0.263226,0.144083,-0.733301,-0.012533,-0.397997,-0.917301,-0.089762,0.006578,-0.209393,-2.194561,13.211105,-19.242920,,,,,,,
1512178135.838844,-0.003042,0.405682,-1.211288,-0.093957,0.141367,-0.848123,-0.002795,-0.394645,-0.918829,-0.003934,0.109123,-0.260279,-2.418591,13.435760,-19.315903,,,,,,,
1512178135.858863,0.003104,0.409246,-1.232588,0.345206,-0.195358,-0.926084,0.002847,-0.397917,-0.917416,0.009741,0.137496,-0.156848,-2.571178,12.835541,-19.089905,,,,,,,
1512178135.878852,0.005875,0.419493,-1.253415,0.573710,-0.270930,-0.887858,0.005366,-0.407298,-0.913279,-0.040873,0.043376,0.023203,-2.726696,11.635300,-19.314194,,,,,,,
1512178135.898841,0.009377,0.429872,-1.270622,0.452405,-0.101643,-0.699268,0.008524,-0.416754,-0.908979,-0.043970,-0.022668,0.144711,-2.726543,11.635300,-19.014191,,,,,,,
1512178135.918861,0.015788,0.433968,-1.282435,0.039925,0.166387,-0.432466,0.014324,-0.420474,-0.907191,-0.056575,-0.022458,0.173258,-2.652676,11.410416,-19.239929,,,,,,,
1512178135.938850,0.023265,0.428600,-1.289729,-0.428845,0.225260,-0.318590,0.021158,-0.415598,-0.909302,-0.037149,0.049921,0.128647,-2.500759,11.860641,-19.466003,,,,,,,
1512178135.958869,0.029606,0.416561,-1.297234,-0.638837,0.106510,-0.390273,0.027070,-0.404618,-0.914084,-0.005723,0.100617,0.079551,-2.500683,11.860641,-19.315994,,,,,,,
1512178135.978859,0.032347,0.405638,-1.306446,-0.419254,-0.140822,-0.464705,0.029717,-0.394605,-0.918370,0.027442,0.121381,0.083470,-2.573925,12.235535,-19.165176,,,,,,,
1512178135.998878,0.030933,0.402603,-1.316548,0.041980,-0.326015,-0.452274,0.028455,-0.391815,-0.919603,0.037280,0.099151,0.146196,-2.572231,12.610535,-19.165009,,,,,,,
1512178136.018867,0.026841,0.408773,-1.324739,0.469158,-0.376922,-0.306608,0.024627,-0.397484,-0.917278,0.025315,0.055504,0.237804,-2.950527,11.859970,-19.012177,,,,,,,
1512178136.038856,0.022319,0.420866,-1.330185,0.656248,-0.263737,-0.139331,0.020370,-0.408551,-0.912507,-0.002746,0.029660,0.338655,-3.327679,11.409409,-19.234192,,,,,,,
1512178136.058876,0.021237,0.433448,-1.334223,0.592748,-0.007563,-0.090321,0.019271,-0.420002,-0.907318,-0.042739,0.028813,0.360320,-3.705669,10.733841,-19.156311,,,,,,,
1512178136.078865,0.023967,0.442901,-1.338425,0.392864,0.115030,-0.116241,0.021652,-0.428562,-0.903252,-0.040466,0.038761,0.290810,-3.856945,10.433609,-19.005188,,,,,,,
1512178136.098884,0.027966,0.447873,-1.342848,0.176679,0.151036,-0.128846,0.025204,-0.433049,-0.901017,-0.006207,0.020802,0.207795,-3.407619,10.284286,-19.009079,,,,,,,
1512178136.118873,0.033273,0.450238,-1.347476,0.109412,0.238507,-0.117788,0.029951,-0.435180,-0.899844,-0.002211,-0.026643,0.131915,-3.484081,9.984161,-19.233582,,,,,,,
1512178136.138862,0.039671,0.453456,-1.349682,0.214406,0.329137,0.049289,0.035652,-0.438075,-0.898230,-0.009499,-0.038121,0.028449,-3.257992,10.209503,-19.085388,,,,,,,
1512178136.158882,0.044280,0.460374,-1.346189,0.411737,0.273524,0.233182,0.039657,-0.444283,-0.895007,0.011186,-0.018241,-0.059125,-2.735851,9.610291,-19.390121,,,,,,,
1512178136.178871,0.044901,0.470076,-1.339745,0.475665,0.127032,0.357260,0.040017,-0.452954,-0.890634,0.008277,-0.035083,-0.103018,-2.962536,9.234955,-19.388382,,,,,,,
1512178136.198890,0.042338,0.478203,-1.330360,0.308411,0.074200,0.477251,0.037577,-0.460185,-0.887027,-0.035288,-0.052007,-0.125180,-2.290951,8.485962,-19.469467,,,,,,,
1512178136.218879,0.038928,0.481167,-1.319045,0.010472,0.122815,0.510416,0.034499,-0.462814,-0.885783,-0.030883,-0.016113,-0.150945,-2.363277,9.085846,-19.543549,,,,,,,
1512178136.238899,0.038148,0.478912,-1.308859,-0.178240,0.243477,0.388705,0.033848,-0.460814,-0.886850,0.018414,0.016966,-0.207266,-2.513958,8.935623,-19.542343,,,,,,,
1512178136.258888,0.040225,0.477379,-1.303170,0.019367,0.194006,0.168588,0.035719,-0.459453,-0.887483,0.105318,0.007030,-0.256637,-1.837337,9.311646,-19.697906,,,,,,,
1512178136.278877,0.041362,0.482858,-1.300983,0.415740,0.047318,0.108790,0.036623,-0.464313,-0.884913,0.112822,-0.036130,-0.185827,-1.836300,9.536636,-19.622803,,,,,,,
1512178136.298896,0.038453,0.493605,-1.296933,0.541988,-0.107690,0.267858,0.033855,-0.473804,-0.879979,0.075871,-0.103116,-0.078502,-1.837902,9.161636,-19.472977,,,,,,,
1512178136.318885,0.030574,0.500975,-1.287803,0.178604,-0.195253,0.513879,0.026813,-0.480281,-0.876704,0.020352,-0.132359,0.024836,-1.989971,8.711411,-19.546906,,,,,,,
1512178136.338905,0.021034,0.496270,-1.272359,-0.527513,-0.020528,0.739855,0.018496,-0.476148,-0.879169,-0.016649,-0.103655,0.056354,-2.289928,8.710953,-19.469360,,,,,,,
1512178136.358894,0.015356,0.477989,-1.255520,-1.129937,0.176266,0.691302,0.013634,-0.459995,-0.887816,0.021186,0.000522,-0.023210,-1.836895,9.386642,-19.472870,,,,,,,
1512178136.378883,0.012923,0.451853,-1.241511,-1.374026,0.168679,0.559814,0.011626,-0.436633,-0.899563,0.046892,0.076770,-0.114215,-2.132092,10.436203,-19.319839,,,,,,,
1512178136.398902,0.009358,0.426065,-1.230912,-1.199994,-0.030501,0.404933,0.008521,-0.413291,-0.910558,0.053918,0.112098,-0.139109,-2.052776,11.411316,-19.470032,,,,,,,
1512178136.418861,0.004517,0.406611,-1.223696,-0.829118,-0.106600,0.277847,0.004148,-0.395499,-0.918456,0.048403,0.111868,-0.043427,-1.971401,12.836441,-19.544998,,,,,,,
1512178136.438881,0.002306,0.395321,-1.219274,-0.404774,0.055595,0.153435,0.002128,-0.385105,-0.922870,0.037300,0.093250,0.117145,-2.118176,13.511215,-19.168411,,,,,,,
1512178136.458870,0.007696,0.392255,-1.217587,-0.013417,0.464474,0.036864,0.007111,-0.382273,-0.924021,0.039504,0.070292,0.253306,-2.041866,13.811325,-19.243927,,,,,,,
1512178136.478890,0.021285,0.394700,-1.217115,0.150880,0.792648,0.045718,0.019647,-0.384531,-0.922902,0.055350,0.009379,0.248647,-1.516979,13.812119,-19.473389,,,,,,,
1512178136.498879,0.036508,0.395613,-1.214493,-0.053603,0.769669,0.161005,0.033681,-0.385374,-0.922145,0.095500,-0.010225,0.148860,-0.616680,13.888474,-19.556000,,,,,,,
1512178136.518868,0.045584,0.391328,-1.210676,-0.304387,0.329201,0.155841,0.042124,-0.381416,-0.923443,0.108694,0.032661,0.072384,-0.091747,13.889252,-19.710464,,,,,,,
1512178136.538887,0.042842,0.384796,-1.208397,-0.310444,-0.322307,0.103381,0.039697,-0.375370,-0.926024,0.095572,0.073871,0.101576,0.210606,14.414703,-19.712769,,,,,,,
1512178136.558876,0.030843,0.381500,-1.209424,-0.059608,-0.657272,0.067470,0.028621,-0.372313,-0.927665,0.032033,0.046782,0.216484,-0.762966,14.713242,-19.554337,,,,,,,
1512178136.578896,0.016333,0.383963,-1.209096,0.213605,-0.685780,0.112908,0.015143,-0.374598,-0.927063,-0.022543,-0.023947,0.302612,-1.138149,14.637695,-19.251190,,,,,,,
1512178136.598885,0.003368,0.389753,-1.206939,0.311388,-0.484995,0.204569,0.003116,-0.379959,-0.924997,-0.082583,-0.063171,0.344156,-1.589870,14.262009,-19.322540,,,,,,,
1512178136.618874,-0.003992,0.396227,-1.204038,0.330027,-0.163401,0.189971,-0.003683,-0.385940,-0.922516,-0.122400,-0.074143,0.282455,-2.040066,14.186340,-19.018753,,,,,,,
1512178136.638893,-0.004823,0.402882,-1.202559,0.329462,0.120900,0.108866,-0.004437,-0.392071,-0.919923,-0.122395,-0.078830,0.123964,-2.267239,13.735992,-19.317047,,,,,,,
1512178136.658882,-0.001407,0.409304,-1.202427,0.315268,0.222428,0.068499,-0.001290,-0.397971,-0.917396,-0.104346,-0.098764,-0.066780,-1.593548,13.436996,-19.247925,,,,,,,
1512178136.678902,0.000488,0.414826,-1.201723,0.241563,0.058758,0.135094,0.000447,-0.403030,-0.915186,-0.084843,-0.115951,-0.228461,-1.817959,13.586670,-19.395935,,,,,,,
1512178136.698891,-0.003322,0.417570,-1.198835,0.067973,-0.215181,0.239294,-0.003037,-0.405540,-0.914071,-0.085647,-0.113427,-0.330481,-1.668972,13.361893,-19.397324,,,,,,,
1512178136.718910,-0.013513,0.416826,-1.194922,-0.092115,-0.479261,0.238191,-0.012356,-0.404860,-0.914294,-0.120029,-0.060167,-0.343778,-2.118923,13.361221,-19.318497,,,,,,,
1512178136.738899,-0.025701,0.413707,-1.193477,-0.173497,-0.580519,0.060758,-0.023530,-0.402006,-0.915334,-0.144942,-0.012041,-0.344218,-2.567547,13.660538,-19.239532,,,,,,,
1512178136.758888,-0.036628,0.411292,-1.198803,-0.070190,-0.651166,-0.323902,-0.033565,-0.399794,-0.915990,-0.134052,0.012495,-0.305995,-3.016415,13.884872,-19.010605,,,,,,,
1512178136.778908,-0.045189,0.413195,-1.212824,0.154483,-0.673588,-0.697045,-0.041371,-0.401538,-0.914907,-0.121043,-0.016553,-0.200358,-3.993786,13.358398,-19.002563,,,,,,,
1512178136.798897,-0.048805,0.418161,-1.231453,0.207626,-0.367795,-0.801817,-0.044582,-0.406080,-0.912748,-0.133092,-0.099184,-0.094499,-4.520443,12.982620,-18.923279,,,,,,,
1512178136.818916,-0.041747,0.421052,-1.249626,0.031998,0.251337,-0.723319,-0.038090,-0.408721,-0.911864,-0.104091,-0.105684,-0.136003,-4.746639,12.682281,-18.621506,,,,,,,
1512178136.838905,-0.026255,0.419714,-1.266815,-0.143672,0.502098,-0.724992,-0.023973,-0.407499,-0.912890,-0.000685,0.013608,-0.268842,-4.072094,12.608292,-18.852280,,,,,,,
1512178136.858894,-0.011552,0.417335,-1.286213,-0.092439,0.248228,-0.871186,-0.010560,-0.405326,-0.914110,0.056199,0.093757,-0.277830,-3.846859,12.683624,-19.079147,,,,,,,
1512178136.878914,-0.001862,0.417900,-1.307798,0.087113,0.023194,-0.908808,-0.001702,-0.405842,-0.913941,0.022148,0.055546,-0.128433,-3.848171,12.383621,-19.004288,,,,,,,
1512178136.898903,0.006315,0.420691,-1.326808,0.153209,0.085926,-0.712546,0.005764,-0.408392,-0.912788,-0.004162,-0.014567,0.020774,-3.851391,11.708618,-19.379593,,,,,,,
1512178136.918923,0.014003,0.422049,-1.339718,-0.006392,0.194030,-0.402124,0.012774,-0.409631,-0.912161,0.005201,-0.013999,0.096396,-3.698879,12.233841,-19.080627,,,,,,,
1512178136.938912,0.021038,0.418282,-1.346886,-0.287700,0.243430,-0.214140,0.019223,-0.406191,-0.913585,0.033405,0.031603,0.108425,-3.551327,11.709061,-19.232147,,,,,,,
1512178136.958901,0.027306,0.410232,-1.352591,-0.431606,0.200491,-0.216372,0.025037,-0.398822,-0.916686,0.045855,0.083362,0.094618,-3.398922,12.234299,-19.158173,,,,,,,
1512178136.978920,0.031546,0.402668,-1.359258,-0.302693,0.047004,-0.283264,0.029018,-0.391875,-0.919560,0.061039,0.120100,0.101262,-3.174740,12.084625,-19.460159,,,,,,,
1512178136.998909,0.032113,0.400112,-1.367559,0.007308,-0.213042,-0.347908,0.029572,-0.389521,-0.920542,0.075958,0.117411,0.142679,-3.171963,12.684631,-19.309875,,,,,,,
1512178137.018929,0.028014,0.403872,-1.376285,0.295415,-0.406021,-0.309225,0.025757,-0.392982,-0.919184,0.070327,0.074485,0.233897,-3.247952,12.459518,-19.234344,,,,,,,
1512178137.038918,0.021806,0.411673,-1.382740,0.439255,-0.397522,-0.174921,0.019983,-0.400143,-0.916234,0.033896,0.021802,0.330785,-3.774029,12.233734,-19.379990,,,,,,,
1512178137.058937,0.016748,0.420765,-1.386213,0.451014,-0.216178,-0.038730,0.015286,-0.408459,-0.912648,-0.007519,-0.002231,0.362706,-4.301586,11.632950,-19.075806,,,,,,,
1512178137.078926,0.015052,0.429044,-1.387493,0.389328,-0.009173,0.027192,0.013687,-0.416002,-0.909260,-0.031128,0.015657,0.319477,-4.303280,11.257935,-19.075974,,,,,,,
1512178137.098915,0.016103,0.436213,-1.388559,0.338511,0.080509,0.009709,0.014594,-0.422510,-0.906240,-0.007972,0.022913,0.225026,-3.928570,11.183502,-19.004196,,,,,,,
1512178137.118935,0.017466,0.442422,-1.388228,0.298468,0.065423,0.045322,0.015783,-0.428129,-0.903578,-0.000341,-0.013658,0.126479,-4.155529,10.733154,-18.852509,,,,,,,
1512178137.138924,0.017214,0.448750,-1.385436,0.336620,0.034230,0.187556,0.015509,-0.433839,-0.900855,-0.020346,-0.021971,0.065208,-4.007961,10.208389,-19.004013,,,,,,,
1512178137.158943,0.015740,0.456461,-1.379589,0.402812,0.081077,0.312337,0.014128,-0.440774,-0.897506,-0.025572,-0.013297,0.047378,-4.083035,10.208267,-19.153366,,,,,,,
1512178137.178932,0.014962,0.464447,-1.370701,0.370387,0.199286,0.475390,0.013377,-0.447928,-0.893968,-0.010569,-0.062021,-0.041258,-3.785427,9.683716,-19.231171,,,,,,,
1512178137.198921,0.012941,0.469699,-1.356080,0.154336,0.236809,0.778348,0.011540,-0.452618,-0.891628,-0.005558,-0.072009,-0.122486,-3.862530,9.233597,-19.380737,,,,,,,
1512178137.218941,0.008086,0.468375,-1.335056,-0.220291,0.213369,0.997776,0.007215,-0.451437,-0.892272,-0.008802,-0.012659,-0.217835,-3.409313,9.909286,-19.009247,,,,,,,
1512178137.238930,0.000960,0.460242,-1.314326,-0.503438,0.014575,0.833073,0.000860,-0.444165,-0.895943,-0.011099,0.061078,-0.304542,-3.258190,10.209503,-19.460388,,,,,,,
1512178137.258949,-0.009609,0.448117,-1.300435,-0.656013,-0.369550,0.499048,-0.008660,-0.433269,-0.901222,0.034875,0.066051,-0.293312,-3.402966,11.334290,-19.158585,,,,,,,
1512178137.278938,-0.022423,0.433493,-1.292887,-0.762798,-0.480434,0.310555,-0.020347,-0.420043,-0.907275,0.013740,-0.033875,-0.178052,-3.551357,11.709061,-19.307144,,,,,,,
1512178137.298958,-0.031991,0.417257,-1.284579,-0.815629,-0.171086,0.492100,-0.029241,-0.405254,-0.913735,-0.024226,-0.107456,-0.102027,-4.222500,12.533066,-19.001022,,,,,,,
1512178137.318947,-0.036521,0.400291,-1.270201,-0.816954,0.160546,0.782135,-0.033627,-0.389686,-0.920333,-0.025898,-0.055535,-0.148042,-4.371716,12.682831,-18.774689,,,,,,,
1512178137.338936,-0.038223,0.384540,-1.254455,-0.716261,0.232445,0.691095,-0.035423,-0.375133,-0.926293,0.014274,0.074535,-0.186073,-4.064327,14.333298,-18.851471,,,,,,,
1512178137.358955,-0.037758,0.372633,-1.244988,-0.467766,0.174862,0.294725,-0.035159,-0.364069,-0.930707,0.056765,0.152185,-0.129962,-3.836590,14.933640,-18.778107,,,,,,,
1512178137.378944,-0.035317,0.368363,-1.244626,-0.052898,0.113257,-0.107784,-0.032941,-0.360088,-0.932336,0.073972,0.135265,-0.028175,-3.461620,14.934204,-18.856293,,,,,,,
1512178137.398964,-0.031675,0.371490,-1.248215,0.239083,0.111681,-0.165391,-0.029509,-0.363004,-0.931319,0.072036,0.095304,0.033843,-3.309292,15.459427,-18.932327,,,,,,,
1512178137.418956,-0.028900,0.376103,-1.249307,0.165452,0.140020,0.035130,-0.026877,-0.367299,-0.929714,0.116324,-0.068111,0.158184,-3.462490,14.784195,-19.231354,,,,,,,
1512178137.438945,-0.027022,0.374184,-1.244428,-0.273454,0.202832,0.342409,-0.025149,-0.365514,-0.930465,0.109653,-0.096843,0.196075,-3.160976,15.084656,-18.933777,,,,,,,
1512178137.458965,-0.025869,0.362763,-1.235851,-0.692429,0.190314,0.407723,-0.024183,-0.354858,-0.934606,0.076994,-0.007370,0.164297,-2.934673,15.384995,-19.010544,,,,,,,
1512178137.478954,-0.025511,0.347811,-1.229580,-0.713304,0.094459,0.246109,-0.023981,-0.340840,-0.939815,0.066858,0.067250,0.146586,-2.632534,15.835449,-18.787888,,,,,,,
1512178137.498973,-0.026674,0.337673,-1.228561,-0.344687,-0.082996,0.057875,-0.025164,-0.331292,-0.943192,0.057818,0.075463,0.164200,-2.629787,16.435455,-18.712616,,,,,,,
1512178137.518962,-0.029890,0.336669,-1.229864,0.118786,-0.195410,0.003434,-0.028207,-0.330345,-0.943438,0.041437,0.018455,0.224459,-2.929836,16.434998,-18.785065,,,,,,,
1512178137.538982,-0.034649,0.342662,-1.228086,0.383369,-0.204847,0.120237,-0.032628,-0.335995,-0.941298,0.006886,-0.035831,0.271544,-2.927013,17.035004,-18.559784,,,,,,,
1512178137.558971,-0.039327,0.351392,-1.224034,0.461039,-0.131171,0.198378,-0.036915,-0.344205,-0.938168,-0.045636,-0.053348,0.286236,-2.928738,16.660004,-18.634964,,,,,,,
1512178137.578960,-0.043119,0.360304,-1.219027,0.438302,-0.096006,0.220555,-0.040338,-0.352559,-0.934919,-0.064810,-0.042476,0.246824,-2.930843,16.209991,-18.785172,,,,,,,
1512178137.598979,-0.046814,0.367686,-1.214424,0.338921,-0.120619,0.169994,-0.043669,-0.359457,-0.932139,-0.053820,-0.037089,0.174509,-3.157009,15.984665,-19.083359,,,,,,,
1512178137.618968,-0.050965,0.373233,-1.211619,0.254735,-0.172956,0.100363,-0.047436,-0.364627,-0.929944,-0.028065,-0.073651,0.091244,-3.383877,15.534317,-18.781662,,,,,,,
1512178137.638988,-0.055359,0.377326,-1.208191,0.185970,-0.112370,0.200854,-0.051438,-0.368436,-0.928228,-0.082351,-0.103976,-0.033701,-3.461056,15.084198,-19.081223,,,,,,,
1512178137.658977,-0.058919,0.380691,-1.201618,0.206277,-0.060253,0.329256,-0.054670,-0.371562,-0.926796,-0.140078,-0.051992,-0.161705,-3.608624,15.608978,-18.929703,,,,,,,
1512178137.678966,-0.063878,0.385695,-1.196549,0.293940,-0.161430,0.244890,-0.059145,-0.376203,-0.924647,-0.118406,0.039289,-0.255529,-3.160717,15.084656,-18.408768,,,,,,,
1512178137.698985,-0.070487,0.391129,-1.194997,0.261846,-0.339484,0.048715,-0.065110,-0.381233,-0.922183,-0.118881,0.055457,-0.314832,-4.062893,14.633301,-18.701340,,,,,,,
1512178137.718974,-0.078595,0.396052,-1.198723,0.235369,-0.508819,-0.228366,-0.072437,-0.385779,-0.919742,-0.131909,0.072211,-0.326336,-4.663494,14.482407,-18.546310,,,,,,,
1512178137.738994,-0.087685,0.402348,-1.209628,0.323260,-0.699182,-0.590217,-0.080579,-0.391580,-0.916608,-0.149172,0.072686,-0.262667,-5.415295,14.106277,-18.765106,,,,,,,
1512178137.758983,-0.095839,0.411599,-1.227512,0.406859,-0.710236,-0.875812,-0.087701,-0.400075,-0.912275,-0.159324,-0.000681,-0.139025,-5.642178,13.655930,-18.463409,,,,,,,
1512178137.779002,-0.097142,0.419277,-1.248886,0.183396,-0.248981,-0.942473,-0.088589,-0.407101,-0.909076,-0.172489,-0.092030,-0.047848,-5.868786,13.280594,-18.311661,,,,,,,
1512178137.798991,-0.085749,0.419533,-1.269972,-0.223813,0.414627,-0.846921,-0.078217,-0.407334,-0.909923,-0.127014,-0.095428,-0.128453,-5.795177,12.980698,-18.387436,,,,,,,
1512178137.818980,-0.066740,0.413008,-1.290223,-0.455135,0.594782,-0.838985,-0.061083,-0.401366,-0.913878,-0.055540,0.021025,-0.248110,-5.869122,13.205597,-18.311691,,,,,,,
1512178137.839000,-0.048244,0.404777,-1.310245,-0.437665,0.461474,-0.935141,-0.044328,-0.393813,-0.918120,-0.008696,0.091903,-0.261735,-5.418224,13.431274,-18.540421,,,,,,,
1512178137.858989,-0.032522,0.398844,-1.331979,-0.265064,0.306978,-1.001406,-0.029964,-0.388353,-0.921022,-0.009343,0.062136,-0.198744,-4.818569,13.357162,-18.545547,,,,,,,
1512178137.879009,-0.019932,0.395970,-1.351757,-0.121954,0.223529,-0.827991,-0.018388,-0.385703,-0.922439,-0.022826,0.007941,-0.087098,-4.519680,13.132614,-18.773209,,,,,,,
1512178137.898998,-0.010405,0.394277,-1.366741,-0.096644,0.172951,-0.619919,-0.009606,-0.384141,-0.923224,-0.013404,0.017838,0.012884,-4.669277,13.207397,-18.621902,,,,,,,
1512178137.918987,-0.002569,0.391584,-1.378863,-0.166175,0.157739,-0.541022,-0.002375,-0.381653,-0.924302,-0.002416,0.054962,0.080064,-4.520367,12.982620,-18.773270,,,,,,,
1512178137.939006,0.005019,0.387812,-1.390596,-0.178858,0.147056,-0.547637,0.004646,-0.378164,-0.925726,0.024376,0.075567,0.115424,-4.520031,13.057617,-18.773239,,,,,,,
1512178137.958995,0.011152,0.385944,-1.402452,-0.016884,0.042621,-0.548853,0.010331,-0.376434,-0.926385,0.019118,0.087860,0.166772,-4.522243,12.532608,-18.473480,,,,,,,
1512178137.979015,0.014817,0.388737,-1.414292,0.247350,-0.094784,-0.547639,0.013711,-0.379020,-0.925286,0.022331,0.092475,0.228143,-4.746105,12.832275,-18.921432,,,,,,,
1512178137.999004,0.016301,0.396219,-1.426263,0.447655,-0.177797,-0.543956,0.015037,-0.385933,-0.922404,0.025704,0.070396,0.301035,-4.522167,12.607620,-18.998444,,,,,,,
1512178138.019023,0.016622,0.405889,-1.438693,0.500861,-0.216304,-0.475090,0.015271,-0.394835,-0.918624,0.013950,0.038924,0.335006,-4.749340,12.082275,-18.621780,,,,,,,
1512178138.039012,0.016179,0.415067,-1.449173,0.433064,-0.171756,-0.370380,0.014804,-0.403252,-0.914968,-0.026691,0.018227,0.343328,-5.053051,11.256821,-18.619614,,,,,,,
1512178138.059001,0.017660,0.421947,-1.457051,0.301270,0.012620,-0.255445,0.016111,-0.409538,-0.912150,-0.034970,0.008796,0.287516,-5.053799,11.106812,-18.769669,,,,,,,
1512178138.079021,0.022077,0.426864,-1.462420,0.235308,0.182234,-0.190782,0.020094,-0.414018,-0.910046,-0.023314,0.002611,0.172390,-5.434322,9.906250,-18.992035,,,,,,,
1512178138.099010,0.027456,0.431876,-1.465391,0.279373,0.182086,-0.083539,0.024932,-0.418576,-0.907839,-0.026976,-0.009540,0.032076,-4.532894,10.207596,-18.849564,,,,,,,
1512178138.119029,0.028098,0.438719,-1.464853,0.373982,-0.045691,0.115324,0.025434,-0.424780,-0.904938,-0.008115,-0.017206,-0.073074,-4.533566,10.057587,-18.849625,,,,,,,
1512178138.139018,0.022712,0.447207,-1.459835,0.439008,-0.205117,0.302275,0.020477,-0.432449,-0.901425,-0.020080,-0.008545,-0.085621,-4.984921,9.756912,-18.845947,,,,,,,
1512178138.159007,0.015614,0.455978,-1.451382,0.407962,-0.125332,0.442820,0.014018,-0.440341,-0.897720,-0.043865,-0.013181,-0.070816,-5.059872,9.756805,-18.770294,,,,,,,
1512178138.179027,0.009426,0.462580,-1.439374,0.259366,0.003380,0.604225,0.008435,-0.446258,-0.894863,-0.035382,-0.003800,-0.088001,-5.059795,9.756805,-18.620300,,,,,,,
1512178138.199016,0.003483,0.465354,-1.423859,0.056758,0.059419,0.740073,0.003112,-0.448739,-0.893656,0.001725,0.016427,-0.144689,-4.987240,9.231918,-18.771179,,,,,,,
1512178138.219035,-0.004115,0.463979,-1.407368,-0.145405,-0.061542,0.710069,-0.003680,-0.447510,-0.894270,0.056139,0.045548,-0.167147,-4.986187,9.456909,-18.696075,,,,,,,
1512178138.239024,-0.013994,0.458283,-1.393149,-0.367754,-0.243275,0.609205,-0.012550,-0.442409,-0.896725,0.088096,0.029597,-0.112476,-5.210217,9.681580,-18.769058,,,,,,,
1512178138.259013,-0.024667,0.446378,-1.379139,-0.729203,-0.159709,0.746046,-0.022247,-0.431701,-0.901741,0.058426,-0.043244,-0.065300,-5.581799,10.431030,-18.690521,,,,,,,
1512178138.279033,-0.033390,0.425468,-1.361539,-1.196403,0.032481,0.964881,-0.030407,-0.412747,-0.910337,0.038952,-0.055927,-0.130206,-5.502605,11.331146,-18.390747,,,,,,,
1512178138.299022,-0.040878,0.396410,-1.343330,-1.516274,-0.017017,0.901442,-0.037697,-0.386110,-0.921682,0.058434,0.065370,-0.220500,-5.498699,12.231155,-18.690338,,,,,,,
1512178138.319041,-0.047739,0.365384,-1.329445,-1.469363,-0.118841,0.573423,-0.044571,-0.357308,-0.932922,0.053131,0.166558,-0.184174,-5.189068,14.331604,-18.316910,,,,,,,
1512178138.339030,-0.051847,0.340486,-1.324124,-1.055243,-0.084273,0.157383,-0.048849,-0.333945,-0.941325,0.045385,0.189033,-0.076772,-5.633221,15.605942,-18.087494,,,,,,,
1512178138.359050,-0.050538,0.326619,-1.325944,-0.474466,0.124435,-0.142635,-0.047846,-0.320843,-0.945923,0.063287,0.134838,0.062271,-5.554501,16.431061,-18.087753,,,,,,,
1512178138.379039,-0.043592,0.323685,-1.330102,0.000842,0.375204,-0.186048,-0.041315,-0.318063,-0.947169,0.104379,0.013284,0.142527,-5.478863,16.581177,-18.163330,,,,,,,
1512178138.399028,-0.032737,0.325862,-1.332429,0.110760,0.570595,-0.053714,-0.031009,-0.320125,-0.946867,0.147922,-0.085209,0.163633,-4.878445,16.657074,-18.018387,,,,,,,
1512178138.419013,-0.021080,0.325326,-1.331132,-0.132060,0.573076,0.126140,-0.019973,-0.319618,-0.947335,0.170547,-0.122505,0.148263,-4.203304,16.733093,-18.399094,,,,,,,
1512178138.439002,-0.014322,0.319070,-1.326888,-0.397598,0.290426,0.247104,-0.013598,-0.313683,-0.949430,0.165057,-0.107612,0.123853,-3.826199,17.183655,-18.252075,,,,,,,
1512178138.459021,-0.014668,0.310175,-1.320723,-0.429025,-0.048395,0.326492,-0.013968,-0.305225,-0.952177,0.128592,-0.080761,0.142149,-3.825634,17.333649,-18.477005,,,,,,,
1512178138.479010,-0.020993,0.303865,-1.314655,-0.214579,-0.277818,0.369309,-0.020030,-0.299210,-0.953977,0.093516,-0.078430,0.203702,-3.899548,17.558548,-18.326263,,,,,,,
1512178138.498999,-0.029957,0.303197,-1.307582,0.089347,-0.339420,0.424668,-0.028586,-0.298573,-0.953958,0.045523,-0.092953,0.266824,-4.047863,17.933319,-18.324814,,,,,,,
1512178138.519019,-0.039581,0.307439,-1.298567,0.293518,-0.302977,0.522634,-0.037715,-0.302619,-0.952365,0.023723,-0.108819,0.313434,-4.500484,17.332642,-18.171265,,,,,,,
1512178138.539008,-0.047022,0.313982,-1.287742,0.379018,-0.103219,0.583198,-0.044706,-0.308848,-0.950060,-0.001803,-0.141637,0.303239,-4.498119,17.857651,-18.171021,,,,,,,
1512178138.559026,-0.050964,0.321525,-1.275168,0.421124,0.082506,0.689997,-0.048331,-0.316014,-0.947522,-0.051812,-0.157695,0.206784,-4.198528,17.783096,-18.323608,,,,,,,
1512178138.579015,-0.054044,0.329041,-1.259522,0.411487,0.113205,0.823221,-0.051120,-0.323136,-0.944970,-0.096585,-0.127044,0.062494,-4.273540,17.782990,-18.322968,,,,,,,
1512178138.599036,-0.057209,0.335737,-1.243889,0.353316,0.127181,0.730744,-0.053985,-0.329465,-0.942622,-0.126908,-0.074526,-0.065511,-3.826641,17.108658,-18.477112,,,,,,,
1512178138.619025,-0.060172,0.341382,-1.232137,0.299085,0.010007,0.522735,-0.056666,-0.334789,-0.940587,-0.123770,-0.038608,-0.193172,-3.826229,17.183655,-18.327072,,,,,,,
1512178138.639014,-0.065550,0.346364,-1.224635,0.256112,-0.197992,0.339094,-0.061613,-0.339480,-0.938593,-0.120546,-0.033705,-0.272879,-4.054241,16.583313,-18.925430,,,,,,,
1512178138.659033,-0.074176,0.350396,-1.219975,0.206545,-0.398678,0.232138,-0.069605,-0.343270,-0.936653,-0.140554,-0.025703,-0.308876,-4.204006,16.583084,-18.474167,,,,,,,
1512178138.679022,-0.084628,0.354320,-1.218046,0.213441,-0.485940,0.067759,-0.079277,-0.346953,-0.934525,-0.165215,0.020628,-0.299788,-4.353710,16.657867,-18.547852,,,,,,,
1512178138.699042,-0.094742,0.360030,-1.221629,0.329755,-0.574830,-0.266674,-0.088535,-0.352302,-0.931689,-0.178311,0.059044,-0.260801,-4.878292,16.732071,-18.393356,,,,,,,
1512178138.719031,-0.103592,0.369750,-1.233674,0.484869,-0.667752,-0.691171,-0.096418,-0.361382,-0.927418,-0.182604,0.035592,-0.154247,-5.331982,15.906403,-18.314911,,,,,,,
1512178138.739020,-0.110302,0.380376,-1.251921,0.369733,-0.546850,-0.878979,-0.102210,-0.371270,-0.922882,-0.185815,-0.044227,-0.013886,-6.083553,15.530273,-18.083710,,,,,,,
1512178138.759039,-0.103963,0.383716,-1.271433,-0.130708,0.355935,-0.807400,-0.096230,-0.374369,-0.922272,-0.169106,-0.122259,-0.059325,-6.236599,14.855042,-18.082748,,,,,,,
1512178138.779027,-0.082752,0.378239,-1.291290,-0.401984,0.854268,-0.752025,-0.076815,-0.369285,-0.926135,-0.045927,0.008537,-0.266354,-5.787411,14.705719,-18.386642,,,,,,,
1512178138.799047,-0.061181,0.374234,-1.310632,-0.111161,0.610346,-0.880854,-0.056911,-0.365560,-0.929046,0.028468,0.193548,-0.269471,-5.488766,14.406158,-18.389328,,,,,,,
1512178138.819036,-0.047715,0.378984,-1.333160,0.322791,0.126355,-1.038293,-0.044313,-0.369977,-0.927983,0.001359,0.161389,-0.103008,-5.414928,14.181274,-18.690063,,,,,,,
1512178138.839056,-0.038374,0.386160,-1.354785,0.249910,0.105651,-0.885906,-0.035539,-0.376634,-0.925679,-0.023757,0.011201,0.044484,-5.042217,13.656830,-18.543503,,,,,,,
1512178138.859046,-0.027855,0.386101,-1.371430,-0.231167,0.334010,-0.598916,-0.025801,-0.376580,-0.926024,-0.023271,-0.040763,0.111403,-4.966579,13.806946,-18.619064,,,,,,,
1512178138.879035,-0.014138,0.374572,-1.382858,-0.769083,0.571042,-0.420392,-0.013157,-0.365874,-0.930571,-0.022136,0.024153,0.041502,-4.288280,14.557968,-18.774460,,,,,,,
1512178138.899054,0.000836,0.356955,-1.393169,-0.882166,0.537875,-0.481845,0.000783,-0.349423,-0.936964,-0.001302,0.100460,-0.045915,-3.611614,14.933975,-18.855026,,,,,,,
1512178138.919043,0.012262,0.343595,-1.405214,-0.484559,0.241807,-0.623162,0.011545,-0.336874,-0.941478,0.017187,0.135580,-0.060597,-3.760235,15.233749,-18.778610,,,,,,,
1512178138.939063,0.017625,0.341293,-1.419997,0.131011,-0.094593,-0.732684,0.016607,-0.334706,-0.942176,0.032999,0.107335,0.026602,-3.760601,15.158752,-18.853653,,,,,,,
1512178138.959052,0.019472,0.350321,-1.435648,0.633630,-0.183612,-0.703325,0.018288,-0.343199,-0.939084,0.011878,0.038314,0.165097,-3.838314,14.558640,-18.853287,,,,,,,
1512178138.979041,0.020810,0.365853,-1.449121,0.854114,-0.148302,-0.560352,0.019432,-0.357746,-0.933616,-0.008949,0.001056,0.268348,-3.915340,14.108521,-18.852859,,,,,,,
1512178138.999060,0.022363,0.383102,-1.460050,0.863049,-0.115387,-0.454570,0.020741,-0.373800,-0.927277,-0.015598,0.000921,0.292832,-4.369381,13.207840,-18.849442,,,,,,,
1512178139.019049,0.023634,0.398722,-1.469764,0.735709,-0.132724,-0.425556,0.021778,-0.388241,-0.921300,0.000393,0.010037,0.273976,-4.523510,12.307602,-18.998581,,,,,,,
1512178139.039068,0.024483,0.411196,-1.479264,0.580903,-0.155419,-0.412954,0.022440,-0.399706,-0.916368,0.012228,-0.006651,0.218293,-4.676220,11.707382,-18.997589,,,,,,,
1512178139.059057,0.024578,0.422097,-1.488094,0.558089,-0.163108,-0.322696,0.022418,-0.409675,-0.911955,0.016538,-0.019479,0.158629,-4.979137,11.031921,-18.770340,,,,,,,
1512178139.079077,0.024008,0.433996,-1.494156,0.628672,-0.100338,-0.139158,0.021780,-0.420499,-0.907030,0.013956,-0.021716,0.109789,-4.682781,10.207367,-18.623276,,,,,,,
1512178139.099066,0.024521,0.447100,-1.495637,0.662336,0.113956,0.091273,0.022108,-0.432352,-0.901433,0.017443,-0.030691,0.047474,-4.910137,9.682022,-18.621613,,,,,,,
1512178139.119055,0.026977,0.459756,-1.490838,0.588129,0.307650,0.398964,0.024173,-0.443730,-0.895833,0.029309,-0.007564,-0.056529,-4.685589,9.607361,-18.848557,,,,,,,
1512178139.139075,0.027939,0.468737,-1.479711,0.308109,0.308894,0.636909,0.024922,-0.451760,-0.891790,0.061260,0.043786,-0.191035,-4.312496,9.157928,-18.626953,,,,,,,
1512178139.159064,0.025676,0.469984,-1.465710,-0.113550,0.163989,0.664410,0.022889,-0.452872,-0.891280,0.076552,0.081061,-0.294297,-4.163021,9.083145,-19.003250,,,,,,,
1512178139.179083,0.019633,0.464737,-1.453979,-0.339199,-0.127650,0.499150,0.017549,-0.448188,-0.893766,0.127913,0.100806,-0.289095,-4.462307,9.232697,-18.925644,,,,,,,
1512178139.199072,0.010408,0.456334,-1.443582,-0.498525,-0.234763,0.523120,0.009343,-0.440660,-0.897624,0.101008,0.054551,-0.141179,-4.683559,10.057373,-18.848358,,,,,,,
1512178139.219061,0.000388,0.442445,-1.427857,-0.852211,-0.070358,0.839451,0.000350,-0.428150,-0.903706,0.027100,-0.025601,-0.051265,-4.306835,10.432938,-18.776367,,,,,,,
1512178139.239081,-0.006529,0.418604,-1.404255,-1.391887,0.249649,1.194142,-0.005965,-0.406486,-0.913637,-0.029588,-0.010842,-0.177214,-4.375423,11.857834,-18.775070,,,,,,,
1512178139.259070,-0.010775,0.386206,-1.378998,-1.677076,0.272900,1.099476,-0.009982,-0.376677,-0.926290,-0.036329,0.144316,-0.343958,-3.993633,13.358398,-18.702560,,,,,,,
1512178139.279088,-0.014394,0.356141,-1.363250,-1.295287,-0.014804,0.495287,-0.013490,-0.348660,-0.937151,0.044450,0.272855,-0.356489,-3.688610,14.483856,-18.779587,,,,,,,
1512178139.299078,-0.017980,0.339320,-1.361425,-0.559442,-0.169511,-0.110774,-0.016954,-0.332846,-0.942828,0.093156,0.253622,-0.155255,-4.134441,15.383194,-18.550354,,,,,,,
1512178139.319098,-0.015561,0.339066,-1.369678,0.303407,0.112464,-0.509856,-0.014674,-0.332607,-0.942951,0.076793,0.079494,0.070896,-4.282726,15.757965,-18.473907,,,,,,,
1512178139.339087,-0.003672,0.353187,-1.380021,0.881241,0.609889,-0.422998,-0.003445,-0.345890,-0.938268,0.096737,-0.058850,0.200200,-3.909786,15.308533,-18.552292,,,,,,,
1512178139.359076,0.013601,0.372249,-1.384613,0.915208,0.833464,-0.014490,0.012669,-0.363711,-0.931425,0.119396,-0.169340,0.182585,-3.240444,14.109543,-19.083588,,,,,,,
1512178139.379096,0.027069,0.384053,-1.379809,0.332129,0.722734,0.428683,0.025094,-0.374682,-0.926813,0.124778,-0.129057,0.175623,-2.716152,13.960312,-19.163116,,,,,,,
1512178139.399085,0.034408,0.382724,-1.370163,-0.301976,0.487746,0.469849,0.031913,-0.373449,-0.927101,0.115930,-0.037317,0.177223,-2.189846,14.261108,-19.242447,,,,,,,
1512178139.419096,0.038387,0.373137,-1.363632,-0.540305,0.219733,0.235197,0.035736,-0.364538,-0.930502,0.082550,0.015081,0.150289,-1.665890,14.036896,-19.322006,,,,,,,
1512178139.439085,0.036162,0.364707,-1.360914,-0.317330,-0.205953,0.138867,0.033776,-0.356676,-0.933617,0.080925,0.001482,0.196693,-1.137844,14.712692,-19.326157,,,,,,,
1512178139.459074,0.026041,0.362802,-1.356567,0.017214,-0.507049,0.330294,0.024343,-0.354896,-0.934588,0.060450,-0.056649,0.274569,-1.511013,15.087128,-19.022797,,,,,,,
1512178139.479095,0.011371,0.366135,-1.347363,0.220441,-0.536007,0.546349,0.010617,-0.358009,-0.933657,-0.010846,-0.060158,0.349978,-2.263073,14.636002,-19.091629,,,,,,,
1512178139.499084,-0.001966,0.371745,-1.335685,0.307143,-0.369333,0.598292,-0.001832,-0.363242,-0.931692,-0.080901,-0.019098,0.338965,-2.414425,14.335770,-19.090485,,,,,,,
1512178139.519103,-0.011121,0.378381,-1.325245,0.338160,-0.202400,0.470326,-0.010334,-0.369416,-0.929206,-0.131649,0.015351,0.240592,-2.714352,14.335327,-18.937943,,,,,,,
1512178139.539092,-0.018387,0.383113,-1.318472,0.150216,-0.245066,0.293687,-0.017053,-0.373809,-0.927348,-0.114187,-0.029694,0.114131,-2.714397,14.335327,-19.012939,,,,,,,
1512178139.559081,-0.026351,0.382997,-1.314910,-0.059075,-0.349843,0.180488,-0.024439,-0.373702,-0.927226,-0.099798,-0.073930,0.008830,-3.238750,14.484543,-19.083405,,,,,,,
1512178139.579101,-0.033172,0.382680,-1.312480,0.067238,-0.205395,0.156169,-0.030767,-0.373408,-0.927156,-0.124521,-0.050908,-0.048689,-3.465328,14.109192,-18.856674,,,,,,,
1512178139.599090,-0.036575,0.388237,-1.310568,0.409136,-0.075545,0.115731,-0.033846,-0.378558,-0.924958,-0.157851,-0.029524,-0.109893,-3.614880,14.183975,-18.630371,,,,,,,
1512178139.619109,-0.039215,0.398385,-1.308659,0.530424,-0.082864,0.130256,-0.036135,-0.387931,-0.920979,-0.138029,-0.057031,-0.189647,-3.991573,13.808411,-18.627365,,,,,,,
