timestamp(unix),attitude_roll(radians),attitude_pitch(radians),attitude_yaw(radians),rotation_rate_x(radians/s),rotation_rate_y(radians/s),rotation_rate_z(radians/s),gravity_x(G),gravity_y(G),gravity_z(G),user_acc_x(G),user_acc_y(G),user_acc_z(G),magnetic_field_x(microteslas),magnetic_field_y(microteslas),magnetic_field_z(microteslas),latitude(degree),longitude(degree),altitude(meter),speed(m/s),course(degree),timestamp(unix),User Mark
1512178564.002493,-0.048824,0.427792,1.656283,0.002755,0.034954,-0.032233,-0.044406,-0.414863,-0.908800,0.021625,-0.027032,0.066301,-12.492355,-41.615211,-39.841545,,,,,,,
1512178564.022482,-0.047156,0.426994,1.656092,-0.067137,0.104195,0.006435,-0.042906,-0.414137,-0.909203,0.026167,-0.016741,0.053673,-12.494095,-41.990211,-39.916725,,,,,,,
1512178564.042471,-0.045371,0.425188,1.656576,-0.098565,0.078455,0.036809,-0.041317,-0.412492,-0.910024,0.025417,-0.001632,-0.000514,-12.492477,-41.615211,-40.066551,,,,,,,
1512178564.062491,-0.044678,0.423541,1.657257,-0.069803,0.034705,0.036007,-0.040716,-0.410991,-0.910730,0.023688,0.012095,-0.037802,-12.494949,-42.140221,-40.291801,,,,,,,
1512178564.082480,-0.044471,0.423385,1.657872,0.017754,0.018833,0.026559,-0.040531,-0.410849,-0.910802,0.015049,0.013663,-0.043712,-12.490860,-41.240211,-40.216377,,,,,,,
1512178564.102469,-0.043817,0.424466,1.658194,0.052230,0.046706,0.006905,-0.039916,-0.411834,-0.910384,0.015502,0.021209,-0.034120,-12.493454,-41.840218,-39.991661,,,,,,,
1512178564.122488,-0.042929,0.425609,1.658153,0.060939,0.028577,-0.005829,-0.039087,-0.412876,-0.909948,0.022913,0.022297,-0.047327,-12.192703,-41.689766,-39.844139,,,,,,,
1512178564.142477,-0.043008,0.427374,1.658089,0.117352,-0.031158,-0.003086,-0.039128,-0.414483,-0.909216,0.032963,0.022698,-0.048884,-12.273102,-42.889885,-39.844048,,,,,,,
1512178564.162466,-0.043608,0.430375,1.658242,0.170598,-0.017199,0.000932,-0.039619,-0.417212,-0.907945,0.020652,0.021887,-0.010649,-12.047653,-42.814552,-39.620934,,,,,,,
1512178564.182486,-0.043701,0.433191,1.658284,0.124935,-0.005499,-0.009283,-0.039652,-0.419769,-0.906764,0.019541,0.027542,0.015422,-12.499527,-43.190224,-39.992287,,,,,,,
1512178564.202475,-0.043808,0.434526,1.657922,0.040889,-0.018423,-0.020140,-0.039725,-0.420980,-0.906200,0.013663,0.034841,0.020625,-11.894989,-42.289314,-39.021980,,,,,,,
1512178564.222464,-0.043690,0.434536,1.656969,-0.003252,-0.025893,-0.059185,-0.039617,-0.420990,-0.906200,0.008962,0.051483,0.001583,-11.969650,-42.214439,-39.021294,,,,,,,
1512178564.242484,-0.043342,0.434535,1.654952,0.015592,-0.030047,-0.102632,-0.039302,-0.420988,-0.906214,0.018245,0.066435,-0.020147,-11.671631,-42.663994,-38.949059,,,,,,,
1512178564.262473,-0.042708,0.435770,1.652255,0.089670,-0.026671,-0.134598,-0.038705,-0.422108,-0.905719,0.019174,0.069279,-0.025495,-11.369461,-42.213539,-38.651405,,,,,,,
1512178564.282462,-0.041980,0.438085,1.649119,0.121914,-0.042604,-0.150172,-0.038004,-0.424206,-0.904768,0.035975,0.065289,-0.022768,-11.147018,-42.813210,-38.353584,,,,,,,
1512178564.302481,-0.041603,0.440715,1.645908,0.142083,-0.055408,-0.146731,-0.037617,-0.426587,-0.903664,0.040150,0.051022,-0.004096,-11.298843,-43.188423,-38.652489,,,,,,,
1512178564.322470,-0.041646,0.443109,1.643003,0.108776,-0.073644,-0.131284,-0.037613,-0.428751,-0.902640,0.040131,0.050699,0.011923,-11.068527,-42.063087,-38.128883,,,,,,,
1512178564.342459,-0.041868,0.444513,1.639988,0.060989,-0.071553,-0.141560,-0.037788,-0.430018,-0.902029,0.032661,0.052638,0.033850,-10.996216,-42.662987,-38.129799,,,,,,,
1512178564.362479,-0.041403,0.444632,1.636905,-0.018922,-0.044973,-0.143694,-0.037366,-0.430126,-0.901995,0.033628,0.051998,0.038943,-10.547241,-42.887306,-38.133720,,,,,,,
1512178564.382468,-0.040872,0.443315,1.633453,-0.081688,-0.076028,-0.153241,-0.036911,-0.428937,-0.902580,0.041763,0.061398,0.002907,-10.320175,-42.436974,-38.060432,,,,,,,
1512178564.402457,-0.041231,0.442102,1.629606,-0.042964,-0.105838,-0.176239,-0.037257,-0.427840,-0.903086,0.030329,0.058867,-0.006765,-10.096100,-42.661629,-37.912437,,,,,,,
1512178564.422476,-0.040784,0.441972,1.625373,0.005496,-0.048022,-0.201983,-0.036855,-0.427722,-0.903158,0.015401,0.067005,0.002829,-10.022156,-42.886513,-37.988182,,,,,,,
1512178564.442465,-0.038977,0.442222,1.620338,0.001820,-0.006304,-0.236007,-0.035218,-0.427948,-0.903117,0.020814,0.063080,0.004115,-9.720016,-42.436073,-37.765526,,,,,,,
1512178564.462454,-0.036738,0.442106,1.615278,-0.014484,0.001108,-0.217029,-0.033198,-0.427844,-0.903243,0.025584,0.043002,-0.008836,-9.569946,-42.435844,-37.616798,,,,,,,
1512178564.482474,-0.033623,0.442302,1.610591,0.035567,0.055653,-0.210783,-0.030382,-0.428021,-0.903258,0.018022,0.042722,-0.017412,-9.569565,-42.360832,-37.541771,,,,,,,
1512178564.502463,-0.031211,0.443408,1.605741,0.056041,0.005509,-0.226652,-0.028188,-0.429021,-0.902855,0.016653,0.048375,-0.023888,-9.119598,-42.360161,-37.620583,,,,,,,
1512178564.522452,-0.028734,0.443919,1.600994,0.008731,0.020347,-0.200631,-0.025946,-0.429482,-0.902703,0.013372,0.032952,-0.019447,-8.668442,-42.134483,-37.324318,,,,,,,
1512178564.542471,-0.027189,0.443566,1.597054,-0.023965,-0.026792,-0.160764,-0.024555,-0.429163,-0.902893,0.008960,0.029002,-0.028076,-8.593887,-42.209373,-37.549980,,,,,,,
1512178564.562460,-0.025985,0.443085,1.593849,-0.007324,-0.002246,-0.133783,-0.023473,-0.428729,-0.903128,-0.003733,0.031207,-0.018045,-8.368332,-42.134026,-37.101875,,,,,,,
1512178564.582449,-0.024236,0.443247,1.591289,0.024195,0.054354,-0.103281,-0.021892,-0.428875,-0.903099,-0.016224,0.029125,-0.006310,-8.067429,-41.908577,-37.329308,,,,,,,
1512178564.602469,-0.021637,0.443503,1.589638,0.010646,0.105515,-0.054258,-0.019542,-0.429107,-0.903042,-0.028096,0.023482,-0.004581,-7.918777,-42.208366,-37.330727,,,,,,,
1512178564.622458,-0.020024,0.443121,1.589127,-0.027510,0.040197,-0.007069,-0.018089,-0.428761,-0.903237,-0.035591,0.027089,-0.024208,-7.542648,-41.982796,-37.108818,,,,,,,
1512178564.642447,-0.019625,0.442050,1.589261,-0.049237,0.036916,0.018194,-0.017738,-0.427794,-0.903702,-0.039422,0.035139,-0.020126,-7.542618,-41.982796,-37.033806,,,,,,,
1512178564.662466,-0.018380,0.441505,1.590525,0.005210,0.130870,0.082205,-0.016616,-0.427300,-0.903957,-0.046448,0.022713,-0.031193,-7.016113,-41.682014,-36.738136,,,,,,,
1512178564.682455,-0.015558,0.442342,1.593705,0.074183,0.253640,0.172114,-0.014060,-0.428057,-0.903642,-0.037454,0.029406,-0.053953,-7.090805,-41.607124,-36.812462,,,,,,,
1512178564.702445,-0.012725,0.444118,1.598760,0.106975,0.240713,0.251431,-0.011490,-0.429662,-0.902917,-0.030731,0.043553,-0.088859,-6.941193,-41.681892,-36.888771,,,,,,,
1512178564.722464,-0.011845,0.446006,1.605134,0.099723,0.160497,0.300089,-0.010686,-0.431365,-0.902114,-0.033077,0.058166,-0.084550,-7.014755,-41.382011,-36.737999,,,,,,,
1512178564.742453,-0.012220,0.447701,1.612409,0.093709,0.144383,0.340455,-0.011016,-0.432894,-0.901378,-0.047303,0.055224,-0.057759,-6.787918,-41.006660,-36.439735,,,,,,,
1512178564.762442,-0.012427,0.449249,1.620832,0.084283,0.203008,0.398091,-0.011194,-0.434289,-0.900704,-0.049674,0.059244,-0.036064,-7.164124,-41.307228,-36.136681,,,,,,,
1512178564.782462,-0.011866,0.450816,1.630543,0.100521,0.261682,0.450768,-0.010680,-0.435700,-0.900028,-0.049958,0.074067,-0.036236,-6.863113,-41.081779,-36.139137,,,,,,,
1512178564.802451,-0.011113,0.452817,1.641411,0.129049,0.263829,0.466112,-0.009993,-0.437501,-0.899163,-0.047151,0.098343,-0.043342,-7.310593,-40.557457,-35.835075,,,,,,,
1512178564.822440,-0.010272,0.455543,1.652429,0.162493,0.284215,0.442144,-0.009225,-0.439950,-0.897975,-0.051368,0.100488,-0.026082,-7.386719,-40.857567,-35.384575,,,,,,,
1512178564.842459,-0.008762,0.458530,1.663033,0.161653,0.297067,0.430456,-0.007857,-0.442631,-0.896670,-0.039903,0.091953,-0.022077,-7.462845,-41.082680,-35.609032,,,,,,,
1512178564.862448,-0.007485,0.461239,1.673498,0.153656,0.294852,0.462312,-0.006702,-0.445058,-0.895477,-0.027294,0.070927,-0.012864,-7.542496,-42.132790,-35.458885,,,,,,,
1512178564.882437,-0.006675,0.463961,1.685728,0.167402,0.321435,0.535096,-0.005970,-0.447494,-0.894267,-0.022000,0.057937,0.006221,-7.309402,-40.407448,-34.785011,,,,,,,
1512178564.902457,-0.005415,0.466663,1.699461,0.155873,0.388600,0.590596,-0.004836,-0.449908,-0.893062,-0.026857,0.066394,0.025432,-7.384964,-40.557564,-34.559441,,,,,,,
1512178564.922446,-0.003004,0.468999,1.713735,0.122698,0.456895,0.602081,-0.002680,-0.451993,-0.892017,-0.030066,0.077008,0.028767,-7.610153,-40.632896,-34.257561,,,,,,,
1512178564.942435,0.000063,0.470609,1.727941,0.074718,0.462159,0.602469,0.000056,-0.453429,-0.891292,-0.015437,0.089492,0.008114,-7.534134,-40.407784,-34.258095,,,,,,,
1512178564.962454,0.002315,0.471820,1.742796,0.067631,0.410803,0.642702,0.002062,-0.454508,-0.890740,-0.019152,0.084757,-0.008308,-7.987930,-41.233467,-34.404655,,,,,,,
1512178564.982443,0.003690,0.472899,1.758536,0.046705,0.429914,0.684040,0.003285,-0.455469,-0.890246,-0.029347,0.094675,0.019564,-8.131897,-39.958687,-33.802788,,,,,,,
1512178565.002432,0.005919,0.473041,1.774820,-0.013109,0.498165,0.694070,0.005269,-0.455595,-0.890172,-0.041768,0.103773,0.032246,-8.057861,-40.183571,-33.728539,,,,,,,
1512178565.022452,0.009122,0.472246,1.790855,-0.040510,0.508843,0.675588,0.008124,-0.454888,-0.890512,-0.034720,0.111199,0.006204,-8.205841,-39.733788,-33.727043,,,,,,,
1512178565.042441,0.012118,0.471713,1.806683,-0.019271,0.503524,0.680141,0.010794,-0.454413,-0.890726,-0.035162,0.101217,0.004984,-8.128738,-39.283669,-33.577492,,,,,,,
1512178565.062430,0.015464,0.471390,1.822607,-0.023592,0.518458,0.683324,0.013777,-0.454125,-0.890831,-0.028013,0.097496,0.012307,-8.204071,-39.358788,-33.576881,,,,,,,
1512178565.082419,0.018211,0.470314,1.838937,-0.089102,0.490537,0.712132,0.016233,-0.453166,-0.891278,-0.022215,0.068919,0.031110,-8.204300,-39.433784,-33.351921,,,,,,,
1512178565.102438,0.021014,0.467328,1.855953,-0.193971,0.539461,0.738500,0.018760,-0.450503,-0.892578,-0.022834,0.051073,0.051910,-8.277573,-39.058891,-33.276100,,,,,,,
1512178565.122427,0.024683,0.462365,1.873384,-0.301897,0.565967,0.755152,0.022089,-0.446066,-0.894727,-0.014033,0.042059,0.040846,-8.200623,-38.608788,-33.426537,,,,,,,
1512178565.142416,0.027157,0.454699,1.891151,-0.464197,0.471696,0.766331,0.024394,-0.439192,-0.898062,0.001347,0.040388,0.019385,-8.499908,-38.459236,-33.348915,,,,,,,
1512178565.162436,0.027665,0.443396,1.908785,-0.629087,0.356134,0.740089,0.024987,-0.429010,-0.902954,0.007392,0.041574,-0.026520,-8.646652,-37.709450,-33.572289,,,,,,,
1512178565.182425,0.027098,0.431911,1.925212,-0.548312,0.298673,0.686687,0.024606,-0.418607,-0.907834,0.010108,0.036848,-0.047412,-9.395935,-37.485573,-34.165810,,,,,,,
1512178565.202414,0.027930,0.423465,1.940090,-0.376045,0.365363,0.587074,0.025460,-0.410922,-0.911315,-0.002404,0.017398,-0.029756,-9.616180,-36.435905,-34.088417,,,,,,,
1512178565.222434,0.030583,0.417861,1.952061,-0.262380,0.356133,0.482084,0.027947,-0.405806,-0.913532,0.005332,-0.017274,-0.009396,-9.388855,-35.910561,-34.165077,,,,,,,
1512178565.242423,0.032087,0.412971,1.962366,-0.270424,0.221600,0.446320,0.029384,-0.401332,-0.915461,0.024418,-0.075505,0.022974,-9.614487,-36.060905,-34.088234,,,,,,,
1512178565.262412,0.029774,0.406497,1.973780,-0.391403,0.025762,0.532367,0.027343,-0.395394,-0.918104,0.036240,-0.149619,0.058317,-9.838562,-35.836235,-34.236214,,,,,,,
1512178565.282431,0.023525,0.396414,1.987915,-0.610292,-0.056042,0.679228,0.021699,-0.386113,-0.922196,0.023635,-0.190181,0.077180,-10.361191,-35.312019,-34.231514,,,,,,,
1512178565.302420,0.015010,0.381252,2.004762,-0.876637,-0.176312,0.792216,0.013932,-0.372083,-0.928095,0.036498,-0.172595,0.035715,-11.486496,-35.313713,-34.821953,,,,,,,
1512178565.322409,-0.002508,0.359894,2.027751,-1.190959,-0.685143,1.274145,-0.002347,-0.352175,-0.935931,0.112562,-0.072599,-0.060559,-12.304520,-33.739937,-35.039223,,,,,,,
1512178565.342429,-0.037554,0.335343,2.065724,-1.142086,-1.370197,2.027242,-0.035454,-0.329093,-0.943632,0.183617,-0.021310,-0.114245,-14.550552,-32.843315,-35.169685,,,,,,,
1512178565.362418,-0.079909,0.315752,2.109783,-0.709748,-1.330207,2.122124,-0.075878,-0.310531,-0.947530,0.052044,-0.126435,-0.095668,-17.395050,-31.647575,-34.919899,,,,,,,
1512178565.382407,-0.105838,0.300498,2.149843,-0.500464,-0.323058,1.828034,-0.100907,-0.295996,-0.949844,0.012619,0.005545,0.033462,-18.891006,-30.749825,-34.906731,,,,,,,
1512178565.402426,-0.118134,0.290632,2.181979,-0.221685,-0.160516,1.415811,-0.112917,-0.286558,-0.951386,-0.009825,0.020353,-0.007889,-19.638672,-30.225945,-34.975121,,,,,,,
1512178565.422415,-0.130618,0.285677,2.206731,-0.050845,-0.355051,1.065807,-0.124968,-0.281807,-0.951298,0.003798,-0.018257,-0.029430,-20.835495,-29.552742,-34.664604,,,,,,,
1512178565.442404,-0.143472,0.283026,2.226155,0.006659,-0.362062,0.875793,-0.137292,-0.279263,-0.950349,0.042123,-0.088230,0.008668,-21.736359,-29.779091,-34.357063,,,,,,,
1512178565.462424,-0.153347,0.280288,2.243429,-0.030047,-0.148295,0.785392,-0.146786,-0.276632,-0.949699,-0.008900,-0.110743,0.029182,-22.261139,-29.779869,-33.902596,,,,,,,
1512178565.482413,-0.154510,0.278089,2.256399,0.009675,0.268862,0.529429,-0.147983,-0.274519,-0.950126,-0.061489,-0.080019,0.054390,-22.784180,-29.330666,-34.047935,,,,,,,
1512178565.502402,-0.148668,0.277465,2.267437,0.090605,0.550952,0.548640,-0.142456,-0.273918,-0.951144,-0.037201,-0.097252,-0.012342,-22.935806,-29.705879,-33.896828,,,,,,,
1512178565.522421,-0.139405,0.280160,2.281844,0.321391,0.700520,0.718811,-0.133536,-0.276510,-0.951688,0.040900,-0.058390,-0.044711,-23.087601,-30.081108,-34.120720,,,,,,,
1512178565.542410,-0.129920,0.287518,2.299421,0.562013,0.709267,0.802281,-0.124237,-0.283573,-0.950869,0.025162,-0.065167,-0.070249,-23.163498,-30.306221,-33.895195,,,,,,,
1512178565.562399,-0.121669,0.298284,2.318116,0.663163,0.690182,0.809011,-0.116009,-0.293880,-0.948776,0.014722,-0.041004,-0.055557,-22.864594,-30.605782,-33.372887,,,,,,,
1512178565.582419,-0.112837,0.309544,2.335732,0.627178,0.707370,0.728592,-0.107246,-0.304624,-0.946416,0.047691,-0.014635,-0.046520,-23.165970,-30.906227,-33.445473,,,,,,,
1512178565.602408,-0.103944,0.319811,2.351734,0.575557,0.667852,0.690399,-0.098496,-0.314388,-0.944171,0.068848,-0.035619,-0.042249,-23.243042,-31.431343,-32.845085,,,,,,,
1512178565.622397,-0.097005,0.329533,2.367743,0.555936,0.565229,0.711076,-0.091642,-0.323602,-0.941745,0.052808,-0.075004,-0.031247,-23.247009,-32.331352,-32.695503,,,,,,,
1512178565.642416,-0.092645,0.339070,2.383956,0.538598,0.440203,0.722117,-0.087245,-0.332610,-0.939020,0.087062,-0.055771,-0.012396,-23.094727,-31.881126,-32.171562,,,,,,,
1512178565.662405,-0.090482,0.348053,2.401257,0.499983,0.402604,0.799249,-0.084940,-0.341068,-0.936193,0.099650,-0.068615,0.014700,-23.247208,-32.481346,-31.720573,,,,,,,
1512178565.682394,-0.088755,0.355365,2.420186,0.411153,0.421529,0.886513,-0.083100,-0.347932,-0.933829,0.091446,-0.085478,0.031196,-23.696121,-32.257027,-31.566643,,,,,,,
1512178565.702414,-0.086175,0.361223,2.440839,0.368324,0.525985,0.967275,-0.080514,-0.353418,-0.931994,0.088860,-0.060705,0.028170,-23.921936,-32.482368,-31.189842,,,,,,,
1512178565.722403,-0.083826,0.367263,2.462298,0.397908,0.473658,0.980313,-0.078144,-0.359063,-0.930036,0.097126,-0.027656,0.000120,-24.299271,-33.007927,-31.111885,,,,,,,
1512178565.742392,-0.083721,0.373642,2.483895,0.399958,0.351892,0.979921,-0.077854,-0.365009,-0.927743,0.091785,-0.008526,-0.007834,-24.822693,-32.708717,-30.657295,,,,,,,
1512178565.762412,-0.085486,0.379400,2.505524,0.349775,0.302673,0.982221,-0.079311,-0.370363,-0.925495,0.088893,0.004076,0.018833,-24.596909,-32.558372,-30.434135,,,,,,,
1512178565.782401,-0.086553,0.383952,2.527034,0.297560,0.394450,0.984980,-0.080151,-0.374587,-0.923721,0.069898,0.010177,0.039398,-25.572357,-32.709846,-29.975914,,,,,,,
1512178565.802363,-0.085964,0.388348,2.548547,0.314687,0.437211,0.983246,-0.079465,-0.378660,-0.922118,0.072476,0.021345,0.031524,-25.497360,-32.709724,-29.976555,,,,,,,
1512178565.822382,-0.085543,0.393177,2.569989,0.329760,0.429775,0.973844,-0.078920,-0.383125,-0.920319,0.075471,0.035301,0.037354,-26.099152,-33.160622,-29.521675,,,,,,,
1512178565.842371,-0.085973,0.397835,2.591059,0.305503,0.367821,0.955155,-0.079161,-0.387423,-0.918497,0.078444,0.038394,0.031916,-26.247696,-32.860847,-29.295265,,,,,,,
1512178565.862360,-0.087429,0.401464,2.611896,0.236274,0.310040,0.947551,-0.080375,-0.390766,-0.916974,0.056083,0.022160,0.042661,-26.544815,-32.261299,-28.917427,,,,,,,
1512178565.882380,-0.090017,0.403490,2.631516,0.144550,0.244873,0.883101,-0.082677,-0.392630,-0.915973,0.046865,0.020316,0.061191,-26.918762,-32.036858,-28.839134,,,,,,,
1512178565.902369,-0.092618,0.403559,2.649657,0.047350,0.237352,0.829429,-0.085057,-0.392694,-0.915728,0.045918,0.009362,0.072329,-27.369812,-32.262535,-28.910423,,,,,,,
1512178565.922358,-0.094598,0.402874,2.667356,0.062065,0.261917,0.843588,-0.086894,-0.392064,-0.915825,0.056972,-0.009777,0.060616,-27.516922,-31.662758,-28.533867,,,,,,,
1512178565.942377,-0.096518,0.404129,2.686216,0.204066,0.281256,0.895816,-0.088605,-0.393218,-0.915166,0.061246,-0.017350,0.035619,-27.596802,-32.712883,-28.833717,,,,,,,
1512178565.962366,-0.098546,0.407625,2.705339,0.277191,0.286783,0.857450,-0.090325,-0.396430,-0.913611,0.034142,-0.001764,0.053839,-27.816818,-31.663200,-28.306328,,,,,,,
1512178565.982355,-0.097507,0.410160,2.722175,0.141832,0.452391,0.734534,-0.089278,-0.398756,-0.912701,0.020446,0.004911,0.066632,-27.816772,-31.663200,-28.231316,,,,,,,
1512178566.002375,-0.095837,0.410412,2.736428,0.043933,0.337038,0.653828,-0.087744,-0.398987,-0.912749,0.037604,-0.023773,0.025771,-27.967392,-31.813438,-28.155113,,,,,,,
1512178566.022364,-0.095741,0.409606,2.750034,0.010783,0.262207,0.656285,-0.087687,-0.398248,-0.913077,0.044474,-0.042060,0.020331,-28.267807,-31.888878,-28.302605,,,,,,,
1512178566.042353,-0.095668,0.408226,2.763638,-0.015873,0.288863,0.657054,-0.087673,-0.396981,-0.913630,0.054851,-0.035239,0.010584,-28.266129,-31.513878,-28.302422,,,,,,,
1512178566.062342,-0.096135,0.406884,2.777102,0.008906,0.223785,0.639068,-0.088150,-0.395750,-0.914118,0.056443,-0.024889,-0.030294,-27.965103,-31.288429,-28.304878,,,,,,,
1512178566.082361,-0.097195,0.406972,2.789637,0.089875,0.214418,0.577312,-0.089116,-0.395830,-0.913990,0.030400,-0.010466,-0.018414,-28.262039,-30.613869,-28.227013,,,,,,,
1512178566.102350,-0.096187,0.408651,2.800465,0.138360,0.331100,0.486737,-0.088131,-0.397372,-0.913416,0.006710,-0.016599,0.015482,-28.187042,-30.613762,-28.227638,,,,,,,
1512178566.122339,-0.090841,0.410599,2.809581,0.139643,0.510699,0.418088,-0.083176,-0.399159,-0.913101,-0.010498,-0.016536,0.019104,-28.112930,-30.838646,-28.003395,,,,,,,
1512178566.142359,-0.084167,0.413620,2.817557,0.212797,0.461756,0.375268,-0.076978,-0.401926,-0.912431,-0.021044,-0.040533,-0.014312,-27.963043,-30.838417,-28.229668,,,,,,,
1512178566.162348,-0.081013,0.417685,2.825708,0.234426,0.256623,0.411113,-0.073968,-0.405646,-0.911033,-0.034294,-0.081735,-0.014230,-27.512726,-30.762749,-28.233452,,,,,,,
1512178566.182337,-0.080949,0.420210,2.835724,0.111080,0.230583,0.520106,-0.073826,-0.407952,-0.910014,-0.044369,-0.090782,0.029398,-27.813019,-30.838203,-28.155937,,,,,,,
1512178566.202356,-0.080523,0.419209,2.847084,-0.084690,0.286812,0.564373,-0.073471,-0.407038,-0.910451,-0.044876,-0.057012,0.022329,-27.289825,-31.212410,-28.385567,,,,,,,
1512178566.222345,-0.079639,0.414713,2.858097,-0.229317,0.275951,0.541984,-0.072811,-0.402927,-0.912331,-0.039753,-0.010723,-0.020927,-27.210403,-30.237297,-28.310768,,,,,,,
1512178566.242335,-0.079240,0.409648,2.868141,-0.192409,0.219482,0.499682,-0.072608,-0.398286,-0.914383,-0.034051,0.013276,-0.055283,-27.060547,-30.237068,-28.612038,,,,,,,
1512178566.262354,-0.081028,0.407302,2.878079,-0.038014,0.096864,0.504690,-0.074318,-0.396133,-0.915181,-0.031090,0.026230,-0.041774,-27.284576,-30.012413,-28.685020,,,,,,,
1512178566.282343,-0.083046,0.407132,2.888753,0.049831,0.163138,0.545633,-0.076170,-0.395977,-0.915096,-0.031481,0.027447,-0.007069,-26.756836,-29.411613,-28.614204,,,,,,,
1512178566.302332,-0.084323,0.407723,2.900639,0.084240,0.205828,0.595323,-0.077319,-0.396520,-0.914764,-0.051709,0.037939,0.003006,-27.054626,-28.887062,-28.911415,,,,,,,
1512178566.322352,-0.085594,0.408306,2.912231,0.084105,0.200468,0.602763,-0.078462,-0.397055,-0.914435,-0.069838,0.055304,0.002875,-26.980713,-29.111946,-29.062157,,,,,,,
1512178566.342341,-0.087493,0.408743,2.924431,0.077933,0.146013,0.586493,-0.080183,-0.397456,-0.914111,-0.079592,0.060038,0.019916,-27.129700,-28.887184,-29.060783,,,,,,,
1512178566.362330,-0.089529,0.408533,2.936374,0.023510,0.175829,0.591138,-0.082051,-0.397264,-0.914029,-0.095073,0.050264,0.038541,-27.204056,-28.737297,-29.135063,,,,,,,
1512178566.382349,-0.090573,0.406744,2.948707,-0.057933,0.240808,0.620034,-0.083070,-0.395621,-0.914649,-0.095702,0.041312,0.035957,-27.352448,-28.362511,-29.283623,,,,,,,
1512178566.402338,-0.091020,0.403212,2.961473,-0.131823,0.270568,0.642524,-0.083605,-0.392374,-0.915998,-0.088270,0.047648,0.016233,-27.277374,-28.287392,-29.809227,,,,,,,
1512178566.422327,-0.090415,0.399107,2.974630,-0.131227,0.347408,0.673711,-0.083196,-0.388596,-0.917645,-0.071376,0.048554,0.002087,-27.123993,-27.537163,-29.810158,,,,,,,
1512178566.442347,-0.089638,0.396198,2.989036,-0.036182,0.342115,0.729445,-0.082584,-0.385914,-0.918831,-0.060529,0.039097,-0.013115,-26.894272,-26.486824,-29.811577,,,,,,,
1512178566.462336,-0.089364,0.395183,3.004486,0.042229,0.357127,0.758348,-0.082366,-0.384977,-0.919243,-0.074769,0.033934,0.011666,-26.669342,-26.486488,-29.963478,,,,,,,
1512178566.482325,-0.088563,0.394634,3.020071,0.031642,0.379549,0.755075,-0.081649,-0.384470,-0.919519,-0.076279,0.021372,0.048700,-26.667801,-26.111488,-30.263313,,,,,,,
1512178566.502344,-0.086916,0.392689,3.035791,-0.059391,0.425281,0.781628,-0.080199,-0.382674,-0.920396,-0.074708,0.002471,0.059342,-26.665939,-25.661476,-30.563103,,,,,,,
1512178566.522333,-0.086136,0.389108,3.052186,-0.123105,0.334302,0.827297,-0.079599,-0.379363,-0.921818,-0.070563,-0.006150,0.037937,-26.586700,-24.686363,-30.863289,,,,,,,
1512178566.542322,-0.087538,0.384700,3.069179,-0.160858,0.235930,0.849864,-0.081037,-0.375281,-0.923362,-0.071460,0.002966,0.032157,-26.585724,-24.461357,-30.938194,,,,,,,
1512178566.562342,-0.090851,0.379353,3.086061,-0.206483,0.150433,0.831845,-0.084276,-0.370320,-0.925073,-0.074629,0.012379,0.037927,-27.108170,-23.862144,-31.233437,,,,,,,
1512178566.582331,-0.094182,0.373843,3.101928,-0.197101,0.165504,0.780863,-0.087547,-0.365195,-0.926805,-0.079201,0.015510,0.057802,-27.253937,-22.887352,-31.531715,,,,,,,
1512178566.602320,-0.095527,0.369198,3.116966,-0.143236,0.274607,0.753244,-0.088955,-0.360868,-0.928365,-0.078373,0.000669,0.066167,-27.552704,-22.587807,-31.754021,,,,,,,
1512178566.622339,-0.095350,0.365965,3.132032,-0.064358,0.296078,0.753389,-0.088901,-0.357850,-0.929537,-0.065259,-0.007140,0.035632,-27.550140,-21.987801,-32.053749,,,,,,,
1512178566.642328,-0.095355,0.363959,-3.136161,-0.018287,0.299385,0.740212,-0.088974,-0.355977,-0.930250,-0.061631,-0.007564,0.042737,-27.172409,-21.387230,-31.981651,,,,,,,
1512178566.662317,-0.094598,0.362123,-3.121734,-0.035821,0.325057,0.704864,-0.088331,-0.354260,-0.930966,-0.062975,-0.016879,0.057797,-27.246964,-21.237343,-32.430946,,,,,,,
1512178566.682337,-0.093078,0.359554,-3.108076,-0.088652,0.351742,0.678610,-0.087000,-0.351857,-0.932002,-0.057028,-0.036861,0.061854,-27.319977,-20.787453,-32.505104,,,,,,,
1512178566.702326,-0.090793,0.355973,-3.094485,-0.132626,0.384753,0.696210,-0.084984,-0.348503,-0.933447,-0.044472,-0.055550,0.051565,-27.091751,-20.037117,-32.806679,,,,,,,
1512178566.722315,-0.088504,0.352149,-3.080641,-0.125275,0.374072,0.702677,-0.082964,-0.344915,-0.934960,-0.043027,-0.057367,0.033654,-27.465805,-19.812675,-32.953377,,,,,,,
1512178566.742335,-0.085951,0.348881,-3.066955,-0.100471,0.394435,0.686049,-0.080674,-0.341846,-0.936287,-0.036559,-0.055020,0.020515,-27.012878,-19.137001,-33.181892,,,,,,,
1512178566.762324,-0.082782,0.345948,-3.053465,-0.096207,0.426482,0.687287,-0.077789,-0.339089,-0.937533,-0.019410,-0.076011,0.003298,-26.859024,-18.236763,-33.557747,,,,,,,
1512178566.782313,-0.079477,0.343534,-3.039166,-0.056654,0.423225,0.745417,-0.074754,-0.336817,-0.938598,-0.014006,-0.091879,-0.020127,-26.634125,-18.236427,-33.784660,,,,,,,
1512178566.802305,-0.077056,0.341711,-3.023519,-0.025435,0.387939,0.790523,-0.072529,-0.335100,-0.939387,-0.015987,-0.093077,-0.035406,-27.007889,-17.936989,-34.006325,,,,,,,
1512178566.822294,-0.075636,0.340638,-3.007517,0.014980,0.349536,0.794172,-0.071222,-0.334088,-0.939847,-0.023886,-0.083346,-0.035281,-26.855270,-17.336769,-34.157326,,,,,,,
1512178566.842283,-0.074140,0.340274,-2.991572,0.044925,0.365616,0.789333,-0.069825,-0.333745,-0.940074,-0.041793,-0.086131,-0.038732,-26.254593,-17.185860,-34.162361,,,,,,,
1512178566.862303,-0.071873,0.340623,-2.975667,0.079163,0.422293,0.784696,-0.067685,-0.334075,-0.940113,-0.058276,-0.091905,-0.040874,-26.851700,-16.511757,-34.456947,,,,,,,
1512178566.882292,-0.068369,0.341560,-2.959431,0.104371,0.482095,0.809786,-0.064369,-0.334957,-0.940032,-0.056130,-0.093403,-0.063279,-26.626221,-16.361427,-34.833794,,,,,,,
1512178566.902281,-0.064041,0.342728,-2.942603,0.117865,0.523725,0.833578,-0.060276,-0.336058,-0.939911,-0.051297,-0.082216,-0.089554,-26.399948,-16.061089,-34.985558,,,,,,,
1512178566.922300,-0.059620,0.344517,-2.925566,0.159512,0.519524,0.828835,-0.056083,-0.337742,-0.939566,-0.039086,-0.067043,-0.110559,-26.246338,-15.235847,-35.211449,,,,,,,
1512178566.942289,-0.056021,0.347700,-2.908826,0.239786,0.445989,0.806291,-0.052641,-0.340736,-0.938684,-0.045229,-0.062798,-0.126090,-26.098434,-15.685631,-35.362938,,,,,,,
1512178566.962278,-0.054074,0.352753,-2.892373,0.327319,0.358557,0.795531,-0.050720,-0.345483,-0.937053,-0.044022,-0.065177,-0.109425,-25.869461,-14.785286,-35.514427,,,,,,,
1512178566.982298,-0.053937,0.358751,-2.875390,0.341592,0.299753,0.831777,-0.050478,-0.351105,-0.934974,-0.055662,-0.075058,-0.066643,-26.170441,-15.010735,-35.436989,,,,,,,
1512178567.002287,-0.054526,0.363621,-2.857688,0.246261,0.299553,0.859179,-0.050936,-0.355661,-0.933226,-0.064985,-0.067465,-0.019838,-25.944199,-14.710396,-35.663765,,,,,,,
1512178567.022276,-0.055495,0.365412,-2.839891,0.058595,0.264018,0.860604,-0.051805,-0.357334,-0.932539,-0.059905,-0.056790,-0.008745,-26.317261,-14.260948,-35.810371,,,,,,,
1512178567.042265,-0.057425,0.362807,-2.822717,-0.168084,0.206038,0.833663,-0.053658,-0.354900,-0.933363,-0.062095,-0.046070,0.000563,-25.864883,-13.735283,-35.813942,,,,,,,
1512178567.062284,-0.058486,0.356417,-2.806726,-0.319620,0.280679,0.781620,-0.054779,-0.348919,-0.935551,-0.033875,-0.015705,0.014423,-25.861893,-13.060280,-35.888634,,,,,,,
1512178567.082273,-0.056847,0.348972,-2.791526,-0.311990,0.401409,0.777888,-0.053392,-0.341932,-0.938207,0.026094,0.011839,-0.011363,-25.934753,-12.535378,-36.337746,,,,,,,
1512178567.102262,-0.054878,0.343913,-2.775415,-0.147572,0.356698,0.824887,-0.051639,-0.337173,-0.940025,0.063098,0.029663,-0.043236,-25.780807,-11.635155,-36.563622,,,,,,,
1512178567.122282,-0.056209,0.342074,-2.758710,-0.008865,0.133694,0.806933,-0.052925,-0.335442,-0.940573,0.058692,0.060128,-0.038843,-25.703598,-11.110039,-36.864006,,,,,,,
1512178567.142271,-0.062492,0.341646,-2.743879,0.017460,-0.143755,0.683751,-0.058842,-0.335038,-0.940365,0.034215,0.071259,0.019925,-26.004837,-11.410484,-36.636604,,,,,,,
1512178567.162260,-0.071240,0.340777,-2.732058,-0.012453,-0.253568,0.552876,-0.067086,-0.334220,-0.940105,0.028482,0.052176,0.089061,-26.303299,-11.035927,-36.933876,,,,,,,
1512178567.182279,-0.078175,0.340075,-2.722013,0.032245,-0.095302,0.500772,-0.073623,-0.333558,-0.939850,0.044311,0.024552,0.135438,-26.749741,-10.286598,-36.554710,,,,,,,
1512178567.202268,-0.081375,0.340884,-2.712115,0.110089,0.067173,0.507798,-0.076608,-0.334320,-0.939341,0.064844,0.007065,0.119837,-26.825867,-10.511711,-36.779167,,,,,,,
1512178567.222257,-0.082301,0.341393,-2.701152,0.039654,0.171600,0.581763,-0.077464,-0.334800,-0.939100,0.089488,-0.002129,0.093900,-26.823730,-10.061714,-36.553963,,,,,,,
1512178567.242277,-0.083298,0.339445,-2.688508,-0.089641,0.165903,0.665158,-0.078454,-0.332964,-0.939670,0.106912,0.002749,0.056262,-26.747864,-9.836601,-36.854500,,,,,,,
1512178567.262266,-0.086190,0.335436,-2.674801,-0.173677,0.035354,0.711455,-0.081286,-0.329180,-0.940762,0.114626,0.016375,0.024334,-26.820511,-9.311714,-36.853615,,,,,,,
1512178567.282255,-0.092192,0.329528,-2.661070,-0.271679,-0.119650,0.700974,-0.087108,-0.323597,-0.942177,0.112560,0.025898,0.031242,-26.820465,-9.311714,-36.778618,,,,,,,
1512178567.302275,-0.099610,0.321987,-2.648301,-0.324257,-0.161304,0.654224,-0.094335,-0.316452,-0.943906,0.109457,0.030609,0.069608,-27.115814,-8.262154,-36.925591,,,,,,,
1512178567.322264,-0.105990,0.314981,-2.636662,-0.244458,-0.100189,0.602291,-0.100587,-0.309799,-0.945467,0.108476,0.023880,0.097597,-27.187927,-7.662254,-36.549675,,,,,,,
1512178567.342253,-0.109957,0.311374,-2.625684,-0.033625,0.040149,0.558925,-0.104459,-0.306367,-0.946165,0.106793,0.016663,0.142530,-27.261398,-7.287376,-36.848854,,,,,,,
1512178567.362272,-0.110838,0.311874,-2.614979,0.135438,0.183606,0.527759,-0.105276,-0.306843,-0.945920,0.097204,-0.006176,0.187390,-27.485611,-7.137703,-36.621880,,,,,,,
1512178567.382261,-0.109420,0.313142,-2.604732,0.083582,0.256202,0.508071,-0.103891,-0.308050,-0.945681,0.096475,-0.035273,0.208544,-27.110001,-6.987144,-36.775002,,,,,,,
1512178567.402250,-0.108487,0.311424,-2.594607,-0.104675,0.174663,0.542371,-0.103066,-0.306415,-0.946302,0.094536,-0.064191,0.187925,-27.257797,-6.462364,-37.073479,,,,,,,
1512178567.422270,-0.110298,0.305380,-2.584222,-0.312933,0.036387,0.623091,-0.104982,-0.300656,-0.947937,0.081544,-0.084034,0.160797,-27.104187,-5.637138,-37.299370,,,,,,,
1512178567.442259,-0.114498,0.295958,-2.572696,-0.443221,-0.051424,0.632624,-0.109281,-0.291657,-0.950260,0.056500,-0.071029,0.137119,-27.253174,-5.412361,-37.297981,,,,,,,
1512178567.462248,-0.118770,0.285475,-2.561925,-0.447876,-0.033189,0.593179,-0.113695,-0.281614,-0.952768,0.033907,-0.067370,0.119974,-27.472748,-4.212685,-37.220512,,,,,,,
1512178567.482267,-0.120895,0.276577,-2.552182,-0.330434,0.085692,0.522798,-0.116017,-0.273064,-0.954974,0.011677,-0.069297,0.101596,-27.096054,-3.837120,-37.223534,,,,,,,
1512178567.502256,-0.120370,0.270846,-2.543986,-0.182643,0.172646,0.421836,-0.115702,-0.267547,-0.956573,-0.003027,-0.074006,0.071548,-27.020523,-3.687004,-37.524101,,,,,,,
1512178567.522245,-0.118779,0.267086,-2.537829,-0.134954,0.155854,0.309469,-0.114298,-0.263922,-0.957748,0.002360,-0.087519,0.028488,-27.243546,-3.237343,-37.596977,,,,,,,
1512178567.542265,-0.117852,0.264384,-2.533857,-0.086406,0.071742,0.205404,-0.113494,-0.261315,-0.958558,0.015945,-0.105155,-0.002166,-27.019028,-3.312004,-37.898933,,,,,,,
1512178567.562254,-0.118969,0.263406,-2.531265,-0.006625,-0.056206,0.144280,-0.114594,-0.260371,-0.958684,0.009965,-0.141454,-0.015590,-27.016068,-2.711998,-37.373650,,,,,,,
1512178567.582243,-0.121202,0.263853,-2.529443,0.036655,-0.071013,0.105414,-0.116722,-0.260802,-0.958310,0.000663,-0.168412,-0.001086,-26.792786,-3.086662,-37.450737,,,,,,,
1512178567.602262,-0.121910,0.265192,-2.528311,0.066226,0.037002,0.062508,-0.117357,-0.262094,-0.957880,-0.033110,-0.177847,-0.014502,-26.942383,-3.011894,-37.299431,,,,,,,
1512178567.622251,-0.119890,0.267445,-2.528707,0.114805,0.134478,-0.033458,-0.115351,-0.264268,-0.957526,-0.043401,-0.155013,-0.079263,-26.568619,-3.236336,-37.752708,,,,,,,
1512178567.642240,-0.116198,0.270846,-2.530895,0.164192,0.179577,-0.117873,-0.111710,-0.267547,-0.957047,-0.025879,-0.150285,-0.155395,-26.491547,-2.786217,-37.678154,,,,,,,
1512178567.662260,-0.112234,0.274952,-2.533581,0.215331,0.133730,-0.117288,-0.107792,-0.271501,-0.956383,-0.022061,-0.168578,-0.230736,-26.494583,-3.461220,-37.678459,,,,,,,
1512178567.682249,-0.110706,0.280890,-2.536093,0.332691,-0.002798,-0.129923,-0.106150,-0.277211,-0.954927,-0.031454,-0.167705,-0.250593,-26.346313,-3.835991,-37.754906,,,,,,,
1512178567.702238,-0.110589,0.288814,-2.539357,0.389122,-0.013274,-0.190973,-0.105793,-0.284816,-0.952726,-0.075115,-0.177663,-0.177996,-26.421234,-3.836113,-37.604271,,,,,,,
1512178567.722257,-0.107445,0.295942,-2.543993,0.282474,0.178939,-0.244089,-0.102576,-0.291641,-0.951012,-0.093255,-0.193726,-0.112511,-26.124008,-4.435661,-37.757088,,,,,,,
1512178567.742246,-0.100204,0.299835,-2.549412,0.093929,0.352771,-0.244082,-0.095573,-0.295362,-0.950593,-0.091576,-0.204851,-0.122313,-25.974991,-4.660439,-37.683479,,,,,,,
1512178567.762235,-0.089773,0.299566,-2.555130,-0.106443,0.497730,-0.240085,-0.085660,-0.295105,-0.951617,-0.073397,-0.170990,-0.189481,-25.597855,-4.134880,-38.136421,,,,,,,
1512178567.782255,-0.077057,0.297184,-2.561145,-0.127628,0.597048,-0.243244,-0.073607,-0.292829,-0.953327,-0.040163,-0.096926,-0.250759,-25.151932,-5.034203,-38.215660,,,,,,,
1512178567.802216,-0.062989,0.298027,-2.567120,0.153354,0.623188,-0.278524,-0.060173,-0.293635,-0.954022,-0.012001,-0.013357,-0.248065,-24.776077,-4.808647,-38.518745,,,,,,,
1512178567.822205,-0.050244,0.306030,-2.573776,0.493013,0.485999,-0.325253,-0.047889,-0.301276,-0.952334,0.016792,0.063391,-0.165952,-24.028214,-5.257515,-38.750328,,,,,,,
1512178567.842225,-0.040802,0.317122,-2.581426,0.525654,0.275712,-0.375617,-0.038756,-0.311833,-0.949346,0.048903,0.108846,-0.063990,-23.806992,-6.082191,-38.902611,,,,,,,
1512178567.862214,-0.036460,0.324779,-2.589973,0.257129,-0.014142,-0.397575,-0.034547,-0.319099,-0.947091,0.042466,0.130577,-0.001227,-24.033417,-6.382530,-39.050835,,,,,,,
1512178567.882203,-0.036798,0.328385,-2.599732,0.166554,-0.232033,-0.474265,-0.034823,-0.322515,-0.945924,-0.008237,0.153340,0.047242,-23.959625,-6.682411,-38.751625,,,,,,,
1512178567.902222,-0.037672,0.335584,-2.611974,0.472603,-0.193915,-0.607220,-0.035562,-0.329321,-0.943548,-0.053015,0.169882,0.135000,-23.735748,-6.907082,-38.978630,,,,,,,
1512178567.922211,-0.034699,0.349596,-2.625371,0.766220,0.021272,-0.624607,-0.032594,-0.342518,-0.938946,-0.087828,0.116749,0.190944,-24.115356,-7.957649,-38.750938,,,,,,,
1512178567.942200,-0.027072,0.364834,-2.637970,0.683099,0.253867,-0.550377,-0.025287,-0.356794,-0.933841,-0.114804,0.056303,0.199786,-23.817642,-8.482201,-38.603722,,,,,,,
1512178567.962220,-0.017499,0.374708,-2.648927,0.345892,0.278823,-0.463491,-0.016284,-0.366001,-0.930472,-0.119687,0.054447,0.135337,-23.371475,-9.306541,-38.832939,,,,,,,
1512178567.982209,-0.010930,0.377065,-2.658379,-0.023497,0.083668,-0.376778,-0.010162,-0.368194,-0.929694,-0.092041,0.074965,0.045721,-22.923950,-9.830864,-39.061989,,,,,,,
1512178568.002198,-0.010270,0.373576,-2.665336,-0.239159,-0.186116,-0.241188,-0.009562,-0.364947,-0.930979,-0.072027,0.074084,-0.009161,-23.148575,-9.756203,-38.985039,,,,,,,
1512178568.022187,-0.016141,0.367749,-2.668797,-0.329791,-0.429095,-0.057851,-0.015061,-0.359515,-0.933018,-0.060028,0.099887,-0.003567,-23.371887,-9.381538,-38.982948,,,,,,,
1512178568.042206,-0.027497,0.360091,-2.669748,-0.405733,-0.656877,0.010615,-0.025730,-0.352360,-0.935511,-0.083386,0.074375,0.009562,-23.898834,-9.832329,-38.828712,,,,,,,
1512178568.062195,-0.043421,0.351331,-2.669360,-0.452947,-0.841893,0.084977,-0.040756,-0.344148,-0.938030,-0.081726,0.088518,0.040402,-24.493546,-8.708214,-38.373085,,,,,,,
1512178568.082184,-0.062560,0.341313,-2.669049,-0.539829,-0.960519,0.047061,-0.058913,-0.334724,-0.940473,-0.097428,0.133583,0.101575,-25.167084,-8.409233,-38.142220,,,,,,,
1512178568.102204,-0.079826,0.328032,-2.671405,-0.752712,-0.883649,-0.098609,-0.075489,-0.322181,-0.943664,-0.143581,0.123374,0.125930,-25.765961,-8.185127,-37.912010,,,,,,,
1512178568.122193,-0.094891,0.312597,-2.679680,-0.804128,-0.825441,-0.404044,-0.090157,-0.307530,-0.947258,-0.105430,0.097646,0.172264,-26.587967,-7.586357,-37.304726,,,,,,,
1512178568.142182,-0.108558,0.298962,-2.691517,-0.679516,-0.871067,-0.464230,-0.103539,-0.294529,-0.950017,-0.068428,0.028598,0.147557,-27.035828,-7.137032,-37.075691,,,,,,,
1512178568.162201,-0.121580,0.288356,-2.701829,-0.513681,-0.746026,-0.364378,-0.116273,-0.284377,-0.951636,-0.039672,-0.006639,0.138190,-27.634628,-6.912926,-36.695488,,,,,,,
1512178568.182190,-0.133902,0.280510,-2.710083,-0.406155,-0.718240,-0.290235,-0.128284,-0.276845,-0.952313,-0.036267,-0.022898,0.112652,-27.932373,-6.463371,-36.242744,,,,,,,
1512178568.202179,-0.146906,0.272933,-2.716574,-0.436587,-0.740916,-0.191612,-0.140960,-0.269557,-0.952612,-0.042069,-0.063054,0.079977,-28.532257,-6.464272,-36.012642,,,,,,,
1512178568.222199,-0.162709,0.263885,-2.721193,-0.490689,-0.927063,-0.086433,-0.156384,-0.260833,-0.952633,-0.039478,-0.105043,0.012280,-29.055450,-6.090065,-35.783012,,,,,,,
1512178568.242188,-0.182805,0.254614,-2.723960,-0.455097,-1.078883,0.010567,-0.175928,-0.251872,-0.951635,-0.024573,-0.117101,-0.019007,-29.956253,-6.316414,-35.325462,,,,,,,
1512178568.262177,-0.205353,0.246454,-2.724309,-0.367903,-1.151667,0.149095,-0.197751,-0.243967,-0.949408,-0.018252,-0.134223,-0.043161,-30.703171,-5.717537,-34.568810,,,,,,,
1512178568.282196,-0.230561,0.238745,-2.720822,-0.320201,-1.281250,0.352952,-0.222042,-0.236483,-0.945925,-0.021901,-0.177717,-0.099028,-31.451416,-5.418648,-33.737297,,,,,,,
1512178568.302186,-0.260376,0.230282,-2.713310,-0.306420,-1.434357,0.544511,-0.250648,-0.228252,-0.940785,-0.033975,-0.164494,-0.106471,-32.573792,-4.895332,-33.202507,,,,,,,
1512178568.322175,-0.290735,0.222174,-2.703700,-0.226795,-1.383136,0.631126,-0.279610,-0.220351,-0.934486,-0.016471,-0.114366,-0.099480,-33.245270,-4.221352,-32.221458,,,,,,,
1512178568.342194,-0.321771,0.214207,-2.690090,-0.121925,-1.395181,0.866075,-0.309019,-0.212573,-0.926995,-0.047243,-0.130597,-0.155677,-34.669968,-4.223488,-31.609352,,,,,,,
1512178568.362183,-0.350475,0.207225,-2.673403,-0.012750,-1.120596,0.916580,-0.335998,-0.205745,-0.919116,-0.059754,-0.076573,-0.119031,-35.265396,-3.324379,-30.553841,,,,,,,
1512178568.382172,-0.369089,0.202355,-2.656521,0.133669,-0.572263,0.856647,-0.353405,-0.200976,-0.913626,-0.035679,-0.003583,-0.086068,-36.236313,-2.500832,-29.795174,,,,,,,
1512178568.402192,-0.382152,0.202043,-2.639245,0.439588,-0.462727,0.799629,-0.365333,-0.200671,-0.908990,-0.013848,0.017245,-0.053977,-36.534470,-2.126274,-29.492455,,,,,,,
1512178568.422181,-0.394195,0.208434,-2.619108,0.775945,-0.264678,0.840371,-0.375752,-0.206928,-0.903322,-0.049388,-0.039608,-0.017118,-36.457306,-1.676170,-29.192879,,,,,,,
1512178568.442170,-0.398378,0.215240,-2.595654,0.734721,0.176041,1.034263,-0.378973,-0.213581,-0.900423,-0.096323,-0.105541,-0.083753,-36.758545,-1.976616,-28.965477,,,,,,,
1512178568.462189,-0.399918,0.218468,-2.568864,0.634319,0.226747,1.241930,-0.380088,-0.216734,-0.899199,-0.019860,-0.017717,-0.153077,-36.606216,-1.451393,-29.041512,,,,,,,
1512178568.482178,-0.401964,0.219421,-2.539692,0.589976,0.194440,1.344588,-0.381846,-0.217665,-0.898229,0.007731,0.075743,-0.157633,-36.305954,-1.375938,-29.194023,,,,,,,
1512178568.502167,-0.402951,0.220700,-2.512743,0.597749,0.297537,1.072148,-0.382624,-0.218913,-0.897595,0.004038,0.137568,0.002255,-35.997696,0.499535,-29.570702,,,,,,,
1512178568.522187,-0.399982,0.224779,-2.491983,0.601039,0.437983,0.814697,-0.379606,-0.222891,-0.897897,0.029325,0.166128,0.125787,-35.997513,0.574532,-29.870659,,,,,,,
1512178568.542176,-0.394065,0.231046,-2.475206,0.626580,0.528244,0.562723,-0.373743,-0.228996,-0.898820,-0.013357,0.043983,0.164674,-35.548752,0.350197,-30.324593,,,,,,,
1512178568.562165,-0.384990,0.239869,-2.462598,0.672979,0.639851,0.340980,-0.364797,-0.237575,-0.900267,-0.010782,-0.057255,0.166625,-35.099014,0.350868,-30.853416,,,,,,,
1512178568.582184,-0.373303,0.248719,-2.451568,0.555615,0.825375,0.419876,-0.353471,-0.246163,-0.902476,0.072571,-0.017204,0.113871,-34.649612,0.276543,-31.382271,,,,,,,
1512178568.602173,-0.357341,0.253119,-2.438457,0.375987,1.012768,0.590628,-0.338639,-0.250425,-0.906979,0.092698,-0.025912,0.049008,-33.824570,0.352791,-31.989250,,,,,,,
1512178568.622162,-0.341045,0.254034,-2.424731,0.228996,0.968648,0.646984,-0.323737,-0.251310,-0.912161,0.103477,0.015532,0.047109,-33.148331,0.728798,-32.894798,,,,,,,
1512178568.642182,-0.327292,0.253752,-2.412204,0.187887,0.747666,0.542207,-0.311185,-0.251038,-0.916594,0.112393,0.058838,0.096266,-32.923553,0.729134,-33.346718,,,,,,,
1512178568.662171,-0.316671,0.255469,-2.404569,0.216515,0.605202,0.221242,-0.301298,-0.252700,-0.919436,0.121687,0.098601,0.180819,-32.322983,0.880043,-33.576744,,,,,,,
1512178568.682160,-0.305087,0.259595,-2.403440,0.226098,0.602648,-0.101645,-0.290311,-0.256689,-0.921862,0.092939,0.067022,0.246493,-31.723480,0.805931,-33.881874,,,,,,,
1512178568.702179,-0.292094,0.265042,-2.406738,0.211325,0.618920,-0.239324,-0.277903,-0.261950,-0.924204,0.013224,0.021181,0.267908,-31.197342,1.106728,-34.336205,,,,,,,
1512178568.722168,-0.279886,0.269472,-2.409696,0.168723,0.522480,-0.116612,-0.266277,-0.266222,-0.926403,-0.069218,-0.007887,0.217296,-31.050613,0.431953,-34.787788,,,,,,,
1512178568.742157,-0.272086,0.273936,-2.409957,0.257862,0.351548,-0.034892,-0.258720,-0.270523,-0.927298,-0.047203,-0.019043,0.166266,-30.601578,0.207619,-34.716713,,,,,,,
1512178568.762177,-0.266067,0.280019,-2.410184,0.302627,0.236379,-0.106076,-0.252698,-0.276374,-0.927233,-0.010211,0.016960,0.126009,-30.601883,0.207619,-35.316704,,,,,,,
1512178568.782166,-0.263453,0.285337,-2.413379,0.146029,0.026003,-0.250856,-0.249887,-0.281481,-0.926458,-0.020148,0.009005,0.081518,-30.452972,-0.017159,-35.468086,,,,,,,
1512178568.802131,-0.261329,0.287463,-2.420946,-0.055747,0.012151,-0.428665,-0.247763,-0.283520,-0.926407,-0.051279,0.019558,0.081009,-30.602036,0.132622,-34.941750,,,,,,,
1512178568.822151,-0.257741,0.288100,-2.432009,-0.097988,0.006922,-0.517778,-0.244391,-0.284131,-0.927115,-0.139749,-0.055148,0.024237,-30.379166,-0.317039,-35.168861,,,,,,,
1512178568.842140,-0.255838,0.290406,-2.444143,0.022423,-0.067411,-0.647417,-0.242460,-0.286342,-0.926942,-0.201937,-0.028951,-0.022155,-30.605591,-0.617378,-35.317085,,,,,,,
1512178568.862129,-0.249864,0.297754,-2.461262,0.230754,0.127995,-0.988055,-0.236392,-0.293374,-0.926310,-0.171155,-0.031806,-0.056310,-30.533295,-1.217278,-35.318001,,,,,,,
1512178568.882148,-0.241132,0.309143,-2.482221,0.348271,0.174390,-1.130108,-0.227482,-0.304242,-0.925034,-0.209774,-0.116259,-0.102767,-30.614151,-2.492393,-35.542946,,,,,,,
1512178568.902137,-0.229395,0.321805,-2.504193,0.383779,0.325076,-1.143999,-0.215715,-0.316279,-0.923815,-0.161101,-0.165105,-0.132337,-30.316589,-3.016960,-35.695747,,,,,,,
1512178568.922126,-0.214146,0.334087,-2.525318,0.379255,0.510764,-1.053867,-0.200763,-0.327907,-0.923131,-0.149350,-0.200978,-0.155085,-30.169022,-3.541725,-35.847267,,,,,,,
1512178568.942115,-0.195270,0.345510,-2.544647,0.384155,0.682554,-0.955122,-0.182565,-0.338677,-0.923021,-0.119986,-0.189354,-0.189268,-29.574188,-4.665840,-36.077888,,,,,,,
1512178568.962135,-0.176017,0.356690,-2.562785,0.403482,0.591686,-0.902920,-0.164087,-0.349174,-0.922579,-0.086264,-0.154763,-0.240476,-28.752457,-5.339607,-36.535210,,,,,,,
1512178568.982124,-0.163034,0.367602,-2.580737,0.387223,0.157982,-0.907863,-0.151469,-0.359379,-0.920817,-0.088933,-0.115185,-0.271764,-28.832214,-6.389732,-36.610054,,,,,,,
1512178569.002113,-0.157882,0.377234,-2.600681,0.288611,-0.232900,-1.023653,-0.146172,-0.368350,-0.918124,-0.107643,-0.085202,-0.196210,-28.685333,-7.064507,-36.761650,,,,,,,
1512178569.022132,-0.156707,0.383626,-2.624134,0.050743,-0.396443,-1.152397,-0.144723,-0.374286,-0.915951,-0.136283,-0.081967,-0.110401,-28.688965,-7.889503,-36.612022,,,,,,,
1512178569.042121,-0.153679,0.385921,-2.650402,-0.114406,-0.278003,-1.217278,-0.141817,-0.376412,-0.915534,-0.089399,-0.061652,-0.052774,-29.214157,-7.965294,-36.307594,,,,,,,
1512178569.062110,-0.147463,0.387693,-2.676263,-0.066289,-0.122086,-1.152067,-0.136025,-0.378054,-0.915736,-0.057014,-0.012449,-0.032643,-28.843246,-8.864738,-36.386192,,,,,,,
1512178569.082130,-0.139041,0.390608,-2.701309,0.042666,0.030833,-1.159558,-0.128154,-0.380751,-0.915754,-0.065861,0.071882,0.011304,-28.769257,-9.089638,-36.386940,,,,,,,
1512178569.102119,-0.126981,0.397301,-2.726770,0.254871,0.171213,-1.221025,-0.116776,-0.386931,-0.914684,-0.091598,0.120925,0.039059,-28.623611,-10.064415,-36.313667,,,,,,,
1512178569.122108,-0.111889,0.406295,-2.753635,0.298399,0.240811,-1.271323,-0.102566,-0.395209,-0.912847,-0.084888,0.114249,0.071874,-28.101791,-10.738640,-36.618431,,,,,,,
1512178569.142127,-0.097506,0.412986,-2.780090,0.137306,0.201972,-1.201300,-0.089167,-0.401346,-0.911576,-0.083426,0.083688,0.104401,-27.730408,-11.563072,-36.397011,,,,,,,
1512178569.162116,-0.082990,0.415863,-2.805987,-0.010445,0.203812,-1.161855,-0.075830,-0.403979,-0.911620,-0.066977,0.098773,0.116622,-27.583252,-12.162849,-36.698555,,,,,,,
1512178569.182105,-0.069133,0.417086,-2.830984,-0.008099,0.197304,-1.110673,-0.063156,-0.405098,-0.912089,-0.042954,0.122108,0.123546,-27.061218,-12.837074,-36.553337,,,,,,,
1512178569.202125,-0.055549,0.420360,-2.854625,0.173070,0.209194,-1.041912,-0.050687,-0.408089,-0.911534,-0.045977,0.121194,0.127034,-26.612488,-13.061394,-37.082253,,,,,,,
1512178569.222114,-0.043138,0.427677,-2.876584,0.403458,0.138934,-0.988717,-0.039240,-0.414758,-0.909085,-0.034643,0.138345,0.132275,-26.242142,-14.110847,-36.935936,,,,,,,
1512178569.242103,-0.032782,0.438606,-2.897646,0.561423,0.061104,-0.938723,-0.029674,-0.424677,-0.904858,-0.032445,0.129649,0.156460,-26.095367,-14.785622,-37.312508,,,,,,,
1512178569.262122,-0.023488,0.451102,-2.917386,0.604989,0.045009,-0.865654,-0.021136,-0.435957,-0.899719,-0.049009,0.109068,0.199615,-25.648895,-15.609947,-36.941734,,,,,,,
1512178569.282111,-0.014634,0.462797,-2.935566,0.541795,0.035129,-0.784521,-0.013094,-0.446452,-0.894712,-0.052397,0.098338,0.193677,-25.201859,-16.284279,-36.795860,,,,,,,
1512178569.302100,-0.007318,0.472399,-2.952876,0.421901,-0.052691,-0.757777,-0.006516,-0.455024,-0.890455,-0.043579,0.096961,0.171629,-25.130905,-17.184181,-36.796913,,,,,,,
1512178569.322120,-0.002039,0.478916,-2.969356,0.267083,-0.137470,-0.683562,-0.001809,-0.460817,-0.887493,-0.023169,0.076509,0.137600,-24.984161,-17.933952,-36.573540,,,,,,,
1512178569.342109,0.000829,0.482983,-2.983142,0.175219,-0.185951,-0.545407,0.000734,-0.464423,-0.885613,0.008604,0.068839,0.075600,-24.762466,-18.683632,-36.425789,,,,,,,
1512178569.362098,0.001174,0.486040,-2.993820,0.142038,-0.247153,-0.410710,0.001038,-0.467129,-0.884189,0.017501,0.060436,0.030704,-24.841583,-19.583733,-36.575569,,,,,,,
1512178569.382118,0.000053,0.487994,-3.002063,0.069220,-0.233544,-0.325366,0.000047,-0.468855,-0.883275,0.016631,0.051772,-0.007030,-24.988434,-18.908958,-36.348976,,,,,,,
1512178569.402107,-0.001590,0.488544,-3.009359,-0.003651,-0.247585,-0.303017,-0.001404,-0.469341,-0.883016,0.044723,0.048717,-0.043406,-25.066071,-19.509071,-36.198631,,,,,,,
1512178569.422096,-0.002992,0.486454,-3.015142,-0.173928,-0.159412,-0.186844,-0.002645,-0.467494,-0.883992,0.084799,-0.003285,-0.076961,-24.764679,-19.208626,-36.126030,,,,,,,
1512178569.442115,-0.003126,0.480988,-3.016907,-0.322069,0.037574,0.013176,-0.002771,-0.462655,-0.886534,0.127222,-0.019904,-0.129290,-25.140915,-19.509193,-35.897987,,,,,,,
1512178569.462104,-0.000913,0.473391,-3.015273,-0.396083,0.206039,0.113966,-0.000813,-0.455907,-0.890027,0.159718,0.015508,-0.181216,-25.365158,-19.284523,-36.420967,,,,,,,
1512178569.482093,0.002304,0.465509,-3.012704,-0.377193,0.222058,0.133487,0.002058,-0.448877,-0.893591,0.202348,0.029856,-0.220743,-25.212097,-18.609306,-36.346931,,,,,,,
1512178569.502113,0.003965,0.459376,-3.009136,-0.259927,0.133456,0.193510,0.003554,-0.443389,-0.896322,0.203157,0.021133,-0.193369,-25.286560,-18.459404,-36.646233,,,,,,,
1512178569.522102,0.005967,0.454762,-3.004867,-0.236507,0.288368,0.203987,0.005360,-0.439249,-0.898349,0.153407,0.003442,-0.069134,-25.210632,-18.234291,-36.796761,,,,,,,
1512178569.542091,0.014327,0.448523,-3.000919,-0.387349,0.642806,0.188107,0.012909,-0.433635,-0.900996,0.143600,-0.021382,0.001658,-24.985214,-18.083961,-37.323601,,,,,,,
1512178569.562110,0.027034,0.436950,-2.995097,-0.700714,0.801223,0.321639,0.024491,-0.423178,-0.905715,0.214187,-0.035227,-0.073441,-24.534012,-17.783272,-37.627281,,,,,,,
1512178569.582099,0.037236,0.420674,-2.986088,-0.871102,0.620216,0.430474,0.033982,-0.408376,-0.912181,0.276473,0.022298,-0.171925,-24.082657,-17.407600,-38.305931,,,,,,,
1512178569.602088,0.041057,0.404473,-2.975490,-0.774287,0.274152,0.490373,0.037733,-0.393534,-0.918535,0.292924,0.053721,-0.213163,-23.628494,-16.431923,-38.759300,,,,,,,
1512178569.622108,0.039268,0.392373,-2.964157,-0.525508,0.099285,0.523220,0.036274,-0.382382,-0.923292,0.261882,0.064816,-0.141665,-23.997650,-15.082481,-39.205498,,,,,,,
1512178569.642097,0.037767,0.385572,-2.952991,-0.270955,0.211792,0.542221,0.034986,-0.376089,-0.925923,0.224551,0.055990,-0.020550,-24.070206,-14.482582,-39.729576,,,,,,,
1512178569.662086,0.040471,0.382969,-2.940736,-0.094905,0.468298,0.610696,0.037529,-0.373676,-0.926800,0.197120,0.033237,0.093151,-24.071075,-14.632576,-40.104637,,,,,,,
1512178569.682105,0.047151,0.382480,-2.926249,-0.053039,0.675359,0.733558,0.043728,-0.373222,-0.926711,0.178806,0.020652,0.152282,-23.315109,-13.356453,-39.660423,,,,,,,
1512178569.702094,0.053592,0.380967,-2.908908,-0.168101,0.598031,0.854217,0.049726,-0.371818,-0.926973,0.160982,0.029029,0.144578,-22.938309,-12.905891,-40.113411,,,,,,,
1512178569.722083,0.054943,0.376999,-2.889683,-0.285487,0.332822,0.913426,0.051059,-0.368132,-0.928370,0.124845,0.049437,0.157161,-23.160080,-12.156227,-40.411156,,,,,,,
1512178569.742103,0.052034,0.372531,-2.869873,-0.239977,0.174771,0.925260,0.048443,-0.363974,-0.930148,0.084202,0.065161,0.196765,-23.463303,-12.831673,-40.783913,,,,,,,
1512178569.762092,0.048390,0.371020,-2.850363,-0.041662,0.208188,0.925051,0.045080,-0.362566,-0.930867,0.045328,0.061632,0.249165,-23.159256,-11.931221,-40.786034,,,,,,,
1512178569.782081,0.047575,0.374056,-2.830639,0.191441,0.410371,0.956849,0.044268,-0.365394,-0.929799,0.023206,0.042091,0.297887,-23.157608,-11.556221,-40.860863,,,,,,,
1512178569.802066,0.051042,0.381049,-2.809689,0.354498,0.651880,1.036810,0.047360,-0.371894,-0.927066,-0.004987,0.009483,0.311984,-23.006363,-11.255989,-41.087013,,,,,,,
1512178569.822084,0.057192,0.389607,-2.787339,0.358157,0.755413,1.077730,0.052877,-0.379825,-0.923546,-0.033300,-0.013455,0.255455,-22.553558,-10.580315,-41.540520,,,,,,,
1512178569.842075,0.062884,0.396944,-2.765487,0.279194,0.664624,1.013373,0.057957,-0.386602,-0.920424,-0.050571,-0.014002,0.157622,-22.329346,-10.729973,-41.767494,,,,,,,
1512178569.862063,0.066093,0.403587,-2.745555,0.277393,0.492823,0.920001,0.060739,-0.392720,-0.917650,-0.056893,-0.030589,0.069521,-22.105576,-10.954643,-42.219521,,,,,,,
1512178569.882082,0.067168,0.411475,-2.727052,0.381503,0.402280,0.873223,0.061516,-0.399961,-0.914465,-0.069542,-0.065935,0.017370,-21.955734,-10.954414,-42.520790,,,,,,,
1512178569.902071,0.067841,0.421993,-2.709859,0.515858,0.384460,0.805814,0.061842,-0.409579,-0.910176,-0.113417,-0.099698,-0.022258,-21.804337,-10.654182,-42.446922,,,,,,,
1512178569.922060,0.068894,0.432519,-2.694832,0.421974,0.352522,0.679615,0.062500,-0.419159,-0.905759,-0.171723,-0.151276,-0.079562,-21.579636,-10.728844,-42.373863,,,,,,,
1512178569.942080,0.070628,0.438843,-2.683332,0.193918,0.335477,0.480097,0.063882,-0.424892,-0.902987,-0.182382,-0.172962,-0.143888,-21.354080,-10.578514,-42.600716,,,,,,,
1512178569.962070,0.074105,0.440894,-2.675885,0.009419,0.335564,0.289795,0.066957,-0.426748,-0.901888,-0.167558,-0.193308,-0.229261,-21.204269,-10.578285,-42.976982,,,,,,,
1512178569.982059,0.078643,0.439373,-2.672465,-0.136385,0.273800,0.077452,0.071100,-0.425372,-0.902221,-0.136575,-0.179273,-0.326004,-20.754898,-10.727608,-42.905876,,,,,,,
1512178570.002078,0.082524,0.436752,-2.674915,-0.077279,0.053366,-0.219886,0.074692,-0.422998,-0.903047,-0.088532,-0.157721,-0.402755,-21.129898,-10.728172,-42.902687,,,,,,,
1512178570.022067,0.082470,0.438207,-2.684151,0.231777,-0.328039,-0.490712,0.074593,-0.424316,-0.902436,-0.074440,-0.173737,-0.394164,-20.904938,-10.727837,-42.979607,,,,,,,
1512178570.042056,0.080370,0.444511,-2.698526,0.400877,-0.410759,-0.664450,0.072482,-0.430017,-0.899907,-0.111666,-0.247260,-0.259822,-21.434219,-11.703621,-42.750587,,,,,,,
1512178570.062076,0.081738,0.449126,-2.716269,0.190348,-0.206753,-0.817105,0.073550,-0.434179,-0.897819,-0.089404,-0.274546,-0.177559,-21.134064,-11.703178,-42.453148,,,,,,,
1512178570.082065,0.089164,0.448565,-2.735620,0.003570,0.020567,-0.857398,0.080237,-0.433673,-0.897491,0.006525,-0.205441,-0.259690,-21.213562,-12.678307,-42.677956,,,,,,,
1512178570.102053,0.096069,0.449554,-2.754164,0.246377,-0.138365,-0.785139,0.086391,-0.434564,-0.896488,0.063100,-0.064917,-0.351330,-20.913528,-12.677849,-42.605507,,,,,,,
1512178570.122072,0.098190,0.458232,-2.773389,0.676722,-0.371534,-0.840480,0.087919,-0.442363,-0.892516,0.021350,0.052867,-0.249345,-21.142731,-13.653191,-42.229057,,,,,,,
1512178570.142061,0.103031,0.473480,-2.796766,0.943989,-0.171051,-1.006483,0.091534,-0.455986,-0.885267,-0.055172,0.042976,-0.064882,-20.998764,-15.002968,-42.155937,,,,,,,
1512178570.162050,0.115915,0.490625,-2.822588,0.967856,0.186853,-1.013418,0.102013,-0.471177,-0.876119,-0.062874,-0.011214,0.049642,-20.925186,-15.377861,-41.631752,,,,,,,
1512178570.182070,0.133736,0.505532,-2.845606,0.772821,0.412613,-0.811842,0.116659,-0.484273,-0.867104,-0.032934,-0.025065,0.090737,-20.180588,-16.576744,-41.638680,,,,,,,
1512178570.202060,0.150583,0.514769,-2.862656,0.424559,0.428702,-0.572703,0.130573,-0.492333,-0.860557,0.007214,0.007440,0.086555,-19.735947,-17.776085,-41.568062,,,,,,,
1512178570.222049,0.163066,0.517547,-2.873794,0.089497,0.300670,-0.364788,0.141083,-0.494750,-0.857507,0.045425,0.062118,0.083367,-19.287643,-18.150414,-41.572060,,,,,,,
1512178570.242068,0.168380,0.515920,-2.879224,-0.090057,0.022248,-0.157281,0.145773,-0.493336,-0.857537,0.068461,0.121525,0.068337,-18.913834,-18.374855,-41.950356,,,,,,,
1512178570.262057,0.164866,0.514741,-2.881083,0.010121,-0.350622,-0.044124,0.142854,-0.492309,-0.858618,0.057998,0.214371,0.096136,-19.140030,-18.675194,-41.648582,,,,,,,
1512178570.282046,0.155806,0.517843,-2.883116,0.269341,-0.542461,-0.063422,0.134831,-0.495007,-0.858364,0.015850,0.277752,0.200634,-19.288681,-18.375404,-41.647163,,,,,,,
1512178570.302066,0.148158,0.526118,-2.887295,0.525335,-0.406281,-0.130668,0.127653,-0.502180,-0.855289,-0.031721,0.296034,0.317524,-19.668259,-19.425987,-41.344460,,,,,,,
1512178570.322055,0.146798,0.538279,-2.894074,0.700678,-0.120643,-0.212418,0.125588,-0.512659,-0.849357,-0.045097,0.303141,0.380272,-19.895172,-19.876320,-41.117760,,,,,,,
1512178570.342043,0.151420,0.552809,-2.902236,0.800122,0.096371,-0.219816,0.128374,-0.525080,-0.841315,-0.018664,0.295573,0.375342,-19.900055,-21.001335,-40.743294,,,,,,,
1512178570.362063,0.157974,0.567714,-2.909729,0.754375,0.147452,-0.158470,0.132639,-0.537706,-0.832633,0.010503,0.284151,0.333290,-19.675919,-21.225990,-40.445305,,,,,,,
1512178570.382052,0.163287,0.580301,-2.915128,0.581396,0.113913,-0.079008,0.135950,-0.548276,-0.825173,0.024755,0.258939,0.295129,-19.529922,-22.125771,-40.372002,,,,,,,
1512178570.402041,0.166667,0.588319,-2.917863,0.296508,0.085551,-0.000080,0.138005,-0.554964,-0.820347,0.030299,0.220338,0.257481,-19.379059,-21.975548,-39.998207,,,,,,,
1512178570.422060,0.167263,0.590080,-2.916630,-0.057464,0.097567,0.132355,0.138331,-0.556428,-0.819300,0.051580,0.166566,0.202128,-19.756805,-22.576118,-40.070290,,,,,,,
1512178570.442050,0.165717,0.585761,-2.910327,-0.374692,0.092480,0.298310,0.137459,-0.552834,-0.821875,0.069221,0.132241,0.113837,-19.456833,-22.575661,-40.147835,,,,,,,
1512178570.462039,0.161657,0.575348,-2.900439,-0.713326,0.082269,0.340276,0.135041,-0.544127,-0.828064,0.059646,0.122984,0.044327,-19.829483,-21.976219,-40.819359,,,,,,,
1512178570.482059,0.157947,0.558600,-2.890454,-0.987178,0.108694,0.269238,0.133383,-0.529999,-0.837442,0.078989,0.103058,-0.050024,-19.828018,-21.676216,-40.594231,,,,,,,
1512178570.502048,0.155326,0.538423,-2.881011,-1.087190,0.122452,0.258244,0.132815,-0.512783,-0.848183,0.135450,0.065410,-0.138039,-20.123215,-20.551659,-41.116158,,,,,,,
1512178570.522037,0.152930,0.517530,-2.871344,-1.102332,0.155514,0.273064,0.132386,-0.494735,-0.858901,0.173324,0.027770,-0.183503,-19.894653,-19.726326,-41.417686,,,,,,,
1512178570.542056,0.152525,0.497636,-2.861992,-0.991322,0.245418,0.268587,0.133507,-0.477350,-0.868512,0.199699,-0.024130,-0.216861,-20.042145,-19.126534,-41.791130,,,,,,,
1512178570.562045,0.152664,0.481295,-2.852804,-0.804569,0.203948,0.320191,0.134796,-0.462927,-0.876087,0.222260,-0.060419,-0.236950,-20.037384,-18.001534,-42.390617,,,,,,,
1512178570.582033,0.151003,0.467105,-2.842851,-0.782711,0.141967,0.349074,0.134315,-0.450303,-0.882716,0.197045,-0.097335,-0.191549,-19.960007,-17.476418,-42.391014,,,,,,,
1512178570.602053,0.150470,0.450478,-2.832707,-0.975741,0.260216,0.358412,0.134949,-0.435396,-0.890067,0.179138,-0.137510,-0.137506,-19.731522,-16.651070,-42.842537,,,,,,,
1512178570.622042,0.151333,0.429274,-2.819119,-1.246334,0.391887,0.547908,0.137078,-0.416211,-0.898876,0.214668,-0.166858,-0.152226,-19.576981,-15.600838,-43.218330,,,,,,,
1512178570.642031,0.151928,0.404938,-2.800589,-1.354063,0.403081,0.745738,0.139105,-0.393962,-0.908539,0.267389,-0.133947,-0.217361,-19.798431,-14.776176,-43.516029,,,,,,,
1512178570.662050,0.150351,0.382107,-2.778474,-1.215236,0.319629,0.921228,0.138983,-0.372876,-0.917413,0.293558,-0.095339,-0.256217,-19.492874,-13.500710,-43.892998,,,,,,,
1512178570.682039,0.147277,0.364979,-2.754566,-0.878116,0.277196,1.033637,0.137080,-0.356930,-0.924018,0.280569,-0.052250,-0.250237,-19.338104,-12.375481,-44.493752,,,,,,,
1512178570.702029,0.143540,0.355278,-2.730191,-0.519953,0.238094,1.098390,0.134115,-0.347851,-0.927908,0.264124,-0.017566,-0.190821,-19.331665,-10.950478,-44.418083,,,,,,,
1512178570.722049,0.140019,0.351569,-2.706163,-0.259163,0.260870,1.122499,0.131025,-0.344371,-0.929646,0.241335,-0.001881,-0.061596,-18.949341,-9.299904,-44.645500,,,,,,,
1512178570.742038,0.137889,0.351284,-2.681849,-0.148653,0.378362,1.215126,0.129058,-0.344103,-0.930020,0.211793,-0.024198,0.054913,-19.022995,-9.000008,-44.644737,,,,,,,
1512178570.762027,0.137644,0.352370,-2.654799,-0.105676,0.502113,1.330248,0.128780,-0.345123,-0.929681,0.182637,-0.025803,0.114022,-18.647766,-8.924446,-44.872887,,,,,,,
1512178570.782016,0.137505,0.355778,-2.626025,0.053917,0.482961,1.412445,0.128488,-0.348320,-0.928528,0.156363,0.002663,0.143417,-18.423553,-9.074120,-45.099876,,,,,,,
1512178570.802013,0.135921,0.363609,-2.596406,0.274704,0.439398,1.468799,0.126644,-0.355649,-0.925999,0.113361,0.027860,0.202550,-17.892258,-7.723320,-44.653709,,,,,,,
1512178570.822002,0.133993,0.374755,-2.566411,0.399099,0.469451,1.489892,0.124321,-0.366045,-0.922256,0.060402,0.041902,0.275146,-17.967331,-7.723427,-44.803062,,,,,,,
1512178570.841991,0.132190,0.387518,-2.536430,0.468455,0.475975,1.486657,0.122032,-0.377892,-0.917772,0.020180,0.054543,0.324053,-17.742523,-7.723091,-45.179985,,,,,,,
1512178570.862011,0.130216,0.400539,-2.506388,0.436637,0.490901,1.477720,0.119571,-0.389915,-0.913055,-0.031253,0.050864,0.337219,-17.367477,-7.722527,-45.108177,,,,,,,
1512178570.882000,0.127235,0.411507,-2.476871,0.320506,0.407544,1.404320,0.116299,-0.399991,-0.909110,-0.061963,0.055127,0.308128,-17.141800,-7.572197,-45.110008,,,,,,,
1512178570.901989,0.122575,0.419517,-2.448979,0.182386,0.293231,1.305976,0.111666,-0.407319,-0.906434,-0.083391,0.027940,0.242875,-17.290710,-7.347420,-44.958626,,,,,,,
1512178570.922009,0.115440,0.424265,-2.422498,0.034510,0.139368,1.215884,0.104972,-0.411651,-0.905276,-0.104926,-0.001161,0.144534,-17.214554,-7.047295,-45.334129,,,,,,,
1512178570.941998,0.105912,0.426610,-2.397720,-0.013150,-0.010073,1.125125,0.096239,-0.413787,-0.905273,-0.124941,-0.025590,0.034926,-17.438538,-6.822639,-45.332115,,,,,,,
1512178570.961987,0.094607,0.429702,-2.375005,0.095957,-0.115478,1.032524,0.085878,-0.416600,-0.905025,-0.167329,-0.050014,-0.020268,-17.813431,-6.823189,-45.103935,,,,,,,
1512178570.982006,0.083671,0.434321,-2.355287,0.156363,-0.116119,0.859627,0.075814,-0.420794,-0.903982,-0.252618,-0.079740,-0.049417,-18.188766,-6.898766,-45.100777,,,,,,,
1512178571.001995,0.075996,0.436963,-2.341285,0.014595,-0.052675,0.539044,0.068789,-0.423190,-0.903426,-0.292178,-0.089658,-0.110398,-18.261215,-6.373863,-44.724892,,,,,,,
1512178571.021984,0.071833,0.435546,-2.334536,-0.156929,-0.062969,0.208175,0.065071,-0.421905,-0.904302,-0.264671,-0.112564,-0.228526,-18.185623,-6.223747,-44.875465,,,,,,,
1512178571.042004,0.068670,0.431027,-2.333965,-0.253762,-0.193955,-0.066590,0.062340,-0.417804,-0.906396,-0.210991,-0.102871,-0.353477,-18.408066,-5.699089,-44.498314,,,,,,,
1512178571.061993,0.062834,0.427591,-2.339967,-0.046258,-0.549791,-0.384641,0.057139,-0.414680,-0.908172,-0.159328,-0.067849,-0.458314,-18.934464,-5.999886,-44.568993,,,,,,,
1512178571.081982,0.053960,0.431465,-2.354182,0.402851,-0.793026,-0.738244,0.048991,-0.418202,-0.907032,-0.160990,-0.061778,-0.408215,-19.460510,-6.300667,-43.964668,,,,,,,
1512178571.102001,0.048146,0.443061,-2.375971,0.726514,-0.670183,-1.030559,0.043480,-0.428707,-0.902397,-0.165627,-0.107303,-0.273781,-19.842117,-7.801247,-43.662178,,,,,,,
1512178571.121990,0.049776,0.457762,-2.402812,0.808481,-0.379167,-1.203193,0.044633,-0.441942,-0.895933,-0.128358,-0.140685,-0.177157,-20.294891,-8.476921,-43.133659,,,,,,,
1512178571.141979,0.058282,0.472301,-2.432090,0.782856,-0.134492,-1.253885,0.051872,-0.454936,-0.889012,-0.066581,-0.127309,-0.123561,-20.299881,-9.601936,-42.984184,,,,,,,
1512178571.161999,0.072527,0.484974,-2.461237,0.651100,0.170709,-1.200362,0.064108,-0.466185,-0.882361,-0.048040,-0.098573,-0.088540,-19.552795,-10.275810,-42.765862,,,,,,,
1512178571.181988,0.091383,0.493187,-2.489083,0.424467,0.347595,-1.152923,0.080381,-0.473435,-0.877153,-0.023329,-0.039504,-0.114210,-19.557785,-11.400810,-42.616386,,,,,,,
1512178571.201977,0.110515,0.496814,-2.515746,0.225394,0.300197,-1.108001,0.096957,-0.476627,-0.873743,0.000013,-0.016476,-0.129874,-18.885071,-11.924812,-42.472374,,,,,,,
1512178571.221996,0.125324,0.496208,-2.540002,0.007824,0.090253,-0.982889,0.109921,-0.476094,-0.872498,0.034519,0.002217,-0.096237,-18.586090,-12.149361,-42.475029,,,,,,,
1512178571.241985,0.133310,0.490931,-2.559330,-0.263250,-0.099636,-0.780664,0.117217,-0.471447,-0.874070,0.053239,0.039349,-0.013580,-18.061386,-12.223564,-42.404518,,,,,,,
1512178571.261974,0.137798,0.480620,-2.573725,-0.506691,-0.093897,-0.627458,0.121801,-0.462329,-0.878303,0.052241,0.083545,0.040962,-17.986008,-12.148460,-42.330132,,,,,,,
1512178571.281994,0.141106,0.469081,-2.585038,-0.452069,-0.076948,-0.512539,0.125447,-0.452067,-0.883119,0.065837,0.152354,0.045686,-17.984955,-11.923454,-42.255028,,,,,,,
1512178571.301983,0.143739,0.463741,-2.595087,-0.021564,-0.078575,-0.437013,0.128116,-0.447297,-0.885162,0.063641,0.225114,0.077072,-17.985291,-11.998451,-42.255058,,,,,,,
1512178571.321972,0.148539,0.468647,-2.606021,0.502751,0.081351,-0.418200,0.132037,-0.451680,-0.882356,0.044111,0.265843,0.168336,-17.986526,-12.298454,-42.030190,,,,,,,
1512178571.341991,0.158332,0.482408,-2.617967,0.886103,0.309392,-0.380936,0.139678,-0.463914,-0.874799,0.036668,0.276918,0.226774,-17.837875,-12.598244,-42.031609,,,,,,,
1512178571.361980,0.171563,0.500754,-2.629935,1.007919,0.415217,-0.329770,0.149761,-0.480087,-0.864342,0.034824,0.272995,0.251992,-17.241898,-13.497337,-41.962120,,,,,,,
1512178571.381969,0.184346,0.517816,-2.640911,0.839668,0.350772,-0.279127,0.159273,-0.494983,-0.854180,0.039244,0.263935,0.256859,-16.718323,-13.871559,-41.441765,,,,,,,
1512178571.401989,0.193599,0.530567,-2.649366,0.616102,0.202816,-0.175208,0.165942,-0.506023,-0.846407,0.069928,0.250163,0.230165,-16.272400,-14.770882,-41.521004,,,,,,,
1512178571.421978,0.197286,0.541103,-2.654608,0.534936,-0.033634,-0.049282,0.168007,-0.515082,-0.840514,0.097420,0.251532,0.188674,-16.199234,-15.220787,-41.146843,,,,,,,
1512178571.441967,0.193496,0.550650,-2.656568,0.428203,-0.337401,0.073914,0.163867,-0.523241,-0.836281,0.092908,0.227251,0.178170,-16.501907,-15.821236,-41.069572,,,,,,,
1512178571.461987,0.183308,0.556431,-2.655187,0.168606,-0.519571,0.162264,0.154785,-0.528159,-0.834919,0.079087,0.190711,0.162266,-16.728363,-16.196571,-40.617836,,,,,,,
1512178571.481976,0.168882,0.558201,-2.651438,-0.005999,-0.661995,0.206145,0.142567,-0.529661,-0.836142,0.057918,0.153455,0.132697,-17.327545,-16.047478,-40.312675,,,,,,,
1512178571.501965,0.150784,0.554914,-2.645781,-0.378828,-0.788693,0.247210,0.127673,-0.526870,-0.840302,0.038251,0.063155,0.089905,-17.776794,-15.898140,-40.158775,,,,,,,
1512178571.521984,0.127618,0.539573,-2.636198,-1.103969,-0.966315,0.382139,0.109190,-0.513770,-0.850951,0.063753,-0.042428,0.013091,-18.524582,-15.449272,-39.777199,,,,,,,
1512178571.541973,0.098493,0.510611,-2.621328,-1.708139,-1.116058,0.550893,0.085791,-0.488710,-0.868218,0.103540,-0.076445,-0.083626,-19.794296,-14.251167,-39.990807,,,,,,,
1512178571.561962,0.069117,0.475518,-2.605635,-1.795524,-1.042486,0.553084,0.061400,-0.457799,-0.886933,0.114381,-0.069072,-0.152496,-20.911835,-12.602852,-39.905479,,,,,,,
1512178571.581982,0.046258,0.444750,-2.592475,-1.393682,-0.655098,0.511216,0.041743,-0.430232,-0.901753,0.086415,-0.100103,-0.131130,-21.731247,-11.404076,-39.522911,,,,,,,
1512178571.601971,0.037258,0.422884,-2.579696,-0.995018,0.149651,0.616800,0.033968,-0.410392,-0.911276,0.072553,-0.167474,-0.060159,-22.249435,-9.904854,-39.367760,,,,,,,
1512178571.621960,0.043499,0.401991,-2.561975,-1.225299,0.947727,0.915806,0.040019,-0.391252,-0.919413,0.119115,-0.183120,-0.065313,-21.872025,-9.304283,-39.970680,,,,,,,
1512178571.641979,0.055643,0.370025,-2.536656,-1.909340,1.066776,1.221859,0.051850,-0.361638,-0.930875,0.189300,-0.099818,-0.271838,-21.116058,-7.953148,-40.201424,,,,,,,
1512178571.661968,0.059850,0.328936,-2.507718,-2.180638,0.453217,1.224326,0.056607,-0.323036,-0.944692,0.187655,0.100075,-0.470011,-20.730484,-5.552574,-40.653496,,,,,,,
1512178571.681957,0.053368,0.292316,-2.487387,-1.602910,-0.239023,0.613039,0.051080,-0.288170,-0.956216,0.143958,0.252373,-0.467765,-20.273178,-3.901894,-40.881554,,,,,,,
1512178571.701946,0.045255,0.275334,-2.484521,-0.359497,-0.302961,-0.125004,0.043536,-0.271869,-0.961349,0.110456,0.242755,-0.235047,-20.265717,-2.251884,-40.805794,,,,,,,
1512178571.721966,0.049971,0.282554,-2.490705,0.726397,0.510783,-0.254624,0.047969,-0.278810,-0.959148,0.145085,0.051805,0.035625,-20.714325,-1.952553,-40.726845,,,,,,,
1512178571.741955,0.072103,0.301386,-2.493510,0.962891,1.364964,0.120630,0.068793,-0.296844,-0.952445,0.240701,-0.114441,0.168845,-20.043411,-2.851540,-40.807991,,,,,,,
1512178571.761944,0.101270,0.315986,-2.485679,0.472533,1.627021,0.649602,0.096092,-0.310753,-0.945621,0.278877,-0.160972,0.154437,-18.845245,-3.224739,-41.118355,,,,,,,
1512178571.781963,0.123828,0.318531,-2.467969,-0.235750,1.215097,0.977978,0.117298,-0.313172,-0.942425,0.265743,-0.077560,0.067226,-17.647598,-3.672951,-41.803764,,,,,,,
1512178571.801914,0.129876,0.310123,-2.444490,-0.711111,0.312530,1.122532,0.123333,-0.305175,-0.944276,0.207538,0.014846,0.017976,-16.893967,-2.846825,-41.959755,,,,,,,
1512178571.821903,0.117881,0.297241,-2.419628,-0.784881,-0.472664,1.096341,0.112451,-0.292884,-0.949512,0.112601,0.085486,0.099842,-16.214981,-1.945793,-42.115074,,,,,,,
1512178571.841923,0.098726,0.286964,-2.397380,-0.503026,-0.654701,0.997449,0.094535,-0.283042,-0.954437,0.053598,0.091727,0.271378,-17.108307,-0.522148,-41.581764,,,,,,,
1512178571.861912,0.082464,0.284132,-2.376975,-0.069671,-0.382803,1.043053,0.079068,-0.280324,-0.956643,0.013492,0.049245,0.432672,-17.556519,-0.147804,-41.352776,,,,,,,
1512178571.881902,0.073615,0.288724,-2.353989,0.238266,0.049972,1.202532,0.070505,-0.284730,-0.956012,-0.030679,0.008759,0.503222,-17.254761,0.227638,-41.205147,,,,,,,
1512178571.901922,0.072290,0.296230,-2.329504,0.284562,0.420725,1.192765,0.069081,-0.291917,-0.953946,-0.108967,0.026170,0.485791,-16.952805,0.678093,-41.357491,,,,,,,
1512178571.921911,0.076726,0.301467,-2.308499,0.106498,0.567289,0.943370,0.073194,-0.296922,-0.952093,-0.148542,0.037492,0.396429,-16.352463,0.753990,-41.362556,,,,,,,
1512178571.941900,0.082474,0.300501,-2.292081,-0.257967,0.510517,0.738536,0.078689,-0.295999,-0.951941,-0.143493,0.001825,0.250998,-16.202194,0.829216,-41.513802,,,,,,,
1512178571.961919,0.086561,0.292785,-2.277446,-0.517204,0.367106,0.678849,0.082774,-0.288620,-0.953859,-0.071513,-0.048874,0.047517,-15.523483,1.655235,-41.519157,,,,,,,
1512178571.981908,0.086863,0.284876,-2.262039,-0.374932,0.157781,0.768666,0.083257,-0.281039,-0.956078,-0.048254,-0.077344,-0.161094,-15.222839,1.805687,-41.596642,,,,,,,
1512178572.001897,0.082400,0.283487,-2.245604,0.013396,-0.070295,0.804412,0.079022,-0.279705,-0.956828,-0.109601,-0.079578,-0.300938,-14.846191,2.106255,-40.999687,,,,,,,
1512178572.021917,0.075460,0.288562,-2.231981,0.267239,-0.175252,0.597710,0.072271,-0.284574,-0.955926,-0.197683,-0.074160,-0.348639,-14.845184,2.331261,-40.999580,,,,,,,
1512178572.041905,0.069932,0.292996,-2.224879,0.099312,-0.144899,0.245718,0.066897,-0.288822,-0.955043,-0.220751,-0.098721,-0.353185,-14.770599,2.256371,-41.150261,,,,,,,
1512178572.061894,0.068094,0.291078,-2.224470,-0.185204,-0.045349,-0.080008,0.065179,-0.286985,-0.955715,-0.184915,-0.125308,-0.398533,-15.145142,2.330803,-40.922020,,,,,,,
1512178572.081913,0.069503,0.288796,-2.230218,0.033844,0.013241,-0.365528,0.066571,-0.284799,-0.956273,-0.123242,-0.101951,-0.442241,-14.770447,2.256371,-40.850258,,,,,,,
1512178572.101902,0.073497,0.296005,-2.242862,0.630526,0.039311,-0.670220,0.070237,-0.291701,-0.953927,-0.111833,-0.113176,-0.409293,-14.847015,1.881248,-40.624794,,,,,,,
1512178572.121891,0.081439,0.312541,-2.262366,0.997475,0.156828,-0.937408,0.077408,-0.307478,-0.948402,-0.153763,-0.178011,-0.307107,-14.477112,0.756813,-40.703499,,,,,,,
1512178572.141912,0.094291,0.329713,-2.287500,0.871561,0.323761,-1.179576,0.089080,-0.323771,-0.941933,-0.141585,-0.197347,-0.214851,-14.107376,-0.367638,-41.082191,,,,,,,
1512178572.161901,0.113008,0.339396,-2.316360,0.472312,0.538159,-1.329597,0.106335,-0.332918,-0.936941,-0.025219,-0.144682,-0.208902,-13.586044,-1.191856,-41.012047,,,,,,,
1512178572.181890,0.131712,0.343807,-2.345804,0.400379,0.330770,-1.310045,0.123646,-0.337074,-0.933324,0.061580,-0.057534,-0.281871,-13.287460,-1.491402,-41.164742,,,,,,,
1512178572.201909,0.142130,0.352092,-2.374646,0.733592,-0.133523,-1.239669,0.132962,-0.344862,-0.929189,0.040851,0.026472,-0.228099,-12.917038,-2.540855,-40.868401,,,,,,,
1512178572.221898,0.146111,0.366704,-2.403892,0.982837,-0.358536,-1.237907,0.135912,-0.358540,-0.923567,-0.058977,0.053792,-0.070100,-13.223160,-3.891319,-40.941475,,,,,,,
1512178572.241887,0.150161,0.380723,-2.434535,0.800863,-0.323402,-1.320376,0.138886,-0.371592,-0.917949,-0.120209,0.028834,0.068462,-13.301422,-4.641426,-40.716194,,,,,,,
1512178572.261907,0.157179,0.387414,-2.465399,0.386594,-0.143476,-1.337479,0.144932,-0.377795,-0.914475,-0.120625,0.007449,0.159532,-13.080124,-5.466103,-40.718483,,,,,,,
1512178572.281895,0.168408,0.386390,-2.493063,0.036768,0.170806,-1.182609,0.155255,-0.376847,-0.913171,-0.085813,0.010407,0.171869,-13.231476,-5.766319,-40.717354,,,,,,,
1512178572.301884,0.183186,0.381822,-2.514874,-0.073030,0.406180,-0.912601,0.169045,-0.372612,-0.912461,-0.028725,0.053490,0.109268,-12.782608,-5.990654,-40.946266,,,,,,,
1512178572.321903,0.196432,0.378448,-2.531118,0.022023,0.302231,-0.669589,0.181360,-0.369479,-0.911369,0.015936,0.133593,0.029060,-12.107605,-5.989647,-40.952003,,,,,,,
1512178572.341892,0.203073,0.379697,-2.544699,0.303435,-0.054347,-0.556952,0.187316,-0.370639,-0.909692,0.002321,0.208713,0.015435,-12.034622,-6.439537,-40.952858,,,,,,,
1512178572.361881,0.203114,0.388378,-2.559261,0.710556,-0.364551,-0.564924,0.186697,-0.378688,-0.906498,-0.031729,0.262843,0.108693,-11.583847,-6.288857,-40.731621,,,,,,,
1512178572.381902,0.200915,0.403698,-2.575962,0.988122,-0.427100,-0.592037,0.183524,-0.392822,-0.901116,-0.074988,0.256774,0.254525,-12.113571,-7.339653,-40.727638,,,,,,,
1512178572.401891,0.200316,0.421945,-2.592914,1.054455,-0.310676,-0.536303,0.181527,-0.409536,-0.894052,-0.094201,0.217275,0.360055,-12.267807,-8.314873,-40.426811,,,,,,,
1512178572.421880,0.202474,0.439780,-2.608189,0.971231,-0.148580,-0.458051,0.181958,-0.425741,-0.886361,-0.091412,0.197042,0.382333,-12.496109,-9.065224,-40.275246,,,,,,,
1512178572.441900,0.206043,0.455649,-2.622159,0.859958,-0.111422,-0.432887,0.183716,-0.440045,-0.878982,-0.072510,0.210706,0.347503,-12.278900,-10.789894,-40.352959,,,,,,,
1512178572.461889,0.209273,0.469246,-2.634905,0.721364,-0.120304,-0.367762,0.185293,-0.452214,-0.872450,-0.012640,0.186940,0.294157,-12.277405,-10.489891,-40.052818,,,,,,,
1512178572.481878,0.209824,0.479932,-2.643456,0.530305,-0.193643,-0.163973,0.184757,-0.461719,-0.867571,0.035443,0.113758,0.196383,-12.280106,-11.089897,-40.053093,,,,,,,
1512178572.501897,0.206853,0.488310,-2.646429,0.381889,-0.204961,0.043852,0.181377,-0.469134,-0.864301,0.056950,0.081347,0.126370,-12.131119,-11.314674,-40.054482,,,,,,,
1512178572.521886,0.202662,0.494909,-2.644866,0.264024,-0.136041,0.212954,0.177127,-0.474951,-0.862002,0.069486,0.043158,0.062274,-12.882614,-11.690804,-39.673271,,,,,,,
1512178572.541874,0.198400,0.499020,-2.638686,0.046094,-0.006374,0.376554,0.173065,-0.478565,-0.860828,0.080872,0.013965,0.014407,-12.958252,-11.840919,-39.597710,,,,,,,
1512178572.561894,0.194237,0.496809,-2.628215,-0.369152,0.063295,0.478454,0.169683,-0.476623,-0.862577,0.122858,0.001495,-0.052417,-13.031906,-11.541023,-39.596931,,,,,,,
1512178572.581883,0.187869,0.485501,-2.612974,-0.869415,0.026989,0.622457,0.165183,-0.466651,-0.868879,0.187569,-0.027413,-0.155764,-12.878342,-10.715797,-39.897820,,,,,,,
1512178572.601872,0.178301,0.466974,-2.594210,-1.132390,-0.086711,0.661964,0.158369,-0.450186,-0.878778,0.231142,0.001059,-0.239477,-12.347610,-9.439995,-39.901695,,,,,,,
1512178572.621891,0.167498,0.447663,-2.577234,-1.007155,-0.209168,0.559942,0.150288,-0.432860,-0.888845,0.253124,0.028258,-0.263224,-12.945312,-8.915901,-40.046364,,,,,,,
1512178572.641881,0.156116,0.433560,-2.562980,-0.691218,-0.249226,0.534530,0.141097,-0.420104,-0.896440,0.252046,0.012267,-0.238265,-13.467361,-8.241676,-40.191582,,,,,,,
1512178572.661870,0.147352,0.423342,-2.548806,-0.590954,-0.052668,0.604892,0.133858,-0.410809,-0.901841,0.186759,-0.058169,-0.110854,-13.389313,-7.566566,-40.191902,,,,,,,
1512178572.681859,0.143149,0.410986,-2.532669,-0.833883,0.227762,0.675909,0.130781,-0.399513,-0.907351,0.145525,-0.079826,-0.077085,-13.385605,-6.741554,-40.191521,,,,,,,
1512178572.701879,0.142788,0.392833,-2.516015,-1.082124,0.330069,0.607641,0.131463,-0.382807,-0.914427,0.158057,-0.009756,-0.124224,-13.157684,-6.066216,-40.418129,,,,,,,
1512178572.721868,0.143398,0.373459,-2.501983,-0.989105,0.288841,0.459596,0.133057,-0.364839,-0.921514,0.168152,0.052430,-0.151179,-12.851303,-4.640755,-40.495018,,,,,,,
1512178572.741857,0.146882,0.358793,-2.491774,-0.670401,0.427364,0.339967,0.137035,-0.351145,-0.926239,0.156148,0.053812,-0.132919,-12.546951,-3.665306,-40.572121,,,,,,,
1512178572.761876,0.155046,0.350429,-2.483922,-0.355190,0.597762,0.304618,0.145040,-0.343301,-0.927959,0.194224,0.054513,-0.116093,-12.167603,-2.689735,-40.649864,,,,,,,
1512178572.781864,0.164234,0.347659,-2.476235,-0.116747,0.580862,0.389031,0.153715,-0.340698,-0.927522,0.226183,0.033218,-0.047713,-11.720001,-3.214058,-40.728920,,,,,,,
1512178572.801829,0.171841,0.348254,-2.465461,-0.048774,0.560261,0.597827,0.160732,-0.341258,-0.926126,0.220066,0.010035,0.067529,-11.039368,-1.938042,-40.959053,,,,,,,
1512178572.821849,0.176723,0.348908,-2.449970,-0.135387,0.472129,0.803080,0.165212,-0.341872,-0.925110,0.195857,0.020186,0.143677,-10.438248,-1.712135,-40.739067,,,,,,,
1512178572.841838,0.176883,0.348210,-2.430457,-0.222482,0.248417,0.966277,0.165401,-0.341216,-0.925318,0.159611,0.042556,0.189372,-10.362015,-1.412025,-40.964561,,,,,,,
1512178572.861827,0.170421,0.348062,-2.407796,-0.160023,-0.028429,1.109073,0.159428,-0.341077,-0.926418,0.109829,0.062482,0.248317,-10.211639,-1.336800,-40.890800,,,,,,,
1512178572.881846,0.160051,0.350533,-2.383219,-0.011118,-0.108475,1.190907,0.149677,-0.343399,-0.927186,0.048702,0.074539,0.324693,-9.983704,-0.661446,-41.117393,,,,,,,
1512178572.901835,0.149629,0.356065,-2.358182,0.151519,-0.054884,1.221164,0.139721,-0.348588,-0.926803,-0.005276,0.070268,0.375900,-10.133636,-0.661674,-40.966118,,,,,,,
1512178572.921824,0.141625,0.363965,-2.332562,0.237152,0.126743,1.274210,0.131906,-0.355983,-0.925136,-0.050943,0.041926,0.398662,-10.356308,-0.137016,-41.038963,,,,,,,
1512178572.941844,0.137562,0.371938,-2.306146,0.208576,0.358505,1.273539,0.127752,-0.363421,-0.922824,-0.093283,0.023349,0.345889,-9.680603,0.014000,-40.969627,,,,,,,
1512178572.961833,0.136658,0.379278,-2.280840,0.199163,0.447285,1.201216,0.126552,-0.370249,-0.920272,-0.096171,0.024882,0.228545,-9.154434,0.314796,-41.348961,,,,,,,
1512178572.981822,0.136131,0.386847,-2.256824,0.246948,0.395133,1.146295,0.125682,-0.377271,-0.917535,-0.087444,-0.004443,0.128946,-8.930450,0.090126,-41.350975,,,,,,,
1512178573.001842,0.133782,0.395330,-2.233426,0.274905,0.296940,1.127170,0.123095,-0.385112,-0.914623,-0.105761,-0.041386,0.076687,-8.329163,0.391029,-41.505943,,,,,,,
1512178573.021831,0.129739,0.402466,-2.210698,0.158624,0.205012,1.061195,0.119038,-0.391688,-0.912365,-0.158314,-0.088231,0.050320,-8.477737,0.690804,-41.354515,,,,,,,
1512178573.041820,0.123627,0.404703,-2.189619,-0.140920,0.048875,0.924124,0.113351,-0.393745,-0.912204,-0.210397,-0.120750,0.003879,-8.026505,0.991478,-41.583214,,,,,,,
1512178573.061839,0.114964,0.398411,-2.170731,-0.587269,-0.138431,0.765624,0.105727,-0.387954,-0.915595,-0.249785,-0.145310,-0.104806,-8.023987,1.516487,-41.282967,,,,,,,
1512178573.081828,0.105307,0.382908,-2.155994,-0.985455,-0.205754,0.472853,0.097501,-0.373620,-0.922444,-0.245252,-0.113975,-0.207790,-8.020950,2.191490,-41.282661,,,,,,,
1512178573.101817,0.098951,0.361206,-2.149210,-1.135128,-0.192326,0.046439,0.092415,-0.353403,-0.930895,-0.212044,-0.056433,-0.335661,-8.166458,3.166267,-41.055931,,,,,,,
1512178573.121837,0.095133,0.342248,-2.151724,-0.735255,-0.272108,-0.351014,0.089480,-0.335605,-0.937743,-0.198901,-0.058315,-0.437501,-8.311096,4.366051,-41.129097,,,,,,,
1512178573.141826,0.091793,0.335661,-2.163400,-0.017247,-0.381387,-0.713045,0.086549,-0.329394,-0.940218,-0.239472,-0.101881,-0.442351,-8.761612,4.215385,-40.825356,,,,,,,
1512178573.161815,0.094073,0.337030,-2.183659,0.160599,-0.084516,-1.076164,0.088650,-0.330685,-0.939568,-0.241818,-0.152789,-0.360999,-8.914734,3.540154,-40.974373,,,,,,,
1512178573.181834,0.106668,0.333537,-2.210041,-0.200531,0.361943,-1.328232,0.100599,-0.327388,-0.939520,-0.111371,-0.142949,-0.396525,-8.989761,3.540047,-41.048744,,,,,,,
1512178573.201823,0.124680,0.324407,-2.237102,-0.280026,0.450398,-1.287501,0.117871,-0.318747,-0.940482,0.007267,-0.069834,-0.535043,-8.988159,3.915047,-41.198570,,,,,,,
1512178573.221812,0.138189,0.321970,-2.262975,0.287708,0.145607,-1.208910,0.130672,-0.316436,-0.939571,0.019734,0.065017,-0.536320,-8.840439,3.390266,-41.050087,,,,,,,
1512178573.241832,0.148721,0.332586,-2.291535,0.940587,0.073085,-1.305245,0.140054,-0.326488,-0.934767,-0.094720,0.121136,-0.368577,-8.991898,3.090034,-41.273949,,,,,,,
1512178573.261821,0.162738,0.350735,-2.324812,1.205389,0.181674,-1.454542,0.152156,-0.343588,-0.926712,-0.140957,0.101370,-0.201141,-9.147491,1.889809,-41.648232,,,,,,,
1512178573.281810,0.179011,0.368387,-2.359550,1.068441,0.208108,-1.423387,0.166111,-0.360111,-0.918002,-0.144458,0.060932,-0.078245,-9.078339,0.614906,-41.874458,,,,,,,
1512178573.301829,0.195085,0.379712,-2.391443,0.667853,0.233975,-1.307569,0.180042,-0.370653,-0.911154,-0.142445,0.054903,0.003546,-8.932281,-0.284874,-41.651146,,,,,,,
1512178573.321818,0.210466,0.382328,-2.419705,0.236932,0.235297,-1.228522,0.193831,-0.373082,-0.907326,-0.104766,0.090977,0.027138,-8.857361,-0.284767,-41.801796,,,,,,,
1512178573.341807,0.222604,0.378627,-2.444658,0.002745,0.074510,-1.128001,0.205133,-0.369645,-0.906246,-0.053003,0.126908,0.012982,-9.085846,-1.035103,-42.025215,,,,,,,
1512178573.361827,0.228853,0.374890,-2.467295,0.131960,-0.227792,-1.026971,0.211105,-0.366170,-0.906286,-0.016097,0.175207,0.012319,-9.010101,-0.884987,-41.875786,,,,,,,
1512178573.381816,0.228860,0.377407,-2.489873,0.501830,-0.493318,-0.972433,0.210901,-0.368511,-0.905384,-0.011225,0.221279,0.086567,-9.312576,-1.410439,-42.098473,,,,,,,
1512178573.401805,0.226057,0.387187,-2.512847,0.834054,-0.600857,-0.889102,0.207545,-0.377585,-0.902416,-0.016688,0.212759,0.182079,-9.990829,-2.161461,-41.868095,,,,,,,
1512178573.421824,0.222512,0.403042,-2.535039,1.089057,-0.584677,-0.772350,0.202998,-0.392218,-0.897194,-0.032694,0.205634,0.277824,-10.445633,-3.212151,-42.014748,,,,,,,
1512178573.441814,0.220273,0.423445,-2.555750,1.250350,-0.488519,-0.657743,0.199198,-0.410904,-0.889651,-0.049784,0.200424,0.345659,-11.125931,-4.413170,-41.784569,,,,,,,
1512178573.461803,0.220090,0.445065,-2.574583,1.215829,-0.352032,-0.561823,0.197049,-0.430517,-0.880810,-0.063871,0.191350,0.379147,-11.505951,-5.538734,-41.706902,,,,,,,
1512178573.481822,0.222090,0.465259,-2.591752,1.112735,-0.237994,-0.510683,0.196855,-0.448654,-0.871755,-0.069216,0.202179,0.365850,-11.735229,-6.514076,-41.480431,,,,,,,
1512178573.501811,0.225778,0.483886,-2.608458,1.057469,-0.171836,-0.517650,0.198163,-0.465223,-0.862728,-0.052427,0.216627,0.337383,-12.040558,-7.714546,-41.328438,,,,,,,
1512178573.521800,0.230038,0.501520,-2.624597,0.977675,-0.165657,-0.462283,0.199936,-0.480759,-0.853754,-0.027694,0.179291,0.303171,-12.121628,-9.064659,-41.328423,,,,,,,
1512178573.541789,0.233197,0.515756,-2.638342,0.715182,-0.177968,-0.384045,0.201029,-0.493193,-0.846374,0.018194,0.137892,0.270888,-12.650375,-9.890450,-41.399345,,,,,,,
1512178573.561809,0.233943,0.523203,-2.647056,0.281324,-0.167261,-0.190940,0.200803,-0.499657,-0.842627,0.078753,0.064140,0.167136,-12.426285,-10.115120,-41.176369,,,,,,,
1512178573.581798,0.231890,0.524546,-2.648363,-0.021267,-0.096652,0.060776,0.198919,-0.500820,-0.842384,0.150325,0.040234,0.075416,-12.799820,-9.815681,-40.948036,,,,,,,
1512178573.601787,0.229517,0.522920,-2.642162,-0.207442,0.133183,0.372301,0.197104,-0.499412,-0.843646,0.199853,0.013434,0.002139,-12.801392,-10.115685,-41.398170,,,,,,,
1512178573.621806,0.226528,0.519485,-2.627454,-0.378046,0.239089,0.702808,0.194966,-0.496433,-0.845897,0.240810,0.020313,-0.110188,-13.024597,-9.741020,-41.171089,,,,,,,
1512178573.641795,0.219946,0.513588,-2.607044,-0.544515,0.118934,0.836435,0.190029,-0.491306,-0.850005,0.255207,0.050784,-0.183580,-12.647644,-9.290459,-41.324074,,,,,,,
1512178573.661784,0.208545,0.504934,-2.585934,-0.672826,-0.157819,0.781375,0.181200,-0.483750,-0.856244,0.232481,0.039322,-0.185642,-12.569641,-8.615334,-41.399391,,,,,,,
1512178573.681804,0.193309,0.490990,-2.566233,-1.010252,-0.350401,0.676674,0.169413,-0.471499,-0.865441,0.184515,-0.024900,-0.109260,-13.390625,-7.716560,-41.466972,,,,,,,
1512178573.701793,0.176650,0.465303,-2.544975,-1.736129,-0.293948,0.737780,0.157050,-0.448693,-0.879778,0.153558,-0.119071,-0.064299,-13.459930,-6.441673,-41.540749,,,,,,,
1512178573.721782,0.161492,0.424311,-2.519977,-2.442308,-0.190406,0.770553,0.146533,-0.411693,-0.899465,0.186811,-0.045140,-0.180720,-13.904984,-5.317329,-41.761406,,,,,,,
1512178573.741801,0.147589,0.376531,-2.496504,-2.483010,-0.263935,0.649243,0.136752,-0.367697,-0.919836,0.199109,0.091421,-0.331034,-14.118805,-2.842659,-41.683342,,,,,,,
1512178573.761790,0.135903,0.336248,-2.480248,-1.797946,-0.306090,0.348799,0.127898,-0.329947,-0.935295,0.171068,0.177573,-0.394157,-14.484436,-0.743202,-41.829185,,,,,,,
1512178573.781779,0.129311,0.314618,-2.475434,-0.659977,-0.175357,-0.062817,0.122622,-0.309453,-0.942976,0.156675,0.200597,-0.330462,-14.702835,0.681465,-41.451622,,,,,,,
1512178573.801774,0.134152,0.313540,-2.480276,0.288484,0.407611,-0.273051,0.127229,-0.308428,-0.942701,0.196272,0.095919,-0.157504,-14.926453,0.981133,-41.374565,,,,,,,
1512178573.821763,0.150468,0.324532,-2.485671,0.679682,0.901281,-0.052454,0.142076,-0.318866,-0.937091,0.263838,-0.036008,-0.016370,-14.254257,0.382149,-41.605583,,,,,,,
1512178573.841752,0.171584,0.337682,-2.482767,0.536404,1.193843,0.440073,0.161100,-0.331301,-0.929670,0.278002,-0.097989,0.071622,-13.880386,0.157707,-41.833870,,,,,,,
1512178573.861771,0.189112,0.346384,-2.469352,0.177943,0.974608,0.833890,0.176821,-0.339499,-0.923837,0.247694,-0.047372,0.077554,-12.532516,-0.290276,-42.070549,,,,,,,
1512178573.881760,0.194146,0.350119,-2.449625,-0.077010,0.343638,1.007099,0.181224,-0.343009,-0.921685,0.181218,0.038520,0.097664,-12.232971,-0.364830,-42.298134,,,,,,,
1512178573.901749,0.185582,0.351670,-2.427257,-0.122251,-0.241931,1.071568,0.173226,-0.344466,-0.922679,0.109474,0.088012,0.178095,-11.854172,0.460747,-42.150948,,,,,,,
1512178573.921769,0.170149,0.354855,-2.404918,0.050544,-0.400805,1.057526,0.158779,-0.347455,-0.924156,0.052250,0.106961,0.305595,-12.303909,0.535072,-42.297081,,,,,,,
1512178573.941758,0.157372,0.363024,-2.383520,0.358452,-0.140810,1.081013,0.146509,-0.355102,-0.923275,0.024786,0.086700,0.416561,-12.676849,0.984505,-42.218681,,,,,,,
1512178573.961747,0.151730,0.376979,-2.361005,0.611706,0.300522,1.196025,0.140535,-0.368114,-0.919099,-0.003434,0.054637,0.467072,-12.752869,0.759392,-42.218147,,,,,,,
1512178573.981767,0.153998,0.393595,-2.336691,0.639620,0.715945,1.268231,0.141662,-0.383511,-0.912607,-0.025191,0.039532,0.456064,-12.078613,0.610405,-42.373955,,,,,,,
1512178574.001756,0.159889,0.408625,-2.310852,0.491832,0.803229,1.314371,0.146100,-0.397348,-0.905963,-0.033063,0.018228,0.356769,-12.003128,0.760521,-42.749519,,,,,,,
1512178574.021745,0.163238,0.419221,-2.283934,0.198801,0.643646,1.297840,0.148441,-0.407049,-0.901264,-0.037571,-0.012339,0.257480,-11.179169,0.536751,-42.831627,,,,,,,
1512178574.041764,0.161797,0.422187,-2.256447,-0.207809,0.393168,1.248438,0.146948,-0.409757,-0.900281,-0.032995,-0.061526,0.138089,-9.902298,0.988670,-43.142265,,,,,,,
1512178574.061753,0.154802,0.418385,-2.228643,-0.471965,0.122561,1.221281,0.140885,-0.406285,-0.902820,-0.031998,-0.097850,0.012149,-9.899628,1.588676,-43.216988,,,,,,,
1512178574.081742,0.143906,0.411643,-2.201157,-0.542222,-0.022795,1.208031,0.131430,-0.400115,-0.906992,-0.039358,-0.125580,-0.046576,-9.670853,2.414024,-43.068520,,,,,,,
1512178574.101762,0.132369,0.403120,-2.172615,-0.660315,0.012171,1.259744,0.121403,-0.392290,-0.911795,-0.084721,-0.171614,-0.099939,-9.443069,3.014366,-42.920158,,,,,,,
1512178574.121751,0.122056,0.389415,-2.144106,-0.979870,0.041747,1.180592,0.112638,-0.379647,-0.918249,-0.128232,-0.155219,-0.196574,-9.663651,3.989021,-42.842796,,,,,,,
1512178574.141740,0.111997,0.368532,-2.119548,-1.252364,-0.131142,0.888206,0.104259,-0.360247,-0.927013,-0.164897,-0.091978,-0.353536,-9.432907,5.264381,-42.844109,,,,,,,
1512178574.161759,0.100289,0.345698,-2.105031,-1.112348,-0.451359,0.333705,0.094198,-0.338853,-0.936112,-0.198171,-0.030852,-0.462143,-9.878067,6.313713,-42.614815,,,,,,,
1512178574.181748,0.088303,0.330616,-2.105705,-0.490373,-0.659489,-0.350945,0.083412,-0.324625,-0.942158,-0.253166,-0.043173,-0.457638,-10.701538,6.612465,-42.232658,,,,,,,
1512178574.201737,0.082141,0.328195,-2.120664,0.150953,-0.404276,-0.894051,0.077669,-0.322335,-0.943434,-0.302462,-0.150733,-0.344606,-11.301117,6.686577,-42.077522,,,,,,,
1512178574.221757,0.091659,0.331296,-2.144682,0.234623,0.442484,-1.207579,0.086554,-0.325269,-0.941652,-0.266470,-0.246127,-0.248884,-11.452805,6.386345,-42.751381,,,,,,,
1512178574.241746,0.119953,0.331352,-2.171195,0.100014,1.240243,-1.215280,0.113156,-0.325322,-0.938809,-0.109784,-0.208782,-0.364216,-10.480804,5.712807,-42.684990,,,,,,,
1512178574.261735,0.153557,0.333682,-2.195432,0.445813,1.206257,-1.047282,0.144518,-0.327524,-0.933725,0.010267,-0.048071,-0.552512,-9.583023,5.264153,-43.067848,,,,,,,
1512178574.281754,0.178112,0.347612,-2.219896,1.136759,0.552458,-1.023556,0.166575,-0.340653,-0.925315,-0.012278,0.088471,-0.534936,-9.212891,4.214699,-43.371513,,,,,,,
1512178574.301743,0.191688,0.370544,-2.249769,1.459792,-0.058687,-1.249142,0.177586,-0.362123,-0.915057,-0.121434,0.128557,-0.330441,-9.292999,3.089577,-43.446404,,,,,,,
1512178574.321732,0.198325,0.392469,-2.285445,1.309836,-0.437663,-1.482900,0.182047,-0.382471,-0.905856,-0.178232,0.099924,-0.105024,-9.900497,1.438667,-43.592049,,,,,,,
1512178574.341752,0.204998,0.408254,-2.323339,1.020247,-0.324712,-1.564524,0.186836,-0.397008,-0.898597,-0.226386,0.046635,0.048912,-10.579880,0.462654,-43.586769,,,,,,,
1512178574.361741,0.219357,0.419913,-2.361379,0.904409,0.159005,-1.562385,0.198698,-0.407681,-0.891244,-0.200392,0.052746,0.115456,-10.585022,-0.662361,-43.737297,,,,,,,
1512178574.381730,0.243675,0.431140,-2.397722,0.954360,0.609541,-1.402319,0.219192,-0.417907,-0.881651,-0.146606,0.068267,0.061995,-10.215805,-1.936806,-43.816063,,,,,,,
1512178574.401749,0.270466,0.444715,-2.430544,1.083776,0.625298,-1.169056,0.241192,-0.430201,-0.869916,-0.096692,0.131068,-0.015994,-9.697464,-3.361031,-44.346184,,,,,,,
1512178574.421738,0.292738,0.461828,-2.460996,1.279405,0.326214,-1.022277,0.258343,-0.445586,-0.857153,-0.088055,0.202315,-0.011468,-9.403091,-4.635582,-44.124321,,,,,,,
1512178574.441727,0.308620,0.482784,-2.491592,1.465724,-0.017586,-0.960010,0.269028,-0.464247,-0.843860,-0.105728,0.250013,0.063586,-9.183075,-5.760246,-43.976753,,,,,,,
1512178574.461716,0.319986,0.505955,-2.522312,1.529438,-0.226993,-0.890521,0.275143,-0.484643,-0.830311,-0.128888,0.257379,0.175908,-9.189423,-7.185265,-43.827415,,,,,,,
1512178574.481736,0.327535,0.529022,-2.551638,1.458351,-0.406752,-0.789832,0.277732,-0.504689,-0.817407,-0.130042,0.253972,0.259927,-9.646515,-8.760948,-43.824318,,,,,,,
1512178574.501725,0.331209,0.549922,-2.577956,1.273164,-0.520476,-0.685241,0.277243,-0.522621,-0.806228,-0.143958,0.253624,0.330581,-9.801651,-9.961174,-43.298592,,,,,,,
1512178574.521714,0.332786,0.566704,-2.600650,0.995558,-0.501852,-0.593252,0.275610,-0.536854,-0.797387,-0.143621,0.250142,0.374795,-10.405243,-10.787086,-43.068886,,,,,,,
1512178574.541734,0.333967,0.578952,-2.619360,0.750947,-0.394535,-0.494081,0.274375,-0.547147,-0.790790,-0.123420,0.244581,0.372363,-11.233475,-11.538322,-42.762215,,,,,,,
1512178574.561723,0.335637,0.589228,-2.634449,0.671096,-0.303039,-0.365924,0.273829,-0.555719,-0.784980,-0.093928,0.234003,0.323142,-10.863846,-12.737770,-42.690956,,,,,,,
1512178574.581712,0.336190,0.599455,-2.646144,0.605951,-0.286322,-0.229290,0.272374,-0.564193,-0.779422,-0.066487,0.222792,0.293613,-11.089371,-12.888115,-42.389122,,,,,,,
1512178574.601731,0.335180,0.607371,-2.653641,0.365136,-0.243139,-0.104702,0.270109,-0.570710,-0.775455,-0.047392,0.180070,0.274738,-11.468002,-13.713676,-42.236305,,,,,,,
1512178574.621720,0.331118,0.609071,-2.654443,-0.102661,-0.201487,0.079492,0.266641,-0.572106,-0.775627,-0.024103,0.115044,0.210106,-11.770630,-14.314140,-42.084038,,,,,,,
1512178574.641709,0.323807,0.601774,-2.647026,-0.650847,-0.103277,0.227535,0.262285,-0.566106,-0.781492,0.008086,0.110494,0.133604,-11.917587,-13.639351,-42.082451,,,,,,,
1512178574.661729,0.316001,0.584930,-2.634675,-1.137577,-0.015311,0.204801,0.259103,-0.552141,-0.792468,0.045066,0.142321,0.005862,-12.139374,-12.889687,-42.380196,,,,,,,
1512178574.681718,0.307357,0.559120,-2.622058,-1.533131,-0.164135,0.070623,0.256470,-0.530440,-0.807995,0.120483,0.156234,-0.131824,-11.907318,-11.314339,-42.456383,,,,,,,
1512178574.701707,0.294098,0.527519,-2.610621,-1.690503,-0.478215,-0.032956,0.250470,-0.503391,-0.826959,0.199695,0.120731,-0.212790,-12.352966,-10.340004,-42.527107,,,,,,,
1512178574.721726,0.277727,0.495212,-2.602751,-1.608688,-0.681876,-0.156144,0.241234,-0.475218,-0.846152,0.248924,0.063063,-0.193734,-13.022903,-9.216011,-42.520851,,,,,,,
1512178574.741715,0.261421,0.463622,-2.596129,-1.640816,-0.589141,-0.077395,0.231170,-0.447191,-0.864049,0.243775,-0.059828,-0.117274,-13.542923,-8.091789,-42.665855,,,,,,,
1512178574.761704,0.250442,0.428090,-2.584143,-2.028699,-0.057255,0.196005,0.225468,-0.415134,-0.881379,0.215008,-0.147336,-0.090835,-13.835495,-6.442223,-42.662544,,,,,,,
1512178574.781724,0.247615,0.384847,-2.564767,-2.447483,0.341214,0.399207,0.227165,-0.375417,-0.898587,0.244499,-0.063548,-0.252704,-13.902100,-4.567329,-42.736046,,,,,,,
1512178574.801708,0.245537,0.339209,-2.544234,-2.378586,0.161964,0.350546,0.229226,-0.332741,-0.914734,0.270881,0.060585,-0.460174,-13.592712,-2.466866,-42.887627,,,,,,,
1512178574.821697,0.237812,0.301384,-2.530028,-1.716344,-0.381345,0.116254,0.224959,-0.296842,-0.928051,0.278337,0.121793,-0.530705,-13.735260,-0.817085,-42.810585,,,,,,,
1512178574.841716,0.223810,0.278054,-2.525511,-0.891761,-0.693665,-0.125546,0.213422,-0.274485,-0.937608,0.243304,0.085353,-0.378203,-14.330460,0.232033,-42.655006,,,,,,,
1512178574.861705,0.212485,0.267462,-2.527390,-0.301917,-0.468297,-0.198302,0.203391,-0.264284,-0.942754,0.226022,-0.019224,-0.131037,-15.076599,1.055916,-42.348259,,,,,,,
1512178574.881694,0.209526,0.265314,-2.529287,-0.000906,0.012474,-0.003573,0.200718,-0.262212,-0.943905,0.232280,-0.110133,0.052716,-15.301407,1.055565,-41.971336,,,,,,,
1512178574.901714,0.213044,0.266574,-2.524922,-0.010278,0.327872,0.385430,0.203968,-0.263428,-0.942869,0.229473,-0.151596,0.135649,-15.301819,0.980568,-42.121376,,,,,,,
1512178574.921703,0.215711,0.267017,-2.512307,-0.172797,0.243617,0.733516,0.206457,-0.263855,-0.942208,0.196894,-0.113434,0.155999,-14.925171,1.356133,-42.199394,,,,,,,
1512178574.941692,0.212152,0.265961,-2.493948,-0.271057,-0.042117,0.925123,0.203160,-0.262837,-0.943209,0.118693,-0.045009,0.175295,-14.847168,2.031258,-42.274727,,,,,,,
1512178574.961711,0.202965,0.265112,-2.474139,-0.197791,-0.267408,0.931797,0.194532,-0.262017,-0.945254,0.052202,0.018899,0.224230,-14.921829,2.106148,-42.274055,,,,,,,
1512178574.981700,0.192439,0.267596,-2.455699,0.042440,-0.250978,0.909747,0.184447,-0.264414,-0.946607,0.014497,0.025431,0.306180,-15.145142,2.480812,-42.271965,,,,,,,
1512178575.001690,0.185709,0.275050,-2.437527,0.285722,0.030204,0.975017,0.177703,-0.271595,-0.945863,-0.010833,-0.002498,0.379411,-15.444366,2.630363,-42.044334,,,,,,,
1512178575.021709,0.185458,0.286437,-2.418606,0.435560,0.384984,1.021064,0.176884,-0.282536,-0.942807,-0.049260,0.004414,0.407864,-14.992676,3.006035,-42.047997,,,,,,,
1512178575.041698,0.191258,0.298845,-2.399930,0.427637,0.653136,0.997363,0.181669,-0.294417,-0.938251,-0.067579,0.000487,0.380909,-15.069839,2.555916,-42.347557,,,,,,,
1512178575.061687,0.199572,0.309816,-2.381810,0.316512,0.678701,0.950004,0.188811,-0.304884,-0.933486,-0.064314,-0.015398,0.286895,-14.546005,2.331703,-42.652122,,,,,,,
1512178575.081707,0.205045,0.317135,-2.364114,0.097739,0.453098,0.888482,0.193458,-0.311846,-0.930229,-0.054206,-0.038328,0.149864,-13.869614,2.632729,-42.582726,,,,,,,
1512178575.101696,0.204180,0.319721,-2.346914,-0.111334,0.091874,0.813836,0.192489,-0.314302,-0.929603,-0.034545,-0.045088,0.043815,-13.193863,2.783730,-42.438393,,,,,,,
1512178575.121685,0.196678,0.319282,-2.329754,-0.224611,-0.195650,0.816525,0.185537,-0.313884,-0.931157,-0.028646,-0.090946,-0.026561,-13.192551,3.083733,-42.513252,,,,,,,
1512178575.141704,0.184412,0.317389,-2.311989,-0.274979,-0.401900,0.822540,0.174210,-0.312088,-0.933944,-0.053605,-0.126771,-0.087235,-13.490417,3.533287,-42.285500,,,,,,,
1512178575.161693,0.169888,0.313164,-2.294867,-0.425052,-0.460720,0.740206,0.160849,-0.308070,-0.937667,-0.109534,-0.140737,-0.126770,-14.311554,4.357063,-41.978111,,,,,,,
1512178575.181682,0.156297,0.304423,-2.280404,-0.604493,-0.449969,0.568142,0.148504,-0.299743,-0.942391,-0.131170,-0.132249,-0.210960,-14.836594,4.356270,-42.048637,,,,,,,
1512178575.201702,0.144167,0.293936,-2.270329,-0.544241,-0.453573,0.275836,0.137506,-0.289721,-0.947182,-0.137018,-0.118009,-0.253410,-15.054886,5.780937,-41.446068,,,,,,,
1512178575.221691,0.135122,0.287135,-2.269693,-0.196025,-0.428699,-0.152921,0.129196,-0.283205,-0.950317,-0.178330,-0.044523,-0.338638,-15.580856,5.555153,-41.366722,,,,,,,
1512178575.241680,0.129340,0.287347,-2.279086,0.205588,-0.402657,-0.586226,0.123692,-0.283409,-0.950989,-0.208866,-0.087577,-0.322769,-16.181534,5.404243,-41.361687,,,,,,,
1512178575.261699,0.128641,0.291114,-2.297240,0.288449,-0.166823,-0.945602,0.122889,-0.287019,-0.950010,-0.219111,-0.168608,-0.250964,-16.409195,4.803902,-41.285042,,,,,,,
1512178575.281688,0.140955,0.289405,-2.319831,-0.121841,0.605187,-1.109833,0.134647,-0.285382,-0.948909,-0.160281,-0.234607,-0.258352,-16.336487,4.279015,-41.135933,,,,,,,
1512178575.301677,0.166248,0.280174,-2.341856,-0.320247,1.097265,-1.077945,0.159031,-0.276523,-0.947757,-0.001682,-0.130993,-0.466641,-15.660919,4.430031,-41.366600,,,,,,,
1512178575.321666,0.191367,0.276367,-2.362615,0.273175,0.799870,-0.941392,0.182983,-0.272862,-0.944491,0.138916,0.028004,-0.650953,-15.063766,3.830925,-41.671974,,,,,,,
1512178575.341686,0.203788,0.289502,-2.385119,1.169924,0.025697,-0.926830,0.193958,-0.285475,-0.938554,0.119152,0.123579,-0.564833,-15.066803,3.155922,-41.672279,,,,,,,
1512178575.361675,0.207054,0.312840,-2.412315,1.453422,-0.318620,-1.068906,0.195600,-0.307762,-0.931141,-0.019666,0.105095,-0.242993,-15.601593,0.980125,-41.668831,,,,,,,
1512178575.381664,0.210865,0.334688,-2.442099,1.274858,-0.218299,-1.160692,0.197692,-0.328475,-0.923592,-0.085098,0.050353,0.019173,-15.759140,-0.670113,-41.893318,,,,,,,
1512178575.401683,0.219991,0.351283,-2.470599,0.970766,0.128203,-1.063686,0.204895,-0.344103,-0.916303,-0.104171,-0.012297,0.168684,-15.761459,-1.195122,-41.818550,,,,,,,
1512178575.421672,0.234934,0.361786,-2.493851,0.621950,0.450904,-0.839474,0.217710,-0.353946,-0.909574,-0.082532,-0.020063,0.189512,-15.768066,-2.695122,-41.519249,,,,,,,
1512178575.441661,0.250111,0.367283,-2.511411,0.389486,0.408502,-0.643636,0.231004,-0.359081,-0.904267,-0.059663,0.044308,0.127869,-15.320877,-3.294456,-41.748360,,,,,,,
1512178575.461681,0.259812,0.371330,-2.525194,0.355001,0.131512,-0.505446,0.239390,-0.362855,-0.900571,-0.064784,0.111360,0.099469,-14.797928,-3.743675,-41.828026,,,,,,,
1512178575.481670,0.262683,0.377019,-2.537600,0.464768,-0.189953,-0.454872,0.241434,-0.368150,-0.897872,-0.092402,0.166582,0.124694,-14.877289,-4.718788,-41.752831,,,,,,,
1512178575.501659,0.261312,0.384982,-2.550816,0.583570,-0.347793,-0.491012,0.239439,-0.375543,-0.895342,-0.125349,0.198129,0.206163,-15.178864,-5.094246,-41.525459,,,,,,,
1512178575.521679,0.260637,0.395157,-2.566032,0.713556,-0.268437,-0.547486,0.237837,-0.384953,-0.891765,-0.146468,0.200459,0.284785,-16.010315,-6.520500,-41.594109,,,,,,,
1512178575.541668,0.264117,0.407293,-2.582623,0.805638,-0.062103,-0.561424,0.239701,-0.396126,-0.886356,-0.137056,0.181755,0.324329,-15.862228,-6.970268,-41.370583,,,,,,,
1512178575.561657,0.271186,0.419987,-2.598665,0.786388,0.087261,-0.486562,0.244594,-0.407748,-0.879724,-0.104152,0.156802,0.318720,-15.567169,-8.094826,-41.148659,,,,,,,
1512178575.581676,0.278373,0.431515,-2.611982,0.652046,0.080397,-0.355270,0.249602,-0.418247,-0.873366,-0.072295,0.146183,0.278090,-15.420441,-8.844612,-40.925270,,,,,,,
1512178575.601665,0.282455,0.440507,-2.621673,0.492184,-0.053610,-0.235456,0.252107,-0.426398,-0.868693,-0.044115,0.154532,0.211313,-15.422806,-9.369606,-40.925514,,,,,,,
1512178575.621654,0.281154,0.447510,-2.628165,0.366449,-0.278351,-0.120794,0.250142,-0.432722,-0.866130,-0.024251,0.157591,0.154475,-15.351364,-10.194511,-40.626549,,,,,,,
1512178575.641674,0.274797,0.452862,-2.632317,0.264343,-0.454844,-0.079179,0.243999,-0.437541,-0.865461,-0.039775,0.157848,0.121061,-15.802307,-10.420189,-40.472832,,,,,,,
1512178575.661663,0.267101,0.456172,-2.635715,0.156648,-0.421902,-0.076362,0.236947,-0.440515,-0.865911,-0.027597,0.119913,0.091085,-15.801849,-10.345177,-40.247795,,,,,,,
1512178575.681652,0.261459,0.458682,-2.637759,0.138491,-0.242617,-0.000308,0.231771,-0.442767,-0.866164,0.006434,0.089343,0.055205,-16.029434,-10.945518,-40.021156,,,,,,,
1512178575.701671,0.259428,0.461412,-2.637436,0.092036,0.020928,0.114002,0.229701,-0.445213,-0.865461,0.037709,0.063774,0.043241,-16.105682,-11.245628,-39.795647,,,,,,,
1512178575.721660,0.260373,0.461365,-2.633456,-0.170016,0.190124,0.239788,0.230525,-0.445171,-0.865264,0.071050,0.028743,-0.005174,-15.803314,-10.720192,-39.797966,,,,,,,
1512178575.741649,0.259386,0.454562,-2.624887,-0.599135,0.100622,0.334536,0.230442,-0.439068,-0.868398,0.111797,0.000424,-0.077906,-15.954285,-10.945412,-39.721794,,,,,,,
1512178575.761669,0.253226,0.440095,-2.613833,-0.931390,-0.177554,0.298902,0.226655,-0.426025,-0.875860,0.147154,-0.015778,-0.157633,-15.500946,-10.194725,-39.800270,,,,,,,
1512178575.781658,0.241214,0.421116,-2.603356,-1.102080,-0.455405,0.228301,0.218011,-0.408779,-0.886211,0.172553,-0.066944,-0.141468,-15.948593,-9.670403,-39.796196,,,,,,,
1512178575.801610,0.230048,0.398345,-2.592474,-1.330008,-0.176014,0.294200,0.210171,-0.387893,-0.897422,0.167866,-0.168900,-0.025597,-16.243896,-8.620842,-39.868172,,,,,,,
1512178575.821629,0.229060,0.371284,-2.575417,-1.590711,0.540769,0.623395,0.211591,-0.362812,-0.907522,0.249789,-0.202083,-0.060709,-16.163834,-7.495720,-39.868294,,,,,,,
1512178575.841618,0.236355,0.342661,-2.550101,-1.696369,0.895628,0.970632,0.220548,-0.335994,-0.915678,0.352405,-0.095021,-0.259569,-15.408966,-6.369591,-40.249138,,,,,,,
1512178575.861607,0.241958,0.316710,-2.519737,-1.504818,0.634886,1.172922,0.227688,-0.311442,-0.922584,0.397343,0.020167,-0.475227,-14.950928,-4.568901,-40.402138,,,,,,,
1512178575.881627,0.237155,0.299473,-2.490779,-0.940408,-0.070205,1.110419,0.224481,-0.295017,-0.928748,0.384726,0.141758,-0.523660,-14.495346,-3.293221,-40.705376,,,,,,,
1512178575.901616,0.222553,0.292779,-2.468899,-0.381638,-0.525028,0.884531,0.211328,-0.288614,-0.933832,0.295508,0.164591,-0.346258,-14.867233,-2.618782,-40.551872,,,,,,,
1512178575.921605,0.207732,0.292690,-2.452122,-0.086826,-0.422915,0.788945,0.197470,-0.288529,-0.936887,0.235437,0.100861,-0.114551,-14.866074,-2.393776,-40.251778,,,,,,,
1512178575.941624,0.198590,0.296425,-2.435667,0.076030,-0.074620,0.886332,0.188683,-0.292103,-0.937590,0.220359,0.043232,0.045469,-15.314941,-2.169456,-40.022850,,,,,,,
1512178575.961613,0.194690,0.303421,-2.415785,0.192905,0.183611,1.117062,0.184625,-0.298786,-0.936291,0.210090,0.039204,0.120159,-15.388901,-1.944557,-39.947090,,,,,,,
1512178575.981602,0.190722,0.313061,-2.391610,0.279139,0.147026,1.315402,0.180354,-0.307972,-0.934144,0.164343,0.071400,0.167665,-14.864197,-2.018776,-39.876595,,,,,,,
1512178576.001622,0.183461,0.324812,-2.365130,0.374854,0.007100,1.387730,0.172894,-0.319130,-0.931807,0.087802,0.114510,0.236631,-14.787811,-1.718651,-39.802086,,,,,,,
1512178576.021611,0.173609,0.338289,-2.338621,0.468946,-0.069630,1.366436,0.162948,-0.331874,-0.929144,0.004547,0.138377,0.334066,-14.864044,-2.018776,-39.576591,,,,,,,
1512178576.041600,0.164306,0.352452,-2.313467,0.496206,0.014992,1.269048,0.153513,-0.345200,-0.925889,-0.073069,0.143814,0.428315,-15.165054,-2.244225,-39.574150,,,,,,,
1512178576.061620,0.159772,0.364839,-2.291233,0.388739,0.287603,1.076551,0.148622,-0.356799,-0.922283,-0.134721,0.134692,0.488171,-15.090027,-2.244118,-39.499794,,,,,,,
1512178576.081609,0.162247,0.373714,-2.272449,0.241475,0.568649,0.904824,0.150386,-0.365076,-0.918751,-0.149516,0.098108,0.462193,-14.714722,-2.168556,-39.577934,,,,,,,
1512178576.101598,0.169496,0.379898,-2.255673,0.132096,0.740624,0.822817,0.156659,-0.370825,-0.915394,-0.128949,0.066275,0.380055,-13.664719,-2.166969,-39.586861,,,,,,,
1512178576.121587,0.178835,0.384101,-2.239613,0.046512,0.789720,0.779107,0.164922,-0.374725,-0.912350,-0.120549,0.036087,0.262264,-12.914490,-2.090843,-39.818199,,,,,,,
1512178576.141606,0.189535,0.387245,-2.224777,0.012693,0.848579,0.699936,0.174451,-0.377639,-0.909371,-0.098508,0.009521,0.156716,-12.689346,-2.090508,-39.520119,,,,,,,
1512178576.161595,0.201247,0.389057,-2.210589,-0.083128,0.861259,0.692192,0.184953,-0.379316,-0.906593,-0.062394,-0.042833,0.026482,-11.640793,-2.388939,-39.754173,,,,,,,
1512178576.181584,0.210559,0.389596,-2.195808,-0.127213,0.660348,0.705781,0.193344,-0.379815,-0.904632,-0.055618,-0.078544,-0.120210,-11.039978,-2.163033,-40.134178,,,,,,,
1512178576.201604,0.213703,0.389948,-2.180556,-0.157756,0.334448,0.731922,0.196159,-0.380140,-0.903889,-0.075355,-0.116320,-0.207485,-10.362915,-1.712013,-40.064705,,,,,,,
1512178576.221593,0.210231,0.387890,-2.164843,-0.337329,0.014882,0.680235,0.193182,-0.378236,-0.905328,-0.118201,-0.127852,-0.268897,-9.461853,-1.485664,-39.997246,,,,,,,
1512178576.241582,0.200533,0.380851,-2.151653,-0.549430,-0.390926,0.464673,0.184920,-0.371711,-0.909745,-0.143050,-0.090783,-0.332168,-9.312119,-1.560448,-39.848549,,,,,,,
1512178576.261601,0.184192,0.369936,-2.144042,-0.616864,-0.815527,0.137070,0.170763,-0.361556,-0.916579,-0.163148,-0.067903,-0.365769,-10.133865,-0.886681,-39.391228,,,,,,,
1512178576.281590,0.165078,0.359454,-2.145789,-0.417362,-1.023786,-0.270131,0.153827,-0.351763,-0.923364,-0.203036,-0.070524,-0.324805,-11.034164,-0.963020,-39.308617,,,,,,,
1512178576.301579,0.148611,0.354009,-2.156257,-0.059583,-0.938147,-0.629244,0.138883,-0.346661,-0.927652,-0.247999,-0.123219,-0.242621,-11.481644,-0.438698,-39.004555,,,,,,,
1512178576.321599,0.140787,0.354051,-2.174317,0.178846,-0.493931,-0.908883,0.131619,-0.346700,-0.928695,-0.279965,-0.166254,-0.114884,-11.557144,-0.588814,-38.628990,,,,,,,
1512178576.341588,0.148414,0.351487,-2.196391,-0.145814,0.316704,-1.091993,0.138829,-0.344295,-0.928541,-0.240040,-0.183339,-0.088732,-10.882584,-0.662804,-38.859764,,,,,,,
1512178576.361577,0.168231,0.339883,-2.218908,-0.503786,0.698691,-1.151285,0.157860,-0.333377,-0.929484,-0.108101,-0.070111,-0.289327,-10.508942,-0.962242,-38.863091,,,,,,,
1512178576.381596,0.186903,0.328582,-2.241398,-0.196184,0.409647,-1.136109,0.175876,-0.322701,-0.930017,-0.028323,0.060830,-0.471167,-9.983185,-0.811455,-38.717476,,,,,,,
1512178576.401585,0.196050,0.328790,-2.266475,0.494268,-0.144625,-1.206923,0.184362,-0.322898,-0.928304,-0.060354,0.160193,-0.420253,-9.685852,-1.411003,-38.645317,,,,,,,
1512178576.421574,0.200964,0.337671,-2.297587,0.793510,-0.270800,-1.452486,0.188342,-0.331290,-0.924540,-0.139834,0.167411,-0.191152,-9.615234,-2.385902,-38.646400,,,,,,,
1512178576.441594,0.210633,0.345960,-2.333837,0.700963,-0.002445,-1.645851,0.196691,-0.339100,-0.919959,-0.169713,0.108341,-0.014474,-9.543976,-3.210793,-38.722420,,,,,,,
1512178576.461583,0.228273,0.350088,-2.371286,0.512906,0.382935,-1.664287,0.212569,-0.342981,-0.914975,-0.119078,0.059625,0.048489,-9.470337,-3.510689,-38.723183,,,,,,,
1512178576.481572,0.250369,0.351039,-2.405589,0.393545,0.550061,-1.465018,0.232652,-0.343873,-0.909738,-0.021272,0.042131,0.018549,-8.500198,-4.559227,-39.031960,,,,,,,
1512178576.501591,0.269662,0.352004,-2.434508,0.406888,0.394634,-1.182860,0.250071,-0.344780,-0.904761,0.018209,0.055839,-0.010111,-7.976135,-4.783440,-38.886528,,,,,,,
1512178576.521580,0.283505,0.355277,-2.459700,0.521340,0.201152,-1.020897,0.262253,-0.347851,-0.900124,0.019332,0.100506,0.037651,-7.380157,-5.682549,-38.817039,,,,,,,
1512178576.541569,0.294698,0.361257,-2.483434,0.643293,0.133839,-0.921290,0.271703,-0.353450,-0.895126,0.005015,0.112026,0.094924,-7.004883,-5.606987,-38.970207,,,,,,,
1512178576.561589,0.304752,0.370622,-2.506094,0.835380,0.087977,-0.805662,0.279683,-0.362195,-0.889152,0.003581,0.114301,0.139717,-6.557220,-6.131310,-38.899269,,,,,,,
1512178576.581578,0.313343,0.384930,-2.527412,1.046919,0.013201,-0.644018,0.285685,-0.375495,-0.881696,0.002859,0.110617,0.185651,-6.786606,-7.106651,-38.897804,,,,,,,
1512178576.601567,0.319347,0.401897,-2.546116,1.058990,-0.096064,-0.475783,0.288932,-0.391165,-0.873790,-0.004645,0.096121,0.233653,-6.566437,-8.156334,-39.125191,,,,,,,
1512178576.621587,0.321342,0.418384,-2.561459,0.950062,-0.252451,-0.342516,0.288598,-0.406285,-0.866974,-0.012933,0.112111,0.264206,-6.871506,-9.281792,-39.123161,,,,,,,
1512178576.641576,0.319870,0.432783,-2.573810,0.797183,-0.361808,-0.256627,0.285452,-0.419398,-0.861755,-0.017645,0.122234,0.278351,-6.795868,-9.206673,-38.523766,,,,,,,
1512178576.661565,0.315250,0.445270,-2.583524,0.690140,-0.461490,-0.171111,0.279822,-0.430702,-0.858018,-0.006598,0.123100,0.255693,-6.872742,-9.656792,-38.223351,,,,,,,
1512178576.681584,0.308336,0.457127,-2.590280,0.631395,-0.488546,-0.035598,0.272314,-0.441372,-0.855006,-0.001944,0.101406,0.217998,-7.252060,-10.632347,-38.070610,,,,,,,
1512178576.701573,0.299959,0.468524,-2.593111,0.532942,-0.448407,0.118761,0.263638,-0.451569,-0.852396,-0.006482,0.080674,0.188578,-7.176117,-10.407249,-38.221138,,,,,,,
1512178576.721562,0.292962,0.477637,-2.592569,0.355895,-0.241608,0.197934,0.256469,-0.459682,-0.850245,-0.000625,0.069332,0.161784,-7.853149,-10.858253,-38.215614,,,,,,,
1512178576.741582,0.289806,0.483632,-2.589195,0.169328,0.032477,0.276137,0.252992,-0.464998,-0.848394,0.035460,0.072191,0.084951,-7.628067,-10.857918,-38.067528,,,,,,,
1512178576.761571,0.290119,0.486166,-2.582687,-0.057936,0.232786,0.363094,0.252920,-0.467239,-0.847183,0.083353,0.072250,0.001190,-7.628662,-11.007927,-37.917595,,,,,,,
1512178576.781560,0.288324,0.483451,-2.571776,-0.425832,0.099506,0.491620,0.251758,-0.464837,-0.848849,0.143704,0.059640,-0.088041,-7.551117,-10.407799,-38.217949,,,,,,,
1512178576.801576,0.278411,0.472925,-2.554985,-0.878132,-0.227240,0.623587,0.244663,-0.455492,-0.855960,0.164700,0.027010,-0.128492,-7.625824,-10.332924,-38.292274,,,,,,,
1512178576.821565,0.262626,0.456361,-2.536697,-1.067494,-0.420681,0.525291,0.233049,-0.440685,-0.866883,0.126937,0.048747,-0.110260,-7.695938,-9.208015,-38.666130,,,,,,,
1512178576.841554,0.249527,0.438120,-2.522871,-1.014699,-0.255662,0.305957,0.223622,-0.424237,-0.877505,0.083446,0.033841,-0.050778,-8.144180,-8.833687,-38.512123,,,,,,,
1512178576.861574,0.246273,0.420209,-2.512605,-0.997191,0.285008,0.240933,0.222582,-0.407951,-0.885457,0.109831,0.007637,0.021122,-8.213226,-7.483803,-38.735863,,,,,,,
1512178576.881563,0.254495,0.399048,-2.500957,-1.275337,0.741608,0.321642,0.231977,-0.388541,-0.891753,0.181750,-0.011956,-0.060915,-7.459686,-6.657661,-39.116844,,,,,,,
1512178576.901552,0.261431,0.371941,-2.485343,-1.606009,0.511307,0.386408,0.240790,-0.363425,-0.899968,0.235909,0.037451,-0.250346,-6.928726,-5.306877,-39.345695,,,,,,,
1512178576.921541,0.259355,0.342796,-2.469377,-1.541346,-0.022556,0.318327,0.241536,-0.336122,-0.910320,0.224346,0.115861,-0.349369,-6.773666,-4.181633,-39.346443,,,,,,,
1512178576.941561,0.251017,0.319673,-2.459349,-1.014451,-0.322540,0.093582,0.235805,-0.314256,-0.919586,0.180531,0.163331,-0.275512,-6.917923,-2.906853,-39.344582,,,,,,,
1512178576.961550,0.246336,0.308298,-2.456682,-0.344630,-0.045651,-0.042867,0.232355,-0.303437,-0.924087,0.135458,0.108064,-0.094284,-7.141281,-2.532188,-39.417488,,,,,,,
1512178576.981539,0.251957,0.306880,-2.457267,0.060009,0.463324,0.009539,0.237653,-0.302085,-0.923182,0.160998,0.037269,0.057170,-6.764481,-2.156624,-39.195503,,,,,,,
1512178577.001559,0.264719,0.310677,-2.454176,0.150606,0.792864,0.349939,0.249113,-0.305703,-0.918961,0.203661,-0.034690,0.135544,-6.537292,-1.631279,-39.572182,,,,,,,
1512178577.021548,0.277328,0.314752,-2.442407,-0.052044,0.767209,0.742421,0.260336,-0.309581,-0.914541,0.189508,-0.043263,0.132024,-5.639740,-2.154930,-39.730080,,,,,,,
1512178577.041537,0.281837,0.314975,-2.423987,-0.340606,0.340259,0.895600,0.264439,-0.309793,-0.913291,0.136089,0.003793,0.117881,-5.038986,-2.004036,-39.585106,,,,,,,
1512178577.061557,0.276716,0.311378,-2.403347,-0.479676,-0.081913,0.903841,0.260060,-0.306370,-0.915700,0.087703,0.025899,0.141911,-4.737854,-1.703575,-40.037514,,,,,,,
1512178577.081546,0.265597,0.308450,-2.382991,-0.318961,-0.305998,0.908588,0.250097,-0.303582,-0.919396,0.054514,0.035394,0.193154,-5.109253,-0.954140,-39.583977,,,,,,,
1512178577.101534,0.253642,0.311512,-2.363736,0.059529,-0.264954,0.972848,0.238854,-0.306498,-0.921416,0.038520,0.024409,0.270232,-5.031967,-0.429024,-39.734383,,,,,,,
1512178577.121553,0.244338,0.322169,-2.343810,0.384659,-0.073524,1.112549,0.229468,-0.316625,-0.920377,0.001886,-0.008128,0.331723,-5.482941,-0.654701,-39.655647,,,,,,,
1512178577.141542,0.237629,0.336147,-2.321959,0.418285,0.047036,1.212599,0.222224,-0.329852,-0.917504,-0.057048,-0.035932,0.322396,-5.482681,-0.579704,-39.805611,,,,,,,
1512178577.161531,0.229598,0.347334,-2.298854,0.180009,-0.056866,1.176807,0.213995,-0.340392,-0.915609,-0.110617,-0.041001,0.297322,-5.485046,-1.104698,-39.805855,,,,,,,
1512178577.181551,0.219589,0.350093,-2.275318,-0.319566,-0.104458,1.084113,0.204616,-0.342985,-0.916784,-0.145457,-0.071566,0.274862,-5.034668,-1.029030,-39.734657,,,,,,,
1512178577.201540,0.208768,0.342049,-2.251050,-0.790728,-0.156314,1.015276,0.195248,-0.335418,-0.921614,-0.149426,-0.086640,0.164504,-4.882614,-0.578804,-39.660713,,,,,,,
1512178577.221529,0.196162,0.328705,-2.227854,-0.884888,-0.299367,0.900414,0.184472,-0.322818,-0.928310,-0.138634,-0.044720,0.041713,-5.025864,0.920982,-39.658745,,,,,,,
1512178577.241549,0.182151,0.316284,-2.208149,-0.706559,-0.425906,0.746913,0.172160,-0.311037,-0.934675,-0.173915,-0.040953,-0.026949,-4.949509,1.221092,-39.659248,,,,,,,
1512178577.261538,0.169206,0.306260,-2.193450,-0.601456,-0.396449,0.516137,0.160564,-0.301494,-0.939851,-0.241085,-0.048863,-0.019118,-5.172150,1.745766,-39.657097,,,,,,,
1512178577.281527,0.160104,0.293684,-2.184453,-0.771044,-0.256160,0.205011,0.152596,-0.289480,-0.944942,-0.287224,-0.055063,-0.015110,-5.618362,2.570091,-39.502892,,,,,,,
1512178577.301547,0.158614,0.275185,-2.181959,-1.009868,0.139435,-0.161664,0.152007,-0.271725,-0.950294,-0.307662,-0.027530,-0.070442,-5.841980,2.869759,-39.425835,,,,,,,
1512178577.321536,0.169947,0.255170,-2.187655,-0.836084,0.692797,-0.588978,0.163654,-0.252410,-0.953681,-0.317950,0.018981,-0.222085,-5.613602,3.620110,-39.427406,,,,,,,
1512178577.341524,0.191034,0.242578,-2.203926,-0.209930,0.873065,-1.055807,0.184315,-0.240206,-0.953063,-0.284916,0.052203,-0.402986,-4.785889,4.221352,-39.434135,,,,,,,
1512178577.361543,0.211884,0.242861,-2.231975,0.552447,0.597311,-1.465747,0.204131,-0.240480,-0.948947,-0.249800,0.025820,-0.458158,-4.037247,3.922462,-39.440651,,,,,,,
1512178577.381532,0.230527,0.249976,-2.267805,0.737775,0.470850,-1.656461,0.221388,-0.247381,-0.943287,-0.180083,-0.080103,-0.409496,-4.039490,3.472466,-39.890862,,,,,,,
1512178577.401521,0.249310,0.252558,-2.303229,0.356095,0.537429,-1.586067,0.238908,-0.249882,-0.938340,-0.086503,-0.129803,-0.393768,-3.741852,2.947914,-39.893654,,,,,,,
1512178577.421541,0.268017,0.245942,-2.334479,-0.056480,0.498215,-1.522888,0.256851,-0.243471,-0.935281,0.029480,-0.045775,-0.501502,-3.292496,2.798592,-39.822548,,,,,,,
1512178577.441530,0.277137,0.238115,-2.364755,0.148589,-0.219316,-1.517085,0.265884,-0.235871,-0.934704,0.107636,0.060273,-0.628392,-3.519333,2.423241,-40.120811,,,,,,,
1512178577.461519,0.270825,0.239767,-2.398967,0.760426,-0.939226,-1.612000,0.259873,-0.237476,-0.935987,0.060287,0.095630,-0.488345,-4.345306,2.196999,-40.038902,,,,,,,
1512178577.481539,0.259726,0.249994,-2.437920,1.060694,-0.998365,-1.721922,0.248832,-0.247398,-0.936417,-0.037955,0.036674,-0.226455,-5.472672,1.670311,-40.029579,,,,,,,
1512178577.501528,0.254943,0.260957,-2.478277,0.968487,-0.546635,-1.732346,0.243652,-0.258006,-0.934915,-0.070541,-0.051611,-0.034826,-5.928375,0.394630,-39.951347,,,,,,,
1512178577.521517,0.262202,0.268758,-2.515541,0.748573,0.128839,-1.551954,0.249903,-0.265534,-0.931150,-0.051569,-0.099899,0.035276,-5.934113,-0.880379,-39.951927,,,,,,,
1512178577.541537,0.277359,0.273579,-2.546951,0.578117,0.383361,-1.287020,0.263633,-0.270179,-0.926013,0.028542,-0.047661,-0.035046,-5.784531,-0.955147,-40.103249,,,,,,,
1512178577.561526,0.290014,0.277822,-2.572662,0.552273,0.187316,-1.022629,0.275000,-0.274261,-0.921496,0.059243,0.020019,-0.083615,-5.788193,-1.780159,-40.028618,,,,,,,
1512178577.581514,0.294943,0.285005,-2.595255,0.742834,-0.223897,-0.897637,0.278959,-0.281163,-0.918221,0.049684,0.118641,-0.074669,-5.866013,-2.380272,-40.253258,,,,,,,
1512178577.601534,0.293022,0.298047,-2.619383,1.092709,-0.541628,-0.925654,0.276112,-0.293654,-0.915166,0.013545,0.194502,0.028921,-6.471222,-3.506187,-40.548683,,,,,,,
1512178577.621523,0.289692,0.317888,-2.646446,1.443642,-0.543201,-0.937631,0.271345,-0.312561,-0.910317,-0.015181,0.208755,0.204736,-6.699371,-4.256523,-40.097115,,,,,,,
1512178577.641512,0.291353,0.343580,-2.673749,1.674201,-0.232259,-0.811681,0.270460,-0.336860,-0.901874,-0.052427,0.187720,0.347370,-6.854294,-5.381752,-39.796364,,,,,,,
1512178577.661531,0.299287,0.372076,-2.699299,1.694549,0.039891,-0.675051,0.274665,-0.363551,-0.890163,-0.081397,0.198572,0.408306,-6.935440,-6.731880,-39.946342,,,,,,,
1512178577.681520,0.309466,0.398205,-2.722489,1.474953,0.056520,-0.609946,0.280722,-0.387764,-0.877972,-0.091162,0.239616,0.399242,-6.717712,-8.381554,-39.649025,,,,,,,
1512178577.701509,0.316253,0.419267,-2.743460,1.192567,-0.166191,-0.563643,0.284071,-0.407091,-0.868090,-0.082884,0.247301,0.363223,-6.947098,-9.356895,-39.647560,,,,,,,
1512178577.721498,0.317731,0.435901,-2.761392,0.965889,-0.361139,-0.467395,0.283198,-0.422228,-0.861117,-0.057124,0.230043,0.340045,-7.103363,-10.782143,-39.346947,,,,,,,
1512178577.741518,0.315335,0.450036,-2.775489,0.817428,-0.440685,-0.323767,0.279255,-0.434998,-0.856033,-0.039860,0.194825,0.310501,-7.404984,-11.157585,-39.194572,,,,,,,
1512178577.761508,0.310035,0.462903,-2.785913,0.716251,-0.536143,-0.205100,0.272984,-0.446548,-0.852100,-0.033253,0.185928,0.286091,-7.632233,-11.682930,-38.967903,,,,,,,
1512178577.781497,0.301293,0.473951,-2.793186,0.556427,-0.619953,-0.086182,0.264044,-0.456405,-0.849691,-0.039771,0.111038,0.214864,-8.310562,-12.433937,-38.887505,,,,,,,
1512178577.801516,0.290465,0.481816,-2.796851,0.327069,-0.600152,-0.010545,0.253792,-0.463389,-0.849035,-0.045037,0.070964,0.194661,-8.759445,-12.209618,-38.658577,,,,,,,
1512178577.821483,0.280628,0.484158,-2.796815,-0.043271,-0.403298,0.089248,0.245127,-0.465463,-0.850445,-0.018168,0.003275,0.189190,-9.061401,-12.660072,-38.506233,,,,,,,
1512178577.841472,0.272072,0.477951,-2.790373,-0.595008,-0.214348,0.263141,0.238614,-0.459960,-0.855278,0.045688,-0.055741,0.144432,-9.509674,-12.285744,-38.427238,,,,,,,
1512178577.861492,0.262434,0.461542,-2.777374,-1.119256,-0.186531,0.379308,0.232287,-0.445329,-0.864711,0.131010,-0.070586,0.073527,-9.432388,-11.760628,-38.577644,,,,,,,
1512178577.881481,0.251358,0.438324,-2.762309,-1.399472,-0.223259,0.367656,0.225207,-0.424423,-0.877010,0.226224,-0.060028,0.028820,-9.726044,-10.336067,-38.724434,,,,,,,
1512178577.901470,0.241941,0.406700,-2.742768,-2.035291,0.044495,0.602439,0.220045,-0.395581,-0.891682,0.289950,-0.158481,-0.005611,-9.871475,-9.286293,-39.022667,,,,,,,
1512178577.921489,0.234695,0.359170,-2.711231,-3.035336,0.311352,1.008907,0.217707,-0.351498,-0.910523,0.279409,-0.184254,-0.180099,-10.088974,-7.561607,-39.544960,,,,,,,
1512178577.941478,0.226313,0.296452,-2.671725,-3.666809,0.121036,1.151544,0.214598,-0.292129,-0.931992,0.309556,0.023559,-0.500503,-9.777725,-5.011147,-39.996330,,,,,,,
