timestamp(unix),attitude_roll(radians),attitude_pitch(radians),attitude_yaw(radians),rotation_rate_x(radians/s),rotation_rate_y(radians/s),rotation_rate_z(radians/s),gravity_x(G),gravity_y(G),gravity_z(G),user_acc_x(G),user_acc_y(G),user_acc_z(G),magnetic_field_x(microteslas),magnetic_field_y(microteslas),magnetic_field_z(microteslas),latitude(degree),longitude(degree),altitude(meter),speed(m/s),course(degree),timestamp(unix),User Mark
1512178334.861712,-0.070784,0.399761,3.113865,0.430958,0.007162,0.144286,-0.065148,-0.389198,-0.918847,0.029580,-0.028710,-0.043891,-33.871891,-27.247694,-18.779366,,,,,,,
1512178334.881701,-0.071420,0.406654,3.117545,0.305493,0.068954,0.126689,-0.065540,-0.395539,-0.916108,0.007145,0.015854,-0.022094,-33.648808,-27.697371,-18.556480,,,,,,,
1512178334.901721,-0.071608,0.411094,3.119717,0.182899,-0.006938,0.058555,-0.065586,-0.399613,-0.914335,0.000477,0.038697,-0.016146,-33.725651,-28.072477,-18.856026,,,,,,,
1512178334.921710,-0.072142,0.413653,3.119941,0.106548,-0.021830,-0.031085,-0.066001,-0.401956,-0.913277,-0.005838,0.042139,0.023598,-34.100941,-28.148054,-18.777870,,,,,,,
1512178334.941699,-0.070561,0.415770,3.118217,0.102423,0.059484,-0.100155,-0.064496,-0.403895,-0.912529,0.011182,0.023554,0.039436,-34.103428,-28.673048,-19.003105,,,,,,,
1512178334.961719,-0.069071,0.417640,3.116613,0.086840,0.021998,-0.062134,-0.063084,-0.405604,-0.911869,0.027424,-0.018834,0.018299,-33.652637,-28.522383,-18.781868,,,,,,,
1512178334.981708,-0.068703,0.419012,3.116083,0.067814,0.002629,-0.009178,-0.062710,-0.406858,-0.911336,0.026028,-0.009295,0.020437,-33.879704,-28.972715,-18.855171,,,,,,,
1512178335.001727,-0.069032,0.419904,3.116341,0.044085,-0.014525,0.007479,-0.062985,-0.407672,-0.910953,0.004925,0.015430,0.014148,-33.653278,-28.672377,-18.706932,,,,,,,
1512178335.021716,-0.068784,0.420751,3.116319,0.052980,0.023979,-0.013582,-0.062735,-0.408446,-0.910624,-0.000116,0.025496,0.007670,-33.804401,-28.897596,-18.930763,,,,,,,
1512178335.041705,-0.068569,0.422165,3.115861,0.064805,-0.016575,-0.021012,-0.062500,-0.409736,-0.910060,0.007629,0.004860,-0.002797,-33.956455,-29.347822,-19.004692,,,,,,,
1512178335.061725,-0.069035,0.422881,3.115802,0.008929,-0.041278,0.004745,-0.062903,-0.410389,-0.909738,0.012519,-0.011806,-0.008673,-33.882435,-29.572721,-18.930443,,,,,,,
1512178335.081714,-0.070217,0.422561,3.115888,-0.020899,-0.060550,0.002112,-0.063988,-0.410097,-0.909794,0.015862,-0.003828,0.002400,-34.034718,-30.097944,-18.779411,,,,,,,
1512178335.101703,-0.070901,0.422213,3.116010,-0.005062,-0.013544,0.014234,-0.064621,-0.409780,-0.909893,0.012054,-0.005366,0.006069,-33.655781,-29.272383,-18.332222,,,,,,,
1512178335.121722,-0.071129,0.422391,3.116707,0.025473,0.009954,0.038210,-0.064822,-0.409943,-0.909805,0.010913,0.001648,-0.002304,-33.728870,-28.822493,-18.556374,,,,,,,
1512178335.141711,-0.071308,0.423104,3.117406,0.040651,-0.002809,0.022395,-0.064965,-0.410592,-0.909502,0.008416,0.014016,-0.006041,-34.106571,-29.423048,-18.553459,,,,,,,
1512178335.161700,-0.071705,0.423887,3.117583,0.035655,-0.027343,0.000916,-0.065303,-0.411307,-0.909155,0.000895,0.012518,-0.002619,-33.953495,-28.747831,-18.479424,,,,,,,
1512178335.181720,-0.071995,0.424420,3.117534,0.024032,-0.008123,-0.004516,-0.065551,-0.411792,-0.908917,0.005065,0.022281,-0.004733,-34.106800,-29.498060,-18.328499,,,,,,,
1512178335.201709,-0.071647,0.425234,3.117275,0.056381,0.019742,-0.025271,-0.065210,-0.412534,-0.908605,0.002009,0.026914,-0.002162,-34.109043,-29.948057,-18.778694,,,,,,,
1512178335.221728,-0.070939,0.427115,3.116473,0.112127,0.011318,-0.044749,-0.064512,-0.414247,-0.907875,0.004438,0.010820,-0.000190,-33.879063,-28.897718,-18.255119,,,,,,,
1512178335.241717,-0.069945,0.429584,3.115987,0.130921,0.059362,-0.018725,-0.063538,-0.416493,-0.906916,0.005234,-0.000835,-0.004064,-33.879841,-29.047712,-18.480202,,,,,,,
1512178335.261706,-0.068249,0.432281,3.116118,0.147653,0.111690,0.004090,-0.061923,-0.418943,-0.905899,0.000628,0.012327,-0.001206,-33.882053,-29.572721,-18.180443,,,,,,,
1512178335.281726,-0.065267,0.435374,3.116611,0.167711,0.177920,0.019536,-0.059136,-0.421749,-0.904782,-0.002677,0.017376,-0.016696,-33.732471,-29.647490,-18.331749,,,,,,,
1512178335.301715,-0.062806,0.438322,3.117550,0.139641,0.108405,0.037009,-0.056831,-0.424420,-0.903680,0.009956,0.024503,-0.038260,-33.809498,-30.097609,-18.331322,,,,,,,
1512178335.321704,-0.062703,0.439761,3.118573,0.026421,-0.010352,0.044550,-0.056700,-0.425723,-0.903075,0.002134,0.037493,-0.030442,-33.657658,-29.722380,-18.032417,,,,,,,
1512178335.341723,-0.063430,0.438110,3.119450,-0.133398,0.003302,0.040151,-0.057401,-0.424229,-0.903734,-0.011950,0.050114,-0.019774,-33.433704,-29.947050,-18.109444,,,,,,,
1512178335.361712,-0.062503,0.434758,3.119809,-0.156541,0.080200,0.024088,-0.056652,-0.421191,-0.905201,-0.004444,0.053912,-0.016705,-33.433033,-29.797041,-18.109367,,,,,,,
1512178335.381701,-0.060307,0.432687,3.120619,-0.050419,0.157212,0.057879,-0.054716,-0.419312,-0.906192,0.012373,0.053055,-0.030271,-33.431004,-29.347044,-18.109169,,,,,,,
1512178335.401721,-0.057130,0.432905,3.122763,0.059407,0.225615,0.124738,-0.051832,-0.419510,-0.906270,0.004392,0.059158,-0.048534,-33.207096,-29.571714,-18.261177,,,,,,,
1512178335.421710,-0.053859,0.434452,3.126436,0.107645,0.238407,0.173453,-0.048832,-0.420913,-0.905786,0.009953,0.084045,-0.067359,-33.437458,-30.772047,-18.184822,,,,,,,
1512178335.441730,-0.052081,0.436266,3.130700,0.107247,0.132616,0.192267,-0.047181,-0.422558,-0.905107,0.001924,0.107205,-0.081740,-32.908146,-29.796263,-18.338829,,,,,,,
1512178335.461719,-0.052721,0.437227,3.135092,0.036806,0.036373,0.193046,-0.047740,-0.423429,-0.904671,-0.011709,0.118467,-0.047569,-32.982166,-29.571363,-18.413094,,,,,,,
1512178335.481708,-0.053217,0.436229,3.138896,-0.057597,0.072603,0.166220,-0.048211,-0.422525,-0.905068,-0.041312,0.118493,-0.042045,-32.758701,-29.946028,-18.115181,,,,,,,
1512178335.501727,-0.052511,0.434613,-3.140427,-0.032446,0.145217,0.195619,-0.047607,-0.421059,-0.905783,-0.041520,0.112328,-0.019159,-32.533970,-30.020689,-17.967125,,,,,,,
1512178335.521716,-0.050600,0.435061,-3.135074,0.120934,0.248910,0.272824,-0.045867,-0.421466,-0.905683,-0.045595,0.100467,0.006742,-32.759754,-30.171034,-18.190285,,,,,,,
1512178335.541705,-0.047215,0.438999,-3.127249,0.301297,0.373924,0.396338,-0.042722,-0.425033,-0.904169,-0.035800,0.089401,0.004190,-32.382282,-29.645475,-17.968239,,,,,,,
1512178335.561725,-0.043747,0.445071,-3.115548,0.366556,0.467661,0.580972,-0.039472,-0.430522,-0.901716,-0.028292,0.092998,-0.016359,-32.157017,-29.570127,-18.120110,,,,,,,
1512178335.581714,-0.040547,0.450936,-3.100111,0.317330,0.508968,0.724323,-0.036484,-0.435808,-0.899300,-0.008194,0.138155,-0.047325,-31.706867,-29.569456,-17.823936,,,,,,,
1512178335.601699,-0.038439,0.454573,-3.083024,0.175861,0.481957,0.768018,-0.034527,-0.439079,-0.897785,-0.017459,0.166114,-0.066220,-31.257572,-29.718779,-17.902824,,,,,,,
1512178335.621718,-0.036680,0.455681,-3.065470,0.067876,0.477481,0.786692,-0.032930,-0.440074,-0.897357,-0.037505,0.169993,-0.055493,-31.256336,-29.418776,-18.127693,,,,,,,
1512178335.641707,-0.034715,0.456280,-3.047892,0.090286,0.501014,0.786031,-0.031157,-0.440612,-0.897157,-0.036286,0.159239,-0.027648,-31.180332,-29.193663,-18.128212,,,,,,,
1512178335.661727,-0.032118,0.458222,-3.029853,0.174042,0.549156,0.817266,-0.028800,-0.442354,-0.896378,-0.029367,0.134340,-0.012970,-30.953754,-28.818327,-18.354958,,,,,,,
1512178335.681716,-0.028935,0.462124,-3.010995,0.275786,0.584487,0.855108,-0.025897,-0.445850,-0.894733,-0.016813,0.120502,-0.004651,-30.352512,-28.517424,-18.584923,,,,,,,
1512178335.701705,-0.027246,0.467628,-2.991126,0.324191,0.497964,0.888553,-0.024318,-0.450770,-0.892309,-0.017827,0.113139,0.019948,-29.450703,-28.141066,-18.367393,,,,,,,
1512178335.721724,-0.027039,0.472808,-2.970697,0.259780,0.476454,0.915265,-0.024070,-0.455388,-0.889967,-0.029321,0.090780,0.068297,-29.299702,-27.915846,-18.368568,,,,,,,
1512178335.741713,-0.026737,0.475057,-2.948703,0.072724,0.555022,1.014105,-0.023773,-0.457389,-0.888949,-0.032471,0.079566,0.079378,-29.073689,-27.690504,-18.370369,,,,,,,
1512178335.761702,-0.025148,0.473073,-2.924618,-0.145086,0.678421,1.105192,-0.022383,-0.455624,-0.889891,-0.031297,0.092510,0.055540,-28.846851,-27.240156,-18.747078,,,,,,,
1512178335.781722,-0.021982,0.467770,-2.899001,-0.272893,0.752874,1.165428,-0.019619,-0.450897,-0.892360,-0.015750,0.117752,-0.008381,-28.541447,-26.039701,-18.749077,,,,,,,
1512178335.801711,-0.019731,0.461990,-2.872605,-0.242544,0.655658,1.195380,-0.017661,-0.445730,-0.894993,-0.003777,0.133474,-0.056163,-27.564274,-25.513243,-19.132118,,,,,,,
1512178335.821700,-0.021222,0.458118,-2.845932,-0.122343,0.437918,1.200628,-0.019032,-0.442261,-0.896684,-0.009136,0.135575,-0.045561,-27.410892,-24.763014,-19.133049,,,,,,,
1512178335.841719,-0.025583,0.456108,-2.819110,-0.053153,0.347222,1.202381,-0.022965,-0.440457,-0.897480,-0.034347,0.121686,-0.003597,-27.332600,-24.012892,-19.283333,,,,,,,
1512178335.861708,-0.030726,0.454077,-2.792933,-0.091969,0.310928,1.163317,-0.027608,-0.438633,-0.898242,-0.056621,0.079716,0.037845,-27.554859,-23.413221,-19.206139,,,,,,,
1512178335.881728,-0.035437,0.449653,-2.767321,-0.250777,0.343796,1.162194,-0.031908,-0.434653,-0.900033,-0.036253,0.032294,0.042260,-26.877872,-22.962217,-19.286674,,,,,,,
1512178335.901717,-0.038579,0.441139,-2.740960,-0.456731,0.453344,1.244877,-0.034877,-0.426969,-0.903593,0.007136,0.000151,-0.013002,-26.424061,-22.136534,-19.065117,,,,,,,
1512178335.921706,-0.040472,0.429301,-2.712096,-0.563384,0.541571,1.381159,-0.036789,-0.416236,-0.908512,0.043488,-0.001336,-0.077419,-26.043430,-20.860960,-19.292717,,,,,,,
1512178335.941726,-0.041976,0.418180,-2.681500,-0.427526,0.533164,1.417213,-0.038348,-0.406098,-0.913025,0.049548,0.028900,-0.113938,-25.813282,-19.735609,-19.144112,,,,,,,
1512178335.961715,-0.045531,0.411578,-2.651870,-0.185339,0.342496,1.331576,-0.041714,-0.400056,-0.915541,0.031231,0.029390,-0.095201,-25.434986,-18.985044,-19.296959,,,,,,,
1512178335.981704,-0.051137,0.407656,-2.624717,-0.145076,0.231697,1.211307,-0.046926,-0.396458,-0.916853,-0.003092,-0.022212,-0.041491,-25.134464,-18.834593,-19.599434,,,,,,,
1512178336.001723,-0.056218,0.400888,-2.600010,-0.376988,0.240080,1.118431,-0.051734,-0.390236,-0.919260,-0.013726,-0.090980,-0.015539,-24.750904,-16.959013,-19.376747,,,,,,,
1512178336.021712,-0.059556,0.388453,-2.577291,-0.658602,0.291022,1.066554,-0.055086,-0.378757,-0.923855,-0.007841,-0.119687,-0.047962,-24.450077,-16.808561,-19.079231,,,,,,,
1512178336.041701,-0.061917,0.372417,-2.556413,-0.764866,0.235487,0.978470,-0.057636,-0.363868,-0.929666,0.005069,-0.108544,-0.098945,-24.138828,-14.333097,-18.855644,,,,,,,
1512178336.061721,-0.065492,0.356478,-2.537764,-0.714477,0.126780,0.891406,-0.061331,-0.348976,-0.935123,0.004675,-0.124413,-0.096707,-23.910496,-13.582762,-18.932213,,,,,,,
1512178336.081710,-0.068379,0.342356,-2.519607,-0.605119,0.204864,0.922044,-0.064360,-0.335707,-0.939765,0.001235,-0.139161,-0.082925,-23.904987,-12.382750,-18.706657,,,,,,,
1512178336.101729,-0.068786,0.330704,-2.499317,-0.450211,0.390732,1.040069,-0.065007,-0.324709,-0.943577,0.018910,-0.105940,-0.095088,-23.376865,-11.706953,-18.560814,,,,,,,
1512178336.121718,-0.066049,0.323263,-2.477148,-0.192690,0.535263,1.075218,-0.062583,-0.317662,-0.946136,0.037711,-0.036738,-0.128372,-23.147556,-10.731611,-18.712257,,,,,,,
1512178336.141707,-0.062303,0.322835,-2.455340,0.201834,0.502894,1.004066,-0.059046,-0.317256,-0.946500,0.034404,-0.001103,-0.096789,-22.624317,-11.105833,-18.866905,,,,,,,
1512178336.161727,-0.060827,0.330491,-2.434741,0.560233,0.350861,0.920250,-0.057500,-0.324508,-0.944134,0.018925,-0.011705,-0.001484,-21.949955,-11.254820,-18.797707,,,,,,,
1512178336.181716,-0.061090,0.341933,-2.415243,0.626110,0.295518,0.865574,-0.057518,-0.335309,-0.940351,0.004280,-0.050921,0.078702,-21.801044,-11.479597,-18.949089,,,,,,,
1512178336.201705,-0.061368,0.351114,-2.396695,0.418802,0.309157,0.831703,-0.057588,-0.343944,-0.937223,0.011919,-0.059239,0.123166,-21.199619,-11.178694,-18.804054,,,,,,,
1512178336.221724,-0.060925,0.354752,-2.378767,0.122630,0.349315,0.822222,-0.057096,-0.347358,-0.935993,0.022718,-0.054589,0.116748,-20.750431,-11.328016,-19.107933,,,,,,,
1512178336.241713,-0.059950,0.353889,-2.361638,-0.039058,0.325610,0.799541,-0.056202,-0.346548,-0.936347,0.043430,-0.056040,0.090903,-20.899006,-11.028242,-18.956535,,,,,,,
1512178336.261702,-0.060971,0.352042,-2.344206,-0.034656,0.204814,0.850357,-0.057196,-0.344815,-0.936926,0.061972,-0.065768,0.074942,-19.999653,-11.176893,-18.889244,,,,,,,
1512178336.281722,-0.064569,0.350537,-2.324631,-0.022741,0.157601,0.965498,-0.060600,-0.343402,-0.937231,0.091454,-0.087949,0.092673,-20.297245,-10.652342,-18.811455,,,,,,,
1512178336.301711,-0.067035,0.349134,-2.301929,0.008738,0.338909,1.133956,-0.062943,-0.342084,-0.937559,0.074128,-0.072711,0.102949,-19.849079,-11.026670,-19.115456,,,,,,,
1512178336.321730,-0.067703,0.348426,-2.276659,0.048230,0.393323,1.198682,-0.063586,-0.341419,-0.937758,0.100070,-0.023617,0.024947,-19.019962,-10.125425,-18.972054,,,,,,,
1512178336.341719,-0.069215,0.347051,-2.251532,-0.030316,0.329158,1.174934,-0.065037,-0.340126,-0.938128,0.087055,0.013710,-0.001889,-18.716206,-9.299971,-18.899223,,,,,,,
1512178336.361708,-0.070415,0.343973,-2.227411,-0.102998,0.364394,1.122830,-0.066235,-0.337230,-0.939089,0.068432,0.039104,0.002947,-18.266575,-9.374296,-18.978081,,,,,,,
1512178336.381728,-0.070162,0.340312,-2.205107,-0.099988,0.391338,1.006769,-0.066084,-0.333781,-0.940331,0.061872,0.095072,-0.040641,-17.662189,-8.398390,-18.982735,,,,,,,
1512178336.401717,-0.069617,0.338014,-2.185664,-0.009736,0.314786,0.895875,-0.065625,-0.331614,-0.941130,0.072049,0.056376,-0.064821,-17.587269,-8.398268,-19.133354,,,,,,,
1512178336.421706,-0.070728,0.338098,-2.166877,0.107726,0.219926,0.879122,-0.066668,-0.331694,-0.941029,0.069292,0.034254,-0.070858,-17.437046,-8.323042,-19.359612,,,,,,,
1512178336.441726,-0.072361,0.340290,-2.148541,0.210808,0.231922,0.834817,-0.068152,-0.333760,-0.940191,0.076407,0.026723,-0.040934,-16.836033,-8.172148,-18.689629,,,,,,,
1512178336.461715,-0.073003,0.344606,-2.131121,0.312908,0.269558,0.786321,-0.068650,-0.337826,-0.938702,0.095749,0.012920,-0.015354,-16.236134,-8.171247,-18.919731,,,,,,,
1512178336.481704,-0.072815,0.350473,-2.113447,0.382482,0.360361,0.838818,-0.068328,-0.343342,-0.936722,0.122542,-0.038082,0.045364,-16.086582,-8.246016,-19.146034,,,,,,,
1512178336.501723,-0.070495,0.357656,-2.093453,0.457437,0.486298,0.954411,-0.065980,-0.350079,-0.934394,0.135392,-0.043079,0.053488,-15.413166,-8.620008,-18.926949,,,,,,,
1512178336.521712,-0.069214,0.365654,-2.070712,0.477576,0.434788,1.087779,-0.064586,-0.357560,-0.931654,0.110881,-0.021209,0.047972,-14.662891,-8.543882,-19.083290,,,,,,,
1512178336.541732,-0.070647,0.372230,-2.045414,0.357588,0.351092,1.183826,-0.065754,-0.363693,-0.929195,0.108189,-0.001404,0.042049,-14.290638,-9.143324,-19.161751,,,,,,,
1512178336.561721,-0.073774,0.375251,-2.019329,0.166392,0.304828,1.204349,-0.068578,-0.366506,-0.927885,0.104207,0.036306,0.037763,-13.538944,-8.767195,-19.167961,,,,,,,
1512178336.581710,-0.077015,0.374972,-1.994058,0.032955,0.302592,1.150169,-0.071593,-0.366247,-0.927759,0.095671,0.066335,0.026301,-13.089008,-8.766523,-19.321785,,,,,,,
1512178336.601698,-0.079447,0.373583,-1.970365,0.023564,0.317686,1.074398,-0.073889,-0.364953,-0.928089,0.089865,0.081659,0.014347,-12.714649,-8.915968,-19.250038,,,,,,,
1512178336.621687,-0.080871,0.373330,-1.948029,0.109702,0.346755,1.023508,-0.075219,-0.364718,-0.928075,0.105767,0.068774,0.002614,-12.563267,-8.615736,-19.176170,,,,,,,
1512178336.641676,-0.082404,0.375238,-1.925811,0.217322,0.305260,1.024924,-0.076583,-0.366494,-0.927263,0.116119,0.048150,-0.011000,-12.113941,-8.765059,-19.180061,,,,,,,
1512178336.661696,-0.085364,0.378582,-1.903291,0.260986,0.251919,1.025373,-0.079223,-0.369603,-0.925806,0.115646,0.038976,0.015482,-11.738636,-8.689497,-19.258217,,,,,,,
1512178336.681685,-0.088362,0.381680,-1.881213,0.225225,0.272211,0.996138,-0.081896,-0.372480,-0.924420,0.110034,0.021741,0.046810,-11.361912,-8.313932,-19.186241,,,,,,,
1512178336.701674,-0.090302,0.383621,-1.859611,0.161449,0.331958,0.989031,-0.083624,-0.374281,-0.923537,0.110968,0.005674,0.067092,-10.614719,-8.912809,-19.417885,,,,,,,
1512178336.721693,-0.090729,0.384465,-1.837876,0.120726,0.417316,1.005794,-0.083990,-0.375063,-0.923186,0.104513,0.002306,0.066375,-10.387775,-8.462477,-19.569588,,,,,,,
1512178336.741682,-0.090162,0.384691,-1.815425,0.091152,0.460966,1.055621,-0.083459,-0.375273,-0.923149,0.094995,0.015288,0.031395,-9.637241,-8.386351,-19.200935,,,,,,,
1512178336.761671,-0.089398,0.383959,-1.792496,0.039994,0.466229,1.054897,-0.082778,-0.374594,-0.923486,0.079437,0.037573,0.017389,-9.337910,-8.535902,-19.203545,,,,,,,
1512178336.781691,-0.088665,0.382595,-1.770394,0.019438,0.438521,1.007598,-0.082147,-0.373329,-0.924055,0.044229,0.057563,-0.001787,-8.586231,-8.159773,-19.209755,,,,,,,
1512178336.801680,-0.087995,0.381596,-1.749675,0.052678,0.407750,0.930152,-0.081560,-0.372402,-0.924481,0.014559,0.065441,-0.012775,-7.911304,-8.158766,-19.365486,,,,,,,
1512178336.821699,-0.087166,0.382326,-1.730881,0.152386,0.371780,0.829128,-0.080770,-0.373080,-0.924277,-0.018549,0.038974,-0.002573,-7.536594,-8.233198,-19.293709,,,,,,,
1512178336.841688,-0.086705,0.384506,-1.713411,0.175422,0.356939,0.788899,-0.080274,-0.375101,-0.923502,-0.041186,-0.007681,0.028375,-6.936893,-8.307295,-19.223839,,,,,,,
1512178336.861677,-0.083748,0.385060,-1.696242,0.033645,0.574616,0.799330,-0.077525,-0.375615,-0.923528,-0.045980,-0.047740,0.051701,-6.412571,-8.456511,-19.228371,,,,,,,
1512178336.881697,-0.074952,0.381806,-1.677262,-0.154258,0.913696,0.961961,-0.069490,-0.372597,-0.925388,-0.010528,-0.066109,-0.031506,-5.510212,-7.930159,-19.235786,,,,,,,
1512178336.901686,-0.063781,0.377063,-1.654901,-0.139267,0.969007,1.089228,-0.059260,-0.368191,-0.927860,0.017085,-0.017703,-0.145276,-4.610203,-7.928801,-19.243431,,,,,,,
1512178336.921675,-0.056638,0.375574,-1.631776,0.079597,0.631867,1.053917,-0.052662,-0.366806,-0.928806,-0.002911,0.044449,-0.179272,-3.260197,-7.926786,-19.254906,,,,,,,
1512178336.941695,-0.055855,0.378557,-1.610770,0.255513,0.350413,0.909435,-0.051873,-0.369580,-0.927750,-0.059791,0.066159,-0.069153,-2.510456,-8.000654,-19.111320,,,,,,,
1512178336.961684,-0.055622,0.382567,-1.592092,0.225871,0.376154,0.833405,-0.051574,-0.373303,-0.926275,-0.113541,0.031094,-0.001627,-2.512226,-8.375654,-19.261482,,,,,,,
1512178336.981673,-0.053725,0.384433,-1.573286,0.079814,0.509309,0.904241,-0.049780,-0.375033,-0.925674,-0.106897,0.019305,0.036132,-2.063984,-8.749983,-19.415489,,,,,,,
1512178337.001692,-0.049636,0.382807,-1.552076,-0.095939,0.626298,1.031097,-0.046025,-0.373526,-0.926477,-0.097408,0.025595,0.047373,-1.236179,-8.148741,-19.197227,,,,,,,
1512178337.021681,-0.046107,0.378010,-1.529411,-0.244775,0.570452,1.068192,-0.042836,-0.369072,-0.928413,-0.111491,0.082970,0.010750,-0.335789,-8.072401,-19.129845,,,,,,,
1512178337.041701,-0.047100,0.371731,-1.507163,-0.253965,0.231901,1.027437,-0.043867,-0.363229,-0.930667,-0.090685,0.034402,0.027865,0.337902,-8.371382,-19.060707,,,,,,,
1512178337.061690,-0.053176,0.365620,-1.484454,-0.263965,0.076834,1.108838,-0.049637,-0.357528,-0.932582,-0.089889,0.028381,0.052104,0.788906,-8.145704,-19.064430,,,,,,,
1512178337.081679,-0.058646,0.358077,-1.460525,-0.345473,0.211234,1.145439,-0.054895,-0.350474,-0.934962,-0.080847,0.018381,0.062831,1.169079,-7.020140,-18.842094,,,,,,,
1512178337.101698,-0.062029,0.349089,-1.436403,-0.387440,0.238894,1.170513,-0.058250,-0.342042,-0.937877,-0.049629,0.015534,-0.003468,2.070095,-6.793791,-18.849648,,,,,,,
1512178337.121687,-0.068575,0.339974,-1.411148,-0.366430,0.004848,1.242494,-0.064599,-0.333462,-0.940548,-0.031776,0.006039,-0.019368,2.072308,-6.343779,-18.474434,,,,,,,
1512178337.141676,-0.077227,0.331526,-1.385096,-0.310065,0.067931,1.253122,-0.072949,-0.325486,-0.942729,0.001477,0.042085,0.041728,1.997356,-6.343901,-18.398811,,,,,,,
1512178337.161696,-0.082423,0.323714,-1.359287,-0.278763,0.174840,1.235829,-0.078054,-0.318089,-0.944842,-0.021663,0.058385,0.024920,2.372356,-6.343336,-18.401985,,,,,,,
1512178337.181685,-0.086404,0.317455,-1.334846,-0.170767,0.158077,1.149915,-0.081984,-0.312150,-0.946489,-0.040162,0.055360,0.026460,2.748745,-6.042768,-18.330040,,,,,,,
1512178337.201674,-0.092352,0.313172,-1.311492,-0.090435,0.003373,1.119626,-0.087735,-0.308078,-0.947307,-0.038257,0.024204,0.024974,2.824749,-5.817656,-18.330574,,,,,,,
1512178337.221693,-0.102277,0.309122,-1.288065,-0.114358,-0.256268,1.135432,-0.097260,-0.304223,-0.947623,-0.061645,-0.010139,0.011572,3.050808,-5.592314,-18.257393,,,,,,,
1512178337.241682,-0.118152,0.302543,-1.264132,-0.257481,-0.501238,1.205000,-0.112524,-0.297949,-0.947927,-0.059748,-0.019434,0.041387,2.823360,-6.117659,-18.405708,,,,,,,
1512178337.261702,-0.133793,0.292370,-1.238448,-0.427645,-0.238952,1.322847,-0.127733,-0.288223,-0.949006,-0.077040,0.082198,0.184342,2.975201,-5.742430,-18.106819,,,,,,,
1512178337.281691,-0.134488,0.277059,-1.212317,-0.639469,0.455018,1.336046,-0.128970,-0.273528,-0.953178,-0.075360,-0.030076,0.085594,3.503094,-5.066633,-18.410957,,,,,,,
1512178337.301680,-0.134461,0.261725,-1.186100,-0.551048,0.395209,1.402152,-0.129491,-0.258747,-0.957226,-0.042033,0.006001,0.061749,4.025387,-5.665846,-18.415703,,,,,,,
1512178337.321699,-0.131483,0.248191,-1.157660,-0.484253,0.441071,1.491764,-0.127087,-0.245651,-0.960991,-0.025958,-0.015824,-0.040886,5.156353,-4.389158,-17.974678,,,,,,,
1512178337.341688,-0.136428,0.235101,-1.128774,-0.444965,-0.144201,1.473242,-0.132263,-0.232942,-0.963454,-0.029480,-0.016646,-0.012482,5.457119,-4.238707,-17.827156,,,,,,,
1512178337.361677,-0.149983,0.223516,-1.099501,-0.297647,-0.339546,1.515204,-0.145704,-0.221660,-0.964177,-0.011934,0.008616,0.099416,5.083538,-3.939268,-17.673836,,,,,,,
1512178337.381697,-0.155240,0.216822,-1.068467,0.033689,0.335973,1.560733,-0.150997,-0.215128,-0.964842,-0.036519,-0.004096,0.124937,5.682156,-4.238371,-17.754082,,,,,,,
1512178337.401686,-0.150800,0.217145,-1.034534,0.410149,0.684511,1.698526,-0.146701,-0.215443,-0.965434,-0.056180,-0.019008,0.064128,6.356319,-4.462355,-17.384911,,,,,,,
1512178337.421675,-0.142743,0.224544,-0.996026,0.774556,0.881320,1.848408,-0.138688,-0.222661,-0.964981,-0.072692,-0.010523,0.045761,7.626003,-5.585447,-17.921272,,,,,,,
1512178337.441695,-0.135149,0.238565,-0.955983,1.066376,0.804958,1.796935,-0.130922,-0.236309,-0.962817,-0.066771,0.015179,0.009006,9.197369,-6.408094,-17.785042,,,,,,,
1512178337.461684,-0.129189,0.255267,-0.918606,1.055816,0.805326,1.595291,-0.124655,-0.252504,-0.959533,-0.070886,0.012086,0.009383,10.093578,-7.231749,-17.943077,,,,,,,
1512178337.481703,-0.121330,0.270280,-0.886755,0.834052,0.762777,1.337146,-0.116639,-0.267001,-0.956612,-0.057861,-0.024350,-0.012764,10.912838,-8.505522,-17.950676,,,,,,,
1512178337.501692,-0.112959,0.278376,-0.859651,0.360577,0.885123,1.223041,-0.108380,-0.274795,-0.955375,-0.031238,-0.069642,-0.045189,12.035336,-9.103834,-17.585503,,,,,,,
1512178337.521681,-0.096324,0.277905,-0.835797,-0.018499,1.259755,1.085596,-0.092485,-0.274341,-0.957175,-0.002562,-0.064449,-0.040491,12.782864,-9.627714,-17.817131,,,,,,,
1512178337.541701,-0.080457,0.274536,-0.814966,-0.086146,0.897765,0.968223,-0.077361,-0.271100,-0.959437,0.017439,-0.053302,-0.119969,14.057644,-9.700804,-17.603004,,,,,,,
1512178337.561690,-0.074031,0.272409,-0.795612,0.005598,0.433288,0.941283,-0.071236,-0.269053,-0.960487,0.058541,-0.072820,-0.050484,14.732388,-9.774794,-17.458763,,,,,,,
1512178337.581679,-0.071280,0.271389,-0.775071,0.001827,0.487562,1.043760,-0.068613,-0.268069,-0.960953,0.007089,-0.113843,-0.058899,15.256069,-10.074003,-17.388374,,,,,,,
1512178337.601686,-0.064725,0.268402,-0.750772,-0.116786,0.728355,1.266753,-0.062364,-0.265191,-0.962177,0.021104,-0.111610,-0.044918,15.854198,-10.523115,-17.093681,,,,,,,
1512178337.621675,-0.059163,0.264066,-0.721055,-0.133245,0.545115,1.544116,-0.057079,-0.261008,-0.963648,-0.235706,-0.144784,-0.043570,16.454205,-10.522215,-17.098778,,,,,,,
1512178337.641665,-0.059424,0.260002,-0.694289,-0.118702,0.183902,1.097458,-0.057393,-0.257083,-0.964684,-0.336330,-0.062802,-0.076897,16.900906,-11.271544,-16.952950,,,,,,,
1512178337.661685,-0.060746,0.256497,-0.674894,-0.096851,0.281705,0.811344,-0.058722,-0.253694,-0.965500,-0.066812,0.074892,-0.006591,17.350674,-11.345869,-16.731804,,,,,,,
1512178337.681674,-0.055059,0.255734,-0.664401,0.076564,0.441967,0.387991,-0.053242,-0.252956,-0.966012,0.017033,0.028820,-0.090476,17.950787,-11.344969,-16.511909,,,,,,,
1512178337.701693,-0.051192,0.261590,-0.654939,0.483513,0.222276,0.524250,-0.049429,-0.258617,-0.964714,0.045309,-0.086552,-0.175468,18.249218,-11.719511,-16.289635,,,,,,,
1512178337.721682,-0.055822,0.275975,-0.639438,0.884368,-0.163339,0.826141,-0.053682,-0.272486,-0.960661,-0.001601,-0.083548,-0.148927,18.243587,-12.919523,-16.740181,,,,,,,
1512178337.741671,-0.067748,0.292197,-0.617701,0.798119,-0.277181,1.073957,-0.064827,-0.288057,-0.955416,-0.044533,-0.067412,-0.014982,18.165661,-13.594648,-16.514870,,,,,,,
1512178337.761691,-0.075867,0.300259,-0.593646,0.267689,0.109656,1.129450,-0.072403,-0.295768,-0.952512,-0.064148,-0.000863,0.051435,18.085155,-14.794767,-16.739769,,,,,,,
1512178337.781680,-0.076029,0.298182,-0.571264,-0.169887,0.421067,1.045305,-0.072604,-0.293783,-0.953111,-0.057905,0.040609,-0.041335,18.236156,-14.569532,-16.740944,,,,,,,
1512178337.801669,-0.071843,0.291405,-0.550661,-0.293698,0.541685,0.995960,-0.068755,-0.287298,-0.955370,0.014342,0.105093,-0.091596,18.609219,-15.018980,-16.594353,,,,,,,
1512178337.821687,-0.065853,0.284822,-0.530647,-0.206588,0.570742,0.950413,-0.063154,-0.280987,-0.957631,0.017881,0.164837,-0.148036,19.208584,-15.168074,-16.524513,,,,,,,
1512178337.841676,-0.060690,0.284120,-0.512650,0.189147,0.487252,0.803410,-0.058221,-0.280313,-0.958141,0.034448,0.199213,-0.104999,19.507381,-15.467634,-16.227196,,,,,,,
1512178337.861665,-0.054131,0.293079,-0.499471,0.647934,0.519611,0.458370,-0.051798,-0.288901,-0.955957,0.010233,0.222449,-0.028769,20.105648,-15.841734,-16.307487,,,,,,,
1512178337.881685,-0.046297,0.308068,-0.490964,0.779748,0.564881,0.353830,-0.044102,-0.303218,-0.951900,-0.033718,0.110240,0.095501,20.402096,-16.666288,-16.010414,,,,,,,
1512178337.901675,-0.037444,0.321169,-0.482933,0.583416,0.563494,0.364841,-0.035521,-0.315676,-0.948202,-0.042040,0.038072,0.156958,20.850262,-17.115614,-15.639442,,,,,,,
1512178337.921695,-0.027981,0.330080,-0.474282,0.401478,0.682758,0.413792,-0.026467,-0.324118,-0.945646,-0.056327,0.040519,0.209593,21.370312,-18.239836,-15.419426,,,,,,,
1512178337.941684,-0.013253,0.337037,-0.465250,0.348453,1.023437,0.414211,-0.012507,-0.330693,-0.943656,-0.023504,0.098667,0.190650,22.120312,-18.238707,-15.425804,,,,,,,
1512178337.961673,0.008233,0.344074,-0.456953,0.347171,1.305510,0.375727,0.007751,-0.337325,-0.941356,-0.032912,0.043212,0.136303,22.869564,-18.462584,-14.907280,,,,,,,
1512178337.981692,0.030738,0.349597,-0.448076,0.199647,1.160917,0.458372,0.028874,-0.342519,-0.939067,-0.012852,0.038610,-0.024144,23.692471,-18.986357,-14.389534,,,,,,,
1512178338.001681,0.040461,0.350916,-0.438264,-0.039901,0.338025,0.463765,0.037985,-0.343758,-0.938290,0.014399,0.050026,-0.075489,25.191753,-19.209105,-13.802391,,,,,,,
1512178338.021670,0.034885,0.348172,-0.427365,-0.231441,-0.323631,0.539709,0.032785,-0.341180,-0.939426,0.016135,0.029336,-0.054211,25.266537,-19.283995,-13.578056,,,,,,,
1512178338.041690,0.019146,0.341862,-0.415764,-0.389253,-0.723347,0.522172,0.018037,-0.335242,-0.941959,0.002868,0.038291,0.025593,24.815365,-19.509672,-13.874336,,,,,,,
1512178338.061679,-0.000587,0.332548,-0.404114,-0.491258,-0.776992,0.564217,-0.000555,-0.326453,-0.945213,0.001547,-0.021966,0.104942,24.064541,-19.660795,-14.168037,,,,,,,
1512178338.081668,-0.018179,0.323452,-0.391692,-0.426557,-0.613512,0.592376,-0.017235,-0.317842,-0.947987,-0.012367,-0.002394,0.146962,23.163296,-19.887144,-14.610481,,,,,,,
1512178338.101686,-0.027284,0.317908,-0.380748,-0.160801,-0.074496,0.470173,-0.025914,-0.312580,-0.949538,-0.041408,0.046085,0.205718,22.941677,-19.137480,-14.608223,,,,,,,
1512178338.121675,-0.024608,0.316763,-0.374103,0.005927,0.366377,0.207609,-0.023381,-0.311492,-0.949961,-0.066417,-0.023438,0.149424,23.242657,-18.912031,-14.685677,,,,,,,
1512178338.141695,-0.018533,0.317797,-0.372337,0.059824,0.267453,0.037476,-0.017604,-0.312474,-0.949763,-0.061559,-0.056010,0.108180,23.465588,-19.361692,-14.762794,,,,,,,
1512178338.161685,-0.016531,0.317601,-0.372651,-0.069070,0.003573,-0.046331,-0.015704,-0.312288,-0.949858,-0.029218,-0.051802,0.116377,23.164608,-19.587141,-14.685356,,,,,,,
1512178338.181674,-0.017058,0.315406,-0.375625,-0.081330,-0.114682,-0.213224,-0.016216,-0.310203,-0.950532,-0.056508,-0.065499,0.071534,23.091228,-19.287260,-14.159569,,,,,,,
1512178338.201693,-0.016713,0.313281,-0.380657,-0.130141,-0.044240,-0.224350,-0.015899,-0.308182,-0.951195,0.011795,-0.107345,0.112938,23.466640,-19.136686,-14.687691,,,,,,,
1512178338.221682,-0.015392,0.308927,-0.385477,-0.278081,-0.041236,-0.239277,-0.014663,-0.304037,-0.952547,-0.023652,-0.147333,0.090304,23.468670,-18.686689,-14.687492,,,,,,,
1512178338.241671,-0.015819,0.301658,-0.391044,-0.404308,-0.140683,-0.281960,-0.015104,-0.297103,-0.954726,-0.017565,-0.127244,0.025145,23.394146,-18.611799,-14.386818,,,,,,,
1512178338.261691,-0.016226,0.294831,-0.397907,-0.264832,-0.088024,-0.333058,-0.015525,-0.290578,-0.956725,0.015449,-0.147898,0.032272,23.019634,-18.462370,-14.758553,,,,,,,
1512178338.281680,-0.010889,0.294221,-0.403140,0.066977,0.302114,-0.201099,-0.010421,-0.289994,-0.956972,0.005522,-0.166183,-0.017027,23.322384,-17.861906,-14.685829,,,,,,,
1512178338.301669,-0.005117,0.297858,-0.406587,0.144181,0.149422,-0.170660,-0.004891,-0.293473,-0.955955,0.014291,-0.155196,-0.077721,23.246105,-18.162031,-14.535332,,,,,,,
1512178338.321687,-0.004008,0.300440,-0.411223,0.053847,-0.074855,-0.263365,-0.003828,-0.295940,-0.955199,-0.014787,-0.137379,-0.079393,23.696712,-18.011351,-14.689095,,,,,,,
1512178338.341676,-0.004418,0.301812,-0.418270,0.089662,-0.153639,-0.370794,-0.004218,-0.297250,-0.954790,-0.014138,-0.136999,-0.096357,23.473125,-17.711683,-14.537041,,,,,,,
1512178338.361665,-0.004850,0.306205,-0.426107,0.278320,-0.097812,-0.365733,-0.004624,-0.301442,-0.953473,-0.013137,-0.135768,-0.088168,23.396740,-18.011793,-14.611534,,,,,,,
1512178338.381685,-0.001611,0.313764,-0.433373,0.432601,0.138440,-0.336023,-0.001532,-0.308641,-0.951177,0.003211,-0.107038,-0.104487,23.772152,-17.936232,-14.464699,,,,,,,
1512178338.401675,0.003211,0.324034,-0.440365,0.546424,0.112948,-0.322737,0.003044,-0.318393,-0.947954,0.015205,-0.127408,-0.153776,23.695797,-18.236341,-14.464195,,,,,,,
1512178338.421695,0.005199,0.336103,-0.446143,0.656298,-0.053752,-0.205524,0.004908,-0.329811,-0.944034,0.100500,-0.086724,-0.215695,23.465847,-19.286695,-14.912758,,,,,,,
1512178338.441684,0.002216,0.352628,-0.447103,0.939910,-0.246082,0.040977,0.002079,-0.345366,-0.938466,0.096020,-0.097658,-0.172466,23.243404,-18.762022,-14.535606,,,,,,,
1512178338.461673,-0.005781,0.372412,-0.445775,0.960775,-0.438365,0.058731,-0.005385,-0.363864,-0.931437,0.002897,-0.127897,-0.055975,23.463680,-19.811705,-14.538002,,,,,,,
1512178338.481692,-0.014879,0.386490,-0.441819,0.529456,-0.312249,0.233087,-0.013781,-0.376940,-0.926135,-0.052656,-0.107984,0.007876,22.858944,-20.862608,-14.533394,,,,,,,
1512178338.501681,-0.020737,0.389079,-0.437957,-0.166402,-0.150802,0.159603,-0.019186,-0.379337,-0.925060,-0.046809,-0.034924,-0.041325,22.782528,-21.162718,-14.682899,,,,,,,
1512178338.521670,-0.025202,0.378531,-0.437625,-0.700862,-0.288935,-0.083153,-0.023415,-0.369556,-0.928913,-0.099540,0.001193,-0.154720,22.559582,-20.713057,-14.605766,,,,,,,
1512178338.541690,-0.033769,0.361573,-0.443309,-0.859761,-0.658237,-0.356453,-0.031580,-0.353746,-0.934808,-0.028113,0.038881,-0.238837,22.038448,-19.813841,-14.975883,,,,,,,
1512178338.561679,-0.042742,0.349196,-0.456140,-0.509794,-0.627123,-0.696679,-0.040151,-0.342142,-0.938790,0.033956,0.193018,-0.233772,21.441296,-19.139723,-15.345467,,,,,,,
1512178338.581668,-0.049454,0.346987,-0.473997,0.104997,-0.658947,-0.872309,-0.046488,-0.340066,-0.939252,0.055414,0.187478,-0.123965,21.068951,-18.540281,-15.417015,,,,,,,
1512178338.601643,-0.053671,0.358323,-0.491440,0.755917,-0.369621,-0.832024,-0.050238,-0.350704,-0.935138,0.019171,0.111461,0.051395,20.618130,-18.690962,-15.713249,,,,,,,
1512178338.621632,-0.050113,0.378603,-0.507489,1.038727,0.054751,-0.765687,-0.046545,-0.369622,-0.928016,-0.005030,0.097314,0.174949,20.466137,-19.141188,-15.637184,,,,,,,
1512178338.641652,-0.039350,0.398734,-0.521443,0.873049,0.404655,-0.657064,-0.036254,-0.388252,-0.920840,-0.016908,0.078697,0.224429,20.684277,-20.640867,-15.864784,,,,,,,
1512178338.661641,-0.025455,0.411864,-0.534267,0.476230,0.440210,-0.575271,-0.023324,-0.400318,-0.916079,-0.034827,-0.036816,0.201388,21.061275,-20.265303,-15.267815,,,,,,,
1512178338.681630,-0.012837,0.414345,-0.544394,-0.092720,0.387726,-0.403533,-0.011750,-0.402590,-0.915305,0.040620,0.016009,0.118521,21.661648,-20.189405,-15.197868,,,,,,,
1512178338.701649,-0.004775,0.407955,-0.551066,-0.419645,0.192492,-0.240512,-0.004383,-0.396733,-0.917924,0.078464,0.028035,0.017396,22.112392,-20.038725,-15.051628,,,,,,,
1512178338.721638,-0.002807,0.398970,-0.553788,-0.435783,-0.047182,-0.048620,-0.002586,-0.388469,-0.921458,0.114143,0.059993,-0.039800,22.189388,-19.588606,-15.127052,,,,,,,
1512178338.741627,-0.006267,0.391896,-0.552475,-0.324470,-0.146681,0.112551,-0.005792,-0.381941,-0.924169,0.121850,0.090498,-0.014064,21.965328,-19.363951,-15.275047,,,,,,,
1512178338.761647,-0.012142,0.386943,-0.548443,-0.177454,-0.274891,0.242165,-0.011244,-0.377359,-0.925999,0.046461,0.031518,0.047291,21.893017,-18.764051,-15.274132,,,,,,,
1512178338.781636,-0.018578,0.384778,-0.541943,-0.076384,-0.116808,0.327333,-0.017218,-0.375354,-0.926722,0.039054,0.055682,0.109217,21.440624,-19.289732,-15.345543,,,,,,,
1512178338.801625,-0.021787,0.383809,-0.534220,-0.026946,0.042334,0.375510,-0.020201,-0.374455,-0.927025,0.028440,0.051335,0.121727,21.666286,-19.139387,-15.347389,,,,,,,
1512178338.821644,-0.022358,0.383225,-0.525778,-0.018689,0.163006,0.397368,-0.020734,-0.373913,-0.927232,0.029035,0.057186,0.101731,21.290951,-19.214949,-15.344231,,,,,,,
1512178338.841633,-0.022099,0.382487,-0.517647,-0.030956,0.148092,0.364088,-0.020500,-0.373228,-0.927513,0.021736,0.053404,0.070472,21.666409,-19.139387,-15.122383,,,,,,,
1512178338.861653,-0.022792,0.382459,-0.509774,0.028672,0.111862,0.366960,-0.021143,-0.373203,-0.927509,0.039500,0.029728,0.067538,21.664944,-19.439390,-15.347527,,,,,,,
1512178338.881642,-0.022918,0.383890,-0.501183,0.120549,0.185594,0.422914,-0.021248,-0.374530,-0.926971,0.034996,-0.002423,0.082718,21.664379,-19.589399,-15.122597,,,,,,,
1512178338.901631,-0.021666,0.387302,-0.491228,0.211432,0.289246,0.476831,-0.020060,-0.377691,-0.925714,0.021067,-0.023966,0.102411,22.112728,-19.963728,-15.051598,,,,,,,
1512178338.921651,-0.018794,0.391640,-0.480197,0.226720,0.384248,0.524291,-0.017370,-0.381705,-0.924121,0.005697,-0.048044,0.103747,22.336727,-20.188383,-15.053612,,,,,,,
1512178338.941640,-0.015237,0.395559,-0.467977,0.190702,0.423613,0.577209,-0.014060,-0.385324,-0.922674,-0.009423,-0.044364,0.077261,22.484768,-20.638166,-14.905098,,,,,,,
1512178338.961629,-0.012328,0.398833,-0.455372,0.168354,0.353089,0.571309,-0.011360,-0.388343,-0.921445,-0.020195,-0.026101,0.029645,22.781918,-21.312727,-14.532967,,,,,,,
1512178338.981648,-0.011392,0.402269,-0.443448,0.187019,0.237828,0.532801,-0.010482,-0.391507,-0.920115,-0.035676,-0.028263,0.011515,22.853817,-21.987608,-14.683907,,,,,,,
1512178339.001637,-0.012308,0.406372,-0.432209,0.206675,0.144988,0.499714,-0.011306,-0.395279,-0.918491,-0.044160,-0.042282,-0.002453,23.154934,-21.762159,-14.461357,,,,,,,
1512178339.021626,-0.014045,0.410086,-0.421620,0.146177,0.111814,0.481664,-0.012880,-0.398688,-0.916996,-0.039168,-0.071008,-0.033901,23.003994,-21.987379,-14.310188,,,,,,,
1512178339.041646,-0.017767,0.410811,-0.410632,-0.036642,-0.019902,0.507342,-0.016288,-0.399353,-0.916652,-0.041635,-0.067001,-0.096684,23.001034,-22.662397,-14.160500,,,,,,,
1512178339.061635,-0.024768,0.408620,-0.400107,-0.113805,-0.198313,0.458696,-0.022727,-0.397343,-0.917388,-0.020669,-0.025157,-0.154831,23.151302,-22.587172,-14.311745,,,,,,,
1512178339.081654,-0.033261,0.408467,-0.391580,0.106570,-0.265045,0.344391,-0.030519,-0.397203,-0.917223,0.011736,0.015031,-0.171842,22.549496,-22.963072,-14.531807,,,,,,,
1512178339.101643,-0.039961,0.415840,-0.385052,0.548220,-0.140309,0.267004,-0.036546,-0.403959,-0.914047,0.046907,0.004087,-0.121003,22.548977,-23.113066,-14.231880,,,,,,,
1512178339.121632,-0.043524,0.431406,-0.377869,0.912041,0.027853,0.322969,-0.039524,-0.418149,-0.907518,0.054386,-0.031894,-0.069319,22.246197,-23.713530,-14.379601,,,,,,,
1512178339.141652,-0.045209,0.450143,-0.367725,0.927684,0.193129,0.480478,-0.040692,-0.435095,-0.899465,0.046353,-0.065928,-0.000392,22.313961,-25.363417,-14.006004,,,,,,,
1512178339.161641,-0.045353,0.463687,-0.354139,0.524435,0.346028,0.634009,-0.040550,-0.447248,-0.893490,0.022316,-0.076571,0.028301,22.011303,-25.963881,-13.928734,,,,,,,
1512178339.181630,-0.044592,0.465769,-0.338598,-0.106830,0.400459,0.711405,-0.039829,-0.449110,-0.892588,0.055042,-0.034075,-0.010992,22.458141,-26.638197,-14.157875,,,,,,,
1512178339.201649,-0.044640,0.456119,-0.322447,-0.617312,0.306648,0.762317,-0.040063,-0.440467,-0.896874,0.113214,0.026390,-0.099449,22.761700,-25.887754,-13.785072,,,,,,,
1512178339.221638,-0.048018,0.440627,-0.305762,-0.763106,0.120478,0.802199,-0.043415,-0.426506,-0.903442,0.133960,0.088494,-0.148758,22.538769,-25.438093,-13.707954,,,,,,,
1512178339.241627,-0.054637,0.426993,-0.288751,-0.531711,-0.014806,0.792290,-0.049707,-0.414135,-0.908857,0.128717,0.159329,-0.141695,22.462231,-25.738203,-14.082451,,,,,,,
1512178339.261647,-0.061104,0.420193,-0.273486,-0.171216,0.012720,0.653688,-0.055754,-0.407937,-0.911306,0.098951,0.182870,-0.046976,21.938168,-25.513990,-14.227882,,,,,,,
1512178339.281636,-0.063540,0.419422,-0.261643,0.072666,0.197163,0.484099,-0.057993,-0.407233,-0.911481,0.075144,0.137915,0.063535,22.162655,-25.663649,-13.929878,,,,,,,
1512178339.301655,-0.060060,0.421565,-0.252410,0.151386,0.466674,0.377436,-0.054769,-0.409189,-0.910804,0.074025,0.083551,0.133689,22.309582,-26.338423,-14.006462,,,,,,,
1512178339.321644,-0.050336,0.423459,-0.244915,0.092724,0.720911,0.326297,-0.045871,-0.410916,-0.910518,0.093951,0.031583,0.147670,22.686153,-26.037870,-13.559502,,,,,,,
1512178339.341633,-0.037268,0.423400,-0.237375,-0.037843,0.843489,0.364281,-0.033969,-0.410863,-0.911064,0.121921,0.011861,0.123970,23.435665,-26.186750,-13.190956,,,,,,,
1512178339.361653,-0.023813,0.420653,-0.228165,-0.178171,0.850541,0.469943,-0.021735,-0.408356,-0.912564,0.150519,0.006806,0.086407,23.883862,-26.636061,-12.744987,,,,,,,
1512178339.381642,-0.014658,0.415598,-0.215913,-0.270375,0.592669,0.618023,-0.013409,-0.403737,-0.914777,0.162060,0.025777,0.031735,24.559689,-26.485060,-12.450661,,,,,,,
1512178339.401631,-0.013857,0.409943,-0.200973,-0.260767,0.178010,0.726524,-0.012709,-0.398557,-0.917055,0.153746,0.061872,0.020067,24.634609,-26.484938,-12.601295,,,,,,,
1512178339.421651,-0.021065,0.404957,-0.184881,-0.228224,-0.145638,0.740792,-0.019360,-0.393980,-0.918915,0.102582,0.055112,0.088730,24.257473,-26.935514,-12.823311,,,,,,,
1512178339.441640,-0.032105,0.399594,-0.169073,-0.268756,-0.281351,0.735468,-0.029570,-0.389045,-0.920744,0.058822,0.032142,0.161284,24.031796,-27.085844,-12.821480,,,,,,,
1512178339.461629,-0.044119,0.392786,-0.153654,-0.336590,-0.304902,0.710952,-0.040746,-0.382763,-0.922947,0.027044,0.029385,0.198857,23.433376,-26.711744,-13.041206,,,,,,,
1512178339.481648,-0.054629,0.385334,-0.139757,-0.330821,-0.225672,0.623896,-0.050598,-0.375869,-0.925290,0.018219,0.021758,0.195783,23.131420,-27.162199,-12.888863,,,,,,,
1512178339.501637,-0.062800,0.378922,-0.128156,-0.252284,-0.187957,0.517492,-0.058306,-0.369919,-0.927232,0.022738,0.010559,0.151628,22.757214,-26.937757,-13.335564,,,,,,,
1512178339.521626,-0.070033,0.374705,-0.118477,-0.139994,-0.172664,0.431754,-0.065120,-0.365998,-0.928334,0.021373,-0.013808,0.130162,22.458141,-26.713209,-13.482903,,,,,,,
1512178339.541646,-0.075594,0.372299,-0.110286,-0.072734,-0.097655,0.364762,-0.070348,-0.363758,-0.928833,0.017995,-0.036678,0.089096,22.533215,-26.713102,-13.333549,,,,,,,
1512178339.561635,-0.079714,0.370749,-0.103511,-0.046066,-0.096418,0.299056,-0.074220,-0.362314,-0.929096,0.034699,-0.053259,0.001377,22.307064,-26.938429,-13.631737,,,,,,,
1512178339.581654,-0.085078,0.369067,-0.097738,-0.075360,-0.211750,0.259853,-0.079254,-0.360745,-0.929291,0.032333,-0.069812,-0.055557,22.007702,-26.788877,-13.704124,,,,,,,
1512178339.601646,-0.092093,0.366987,-0.093133,-0.088290,-0.285359,0.199709,-0.085839,-0.358805,-0.929457,0.008920,-0.077337,-0.070497,21.781719,-27.014219,-13.627312,,,,,,,
1512178339.621635,-0.098088,0.365396,-0.089963,-0.036896,-0.194336,0.126147,-0.091466,-0.357319,-0.929493,-0.006328,-0.076840,-0.092220,21.554852,-27.389555,-14.000572,,,,,,,
1512178339.641655,-0.100162,0.365767,-0.088266,0.058399,0.007857,0.046145,-0.093380,-0.357666,-0.929169,-0.005939,-0.074265,-0.104019,21.404919,-27.389784,-13.849281,,,,,,,
1512178339.661644,-0.098340,0.367353,-0.088094,0.086327,0.121272,-0.025547,-0.091631,-0.359146,-0.928772,-0.000807,-0.078415,-0.187118,21.703869,-27.614332,-13.926949,,,,,,,
1512178339.681633,-0.096272,0.369521,-0.089522,0.117560,0.030697,-0.113893,-0.089635,-0.361169,-0.928182,0.005956,-0.065025,-0.234568,21.779919,-27.389219,-13.852470,,,,,,,
1512178339.701652,-0.095682,0.373181,-0.093108,0.198243,-0.055481,-0.227093,-0.088961,-0.364580,-0.926913,-0.012663,-0.082686,-0.209348,21.628231,-27.764448,-13.851372,,,,,,,
1512178339.721641,-0.094100,0.378118,-0.098720,0.215634,0.006665,-0.308710,-0.087323,-0.369172,-0.925249,-0.039508,-0.116576,-0.154722,21.478985,-27.614683,-13.700035,,,,,,,
1512178339.741630,-0.089337,0.381118,-0.105275,0.033566,0.206147,-0.312786,-0.082817,-0.371958,-0.924547,-0.066368,-0.141744,-0.111494,21.401470,-28.139784,-13.999641,,,,,,,
1512178339.761650,-0.079596,0.378064,-0.112349,-0.308253,0.418223,-0.325528,-0.073897,-0.369122,-0.926438,-0.063631,-0.079243,-0.173613,22.078716,-27.688780,-13.555168,,,,,,,
1512178339.781639,-0.067909,0.369898,-0.120989,-0.472298,0.406367,-0.398305,-0.063268,-0.361521,-0.930215,-0.003169,0.021601,-0.278647,22.758068,-26.712751,-13.635460,,,,,,,
1512178339.801658,-0.058346,0.362673,-0.130807,-0.308436,0.234741,-0.453032,-0.054520,-0.354774,-0.933361,0.061921,0.115761,-0.295384,22.908184,-26.712538,-13.411736,,,,,,,
1512178339.821647,-0.051258,0.360511,-0.141540,-0.033369,0.145577,-0.522912,-0.047942,-0.352753,-0.934487,0.096160,0.168244,-0.224845,23.210613,-26.187086,-13.264030,,,,,,,
1512178339.841636,-0.044454,0.363830,-0.153187,0.254062,0.114052,-0.564698,-0.041531,-0.355856,-0.933617,0.097057,0.174078,-0.146674,23.511929,-25.886625,-13.341454,,,,,,,
1512178339.861656,-0.039379,0.374090,-0.165176,0.631652,-0.000702,-0.583081,-0.036646,-0.365426,-0.930119,0.092386,0.158150,-0.020397,23.211712,-25.962080,-13.113930,,,,,,,
1512178339.881645,-0.035879,0.390885,-0.176298,0.906565,-0.044219,-0.513155,-0.033165,-0.381007,-0.923977,0.059700,0.105449,0.131222,23.586117,-26.111509,-12.967201,,,,,,,
1512178339.901634,-0.033044,0.409830,-0.185035,0.909787,-0.004944,-0.382911,-0.030302,-0.398453,-0.916688,0.012754,0.059312,0.251740,23.733120,-26.786299,-12.893776,,,,,,,
1512178339.921654,-0.029885,0.424990,-0.190907,0.619584,0.064819,-0.236561,-0.027222,-0.412311,-0.910636,-0.031661,0.010746,0.304862,24.105450,-27.385740,-12.822243,,,,,,,
1512178339.941643,-0.025716,0.431606,-0.194214,0.141195,0.185630,-0.117275,-0.023355,-0.418330,-0.907995,-0.059439,-0.016408,0.289846,24.104214,-27.685743,-12.597389,,,,,,,
1512178339.961632,-0.020261,0.428805,-0.195443,-0.292214,0.277693,-0.012364,-0.018425,-0.415785,-0.909276,-0.024818,-0.004534,0.207021,24.180569,-27.385618,-12.597893,,,,,,,
1512178339.981651,-0.014551,0.419585,-0.194203,-0.538375,0.321933,0.113216,-0.013288,-0.407382,-0.913161,0.006117,0.000521,0.115294,24.554668,-27.610060,-12.376167,,,,,,,
1512178340.001640,-0.010355,0.407306,-0.189874,-0.644250,0.275549,0.260770,-0.009508,-0.396137,-0.918142,0.034685,0.019764,0.044347,24.554440,-27.610060,-12.826180,,,,,,,
1512178340.021660,-0.008333,0.393821,-0.182480,-0.678434,0.226103,0.392296,-0.007695,-0.383720,-0.923417,0.051213,0.037284,-0.002898,24.710705,-26.259825,-12.451836,,,,,,,
1512178340.041649,-0.008393,0.380410,-0.172808,-0.649123,0.146913,0.485189,-0.007793,-0.371301,-0.928480,0.054195,0.057397,-0.028429,25.010250,-26.334379,-12.679405,,,,,,,
1512178340.061638,-0.010604,0.368788,-0.161759,-0.520008,0.053005,0.537905,-0.009890,-0.360485,-0.932712,0.050891,0.068829,-0.038372,24.560177,-26.335051,-12.825584,,,,,,,
1512178340.081657,-0.015328,0.360907,-0.149670,-0.301302,-0.063186,0.587579,-0.014340,-0.353123,-0.935467,0.047894,0.065296,-0.011616,24.633709,-26.634947,-13.051369,,,,,,,
1512178340.101646,-0.022360,0.357212,-0.136817,-0.106650,-0.153731,0.609271,-0.020946,-0.349664,-0.936641,0.020275,0.056787,0.045024,24.411861,-25.960279,-12.824135,,,,,,,
1512178340.121635,-0.029165,0.356271,-0.124423,0.016793,-0.109649,0.560042,-0.027329,-0.348782,-0.936805,-0.005752,0.056484,0.091926,24.562466,-25.810057,-12.975349,,,,,,,
1512178340.141655,-0.033803,0.357546,-0.113758,0.131402,-0.018499,0.466071,-0.031659,-0.349977,-0.936223,-0.012881,0.031221,0.124013,23.809124,-26.561171,-12.894310,,,,,,,
1512178340.161644,-0.036263,0.360912,-0.104472,0.226084,0.057588,0.417605,-0.033920,-0.353127,-0.934960,-0.008790,0.000436,0.131737,23.959499,-26.485945,-12.820564,,,,,,,
1512178340.181633,-0.037972,0.365744,-0.095432,0.275165,0.071557,0.416235,-0.035452,-0.357644,-0.933185,-0.005182,-0.017722,0.122897,23.957104,-27.010954,-12.895805,,,,,,,
1512178340.201652,-0.040263,0.370896,-0.086366,0.263555,0.034170,0.407408,-0.037515,-0.362450,-0.931248,-0.017553,-0.034171,0.125812,23.880520,-27.386076,-12.670341,,,,,,,
1512178340.221641,-0.042913,0.374885,-0.077359,0.180238,0.042562,0.416887,-0.039920,-0.366165,-0.929693,-0.030514,-0.067337,0.126394,24.102413,-28.060743,-12.822563,,,,,,,
1512178340.241661,-0.044815,0.376627,-0.068104,0.061757,0.091494,0.428132,-0.041660,-0.367786,-0.928977,-0.049725,-0.075894,0.092948,23.801556,-28.286192,-12.520119,,,,,,,
1512178340.261650,-0.046095,0.376230,-0.058987,-0.031925,0.104188,0.421492,-0.042856,-0.367417,-0.929068,-0.067816,-0.078109,0.048392,23.801067,-28.361189,-12.820152,,,,,,,
1512178340.281639,-0.047071,0.374182,-0.050241,-0.119207,0.128633,0.413913,-0.043798,-0.365511,-0.929776,-0.075526,-0.087523,0.024853,23.650539,-28.511412,-12.518944,,,,,,,
1512178340.301658,-0.047461,0.368920,-0.041039,-0.336256,0.149592,0.454553,-0.044251,-0.360608,-0.931667,-0.065688,-0.104220,-0.027684,24.249493,-28.735518,-12.599144,,,,,,,
1512178340.321647,-0.048102,0.360006,-0.031609,-0.491819,0.147231,0.450162,-0.045001,-0.352280,-0.934812,-0.030103,-0.056915,-0.104769,23.725918,-28.436308,-12.444542,,,,,,,
1512178340.341636,-0.047852,0.350374,-0.023405,-0.451116,0.180553,0.375176,-0.044928,-0.343249,-0.938169,0.009116,-0.030836,-0.168703,24.102566,-28.060743,-12.522560,,,,,,,
1512178340.361656,-0.045940,0.343746,-0.016368,-0.217055,0.249341,0.342561,-0.043238,-0.337016,-0.940505,0.048120,-0.039677,-0.182526,23.500393,-28.511641,-12.817665,,,,,,,
1512178340.381645,-0.041289,0.342098,-0.008600,-0.001277,0.440785,0.390062,-0.038886,-0.335464,-0.941250,0.058371,-0.056000,-0.132374,24.101589,-28.285734,-12.447670,,,,,,,
1512178340.401634,-0.032929,0.341317,0.000825,-0.078364,0.662657,0.484592,-0.031024,-0.334728,-0.941804,0.052050,-0.062947,-0.088928,24.175686,-28.510633,-12.223412,,,,,,,
1512178340.421654,-0.020670,0.335301,0.012299,-0.431603,0.864887,0.582522,-0.019517,-0.329054,-0.944109,0.069993,-0.043825,-0.132887,24.699856,-28.734846,-11.852974,,,,,,,
1512178340.441643,-0.008056,0.322714,0.024919,-0.693201,0.776857,0.604014,-0.007640,-0.317141,-0.948347,0.129176,0.039584,-0.251116,25.603313,-27.983488,-11.710274,,,,,,,
1512178340.461632,-0.000565,0.310858,0.036223,-0.456061,0.388614,0.490962,-0.000538,-0.305875,-0.952071,0.186359,0.104673,-0.309342,25.753719,-27.908262,-11.561516,,,,,,,
1512178340.481651,-0.000036,0.309550,0.045355,0.192953,0.077821,0.423591,-0.000034,-0.304630,-0.952471,0.211384,0.098941,-0.178496,25.753170,-28.058271,-11.336586,,,,,,,
1512178340.501640,-0.001395,0.320885,0.055521,0.746738,0.135085,0.525629,-0.001323,-0.315407,-0.948955,0.169658,0.048622,0.018413,25.899899,-28.808043,-11.113213,,,,,,,
1512178340.521660,-0.000104,0.337672,0.068304,0.826930,0.351798,0.650138,-0.000098,-0.331291,-0.943528,0.139685,0.036095,0.139619,25.596981,-29.483503,-10.885963,,,,,,,
1512178340.541649,0.002727,0.350324,0.083539,0.476646,0.399136,0.756104,0.002561,-0.343202,-0.939258,0.139224,0.030595,0.167026,29.554962,-8.558338,-39.547226,,,,,,,
1512178340.561638,0.003475,0.353356,0.101144,-0.054094,0.295548,0.870649,0.003261,-0.346048,-0.938211,0.147405,0.016657,0.144418,29.552383,-9.158329,-39.322510,,,,,,,
1512178340.581657,0.000583,0.346792,0.121549,-0.468044,0.155767,1.012347,0.000548,-0.339882,-0.940468,0.158815,0.047509,0.086708,29.325287,-9.608677,-39.470810,,,,,,,
1512178340.601598,-0.005269,0.334773,0.144619,-0.651210,0.062333,1.125570,-0.004976,-0.328555,-0.944472,0.139818,0.079989,0.035338,28.873810,-9.909351,-39.692123,,,,,,,
1512178340.621587,-0.012811,0.321303,0.168753,-0.646340,-0.023166,1.148794,-0.012155,-0.315803,-0.948747,0.111185,0.116126,0.003801,28.424454,-9.760029,-39.763229,,,,,,,
1512178340.641607,-0.021711,0.310161,0.192034,-0.453477,-0.115680,1.085170,-0.020674,-0.305212,-0.952060,0.074827,0.130590,0.023486,27.972534,-10.135700,-40.209579,,,,,,,
1512178340.661596,-0.030325,0.304118,0.212894,-0.167582,-0.092533,0.945476,-0.028929,-0.299452,-0.953673,0.024779,0.117475,0.108198,27.598587,-9.911259,-40.131287,,,,,,,
1512178340.681585,-0.035825,0.303292,0.230727,0.070546,0.046988,0.799098,-0.034183,-0.298664,-0.953746,-0.002118,0.070331,0.188548,27.295807,-10.511723,-40.279007,,,,,,,
1512178340.701604,-0.037383,0.305755,0.245962,0.177128,0.201208,0.678581,-0.035641,-0.301013,-0.952954,-0.011463,0.028155,0.225521,27.144531,-10.811939,-40.127869,,,,,,,
1512178340.721593,-0.037870,0.308301,0.259348,0.120710,0.139304,0.605053,-0.036076,-0.303440,-0.952167,-0.002849,-0.010387,0.217746,26.993713,-11.037174,-39.751709,,,,,,,
1512178340.741613,-0.040266,0.308556,0.271153,-0.016854,0.009983,0.537584,-0.038354,-0.303683,-0.952001,-0.004066,-0.041852,0.209188,26.594086,-13.205202,-39.820419,,,,,,,
1512178340.761602,-0.044869,0.306508,0.281952,-0.113651,-0.121519,0.517599,-0.042764,-0.301731,-0.952433,-0.004050,-0.068341,0.163249,26.599548,-12.005205,-39.669876,,,,,,,
1512178340.781591,-0.052923,0.303119,0.292536,-0.155129,-0.315963,0.502464,-0.050486,-0.298498,-0.953074,-0.018300,-0.065271,0.086832,26.148804,-12.155870,-39.816116,,,,,,,
1512178340.801610,-0.063442,0.299588,0.301902,-0.140103,-0.412999,0.426652,-0.060575,-0.295127,-0.953536,-0.057619,-0.070748,0.035353,25.544601,-13.056780,-40.111435,,,,,,,
1512178340.821599,-0.073976,0.297074,0.309505,-0.069303,-0.405224,0.337096,-0.070671,-0.292724,-0.953582,-0.105355,-0.074982,-0.023973,25.246628,-12.607225,-40.108673,,,,,,,
1512178340.841588,-0.082375,0.297004,0.314792,0.068467,-0.289378,0.197706,-0.078679,-0.292657,-0.952975,-0.138621,-0.073707,-0.082471,24.644455,-13.058138,-40.403778,,,,,,,
1512178340.861608,-0.086915,0.299225,0.317614,0.142946,-0.122411,0.084227,-0.082948,-0.294780,-0.951958,-0.168486,-0.096868,-0.129127,24.419495,-13.058474,-40.326859,,,,,,,
1512178340.881597,-0.087593,0.301859,0.318158,0.121492,0.018787,-0.029658,-0.083526,-0.297295,-0.951125,-0.177491,-0.094413,-0.204637,24.193588,-13.283815,-40.100052,,,,,,,
1512178340.901586,-0.086485,0.304360,0.315825,0.126183,0.002014,-0.185292,-0.082407,-0.299683,-0.950473,-0.161062,-0.048355,-0.285809,24.343552,-13.283587,-40.176331,,,,,,,
1512178340.921606,-0.085257,0.309038,0.309424,0.269480,-0.049672,-0.409403,-0.081120,-0.304143,-0.949166,-0.135570,-0.028209,-0.301032,24.566193,-13.808245,-40.178482,,,,,,,
1512178340.941595,-0.083475,0.317237,0.298987,0.413204,-0.083269,-0.592930,-0.079218,-0.311943,-0.946792,-0.111471,-0.055687,-0.249710,24.418549,-13.283480,-40.176971,,,,,,,
1512178340.961614,-0.080748,0.326711,0.285773,0.405319,-0.059578,-0.695303,-0.076394,-0.320929,-0.944017,-0.096031,-0.092050,-0.170668,24.642578,-13.508135,-40.103989,,,,,,,
1512178340.981603,-0.076581,0.334485,0.271635,0.283701,0.008580,-0.687236,-0.072266,-0.328282,-0.941811,-0.093582,-0.126597,-0.107551,25.018661,-13.282579,-39.957062,,,,,,,
1512178341.001592,-0.069753,0.338377,0.257595,0.035215,0.184423,-0.673169,-0.065745,-0.331956,-0.941001,-0.101858,-0.097670,-0.058923,24.718781,-13.283022,-39.729523,,,,,,,
1512178341.021612,-0.058962,0.335427,0.242572,-0.321006,0.338869,-0.719363,-0.055644,-0.329173,-0.942629,-0.085347,-0.018087,-0.095228,25.620239,-12.981661,-39.512039,,,,,,,
1512178341.041601,-0.045976,0.327602,0.226044,-0.464929,0.399656,-0.780937,-0.043516,-0.321774,-0.945816,-0.011111,0.071942,-0.179184,26.222260,-12.530764,-39.516922,,,,,,,
1512178341.061590,-0.033466,0.320111,0.208316,-0.337983,0.286770,-0.856247,-0.031760,-0.314672,-0.948669,0.049292,0.163427,-0.245683,26.824142,-12.079866,-39.821823,,,,,,,
1512178341.081609,-0.024522,0.318543,0.188969,0.068416,0.040815,-0.947161,-0.023286,-0.313183,-0.949407,0.083741,0.204113,-0.216929,27.126434,-11.554415,-39.974121,,,,,,,
1512178341.101598,-0.020786,0.327298,0.168503,0.620063,-0.224238,-0.990195,-0.019681,-0.321486,-0.946710,0.062146,0.175825,-0.046546,27.503052,-11.253847,-39.452179,,,,,,,
1512178341.121587,-0.019655,0.344615,0.148389,0.938018,-0.272978,-0.944181,-0.018498,-0.337834,-0.941024,0.002537,0.119054,0.167891,27.952713,-11.328173,-39.456039,,,,,,,
1512178341.141607,-0.016915,0.363770,0.129943,0.898138,-0.111935,-0.845054,-0.015807,-0.355800,-0.934428,-0.068269,0.059688,0.314036,28.101730,-11.552950,-39.382416,,,,,,,
1512178341.161596,-0.010518,0.377993,0.112996,0.554909,0.085013,-0.773653,-0.009775,-0.369055,-0.929356,-0.110662,0.020789,0.361164,28.175949,-11.777834,-38.933151,,,,,,,
1512178341.181615,-0.001182,0.383362,0.097152,0.088142,0.203820,-0.712839,-0.001096,-0.374041,-0.927411,-0.090030,0.010851,0.292432,28.551407,-11.702272,-38.711304,,,,,,,
1512178341.201604,0.007417,0.380289,0.083184,-0.268723,0.126149,-0.603145,0.006887,-0.371188,-0.928532,-0.035406,0.021304,0.169621,29.001175,-11.776598,-38.490173,,,,,,,
1512178341.221593,0.011839,0.373294,0.072069,-0.355283,-0.056913,-0.470715,0.011023,-0.364684,-0.931066,-0.007178,0.042663,0.078695,29.306458,-10.576143,-38.717163,,,,,,,
1512178341.241613,0.012141,0.367400,0.063801,-0.230646,-0.164868,-0.341359,0.011330,-0.359190,-0.933195,0.003333,0.058714,0.057402,29.382172,-10.426027,-38.642731,,,,,,,
1512178341.261602,0.011338,0.364910,0.057763,-0.063646,-0.115649,-0.251349,0.010591,-0.356865,-0.934096,-0.015489,0.049965,0.079664,29.233780,-10.051241,-38.791275,,,,,,,
1512178341.281591,0.012012,0.364380,0.053320,-0.010334,-0.014222,-0.181995,0.011223,-0.356370,-0.934277,-0.020912,0.028001,0.075589,29.235031,-9.751253,-39.016144,,,,,,,
1512178341.301610,0.012923,0.364343,0.050394,0.003405,-0.013277,-0.110368,0.012075,-0.356335,-0.934280,-0.014211,0.019971,0.060607,29.385101,-9.751024,-38.867416,,,,,,,
1512178341.321599,0.012497,0.364411,0.048822,0.001332,-0.074280,-0.051976,0.011676,-0.356400,-0.934260,-0.007556,0.024414,0.064098,29.308746,-10.051134,-38.866928,,,,,,,
1512178341.341588,0.010248,0.364294,0.048492,-0.010333,-0.142779,0.005183,0.009576,-0.356290,-0.934326,-0.007104,0.020856,0.076309,29.234695,-9.826250,-39.016174,,,,,,,
1512178341.361608,0.006134,0.363996,0.049376,-0.018766,-0.217676,0.060234,0.005732,-0.356011,-0.934464,-0.008280,0.005654,0.087800,29.008865,-9.976580,-39.314331,,,,,,,
1512178341.381597,0.000265,0.363360,0.051269,-0.045122,-0.286169,0.103321,0.000247,-0.355417,-0.934707,-0.024326,0.000345,0.109375,28.859909,-9.751818,-39.237961,,,,,,,
1512178341.401586,-0.006424,0.361751,0.053694,-0.105018,-0.276667,0.116348,-0.006009,-0.353913,-0.935259,-0.042621,-0.000473,0.121462,28.559723,-9.752260,-39.610413,,,,,,,
1512178341.421606,-0.011267,0.359306,0.056274,-0.116832,-0.141046,0.128376,-0.010547,-0.351625,-0.936081,-0.044995,-0.013625,0.080033,28.409836,-9.752489,-39.384140,,,,,,,
1512178341.441595,-0.013437,0.357868,0.059107,-0.033728,-0.005280,0.137513,-0.012585,-0.350278,-0.936561,-0.039539,-0.021197,0.033546,28.410400,-9.602480,-39.609070,,,,,,,
1512178341.461614,-0.012839,0.358547,0.062318,0.074796,0.127310,0.157672,-0.012022,-0.350914,-0.936330,-0.032533,-0.031853,-0.029902,28.335480,-9.602587,-39.458420,,,,,,,
1512178341.481603,-0.011442,0.360754,0.066029,0.114935,0.145482,0.180703,-0.010705,-0.352980,-0.935569,-0.016623,-0.033067,-0.073510,28.333145,-10.127596,-39.383667,,,,,,,
1512178341.501592,-0.010534,0.362194,0.070657,0.015919,0.120654,0.236751,-0.009850,-0.354327,-0.935069,-0.008475,-0.052137,-0.103367,28.558594,-10.052263,-39.160538,,,,,,,
1512178341.521612,-0.011024,0.360518,0.076328,-0.139265,0.068005,0.270563,-0.010315,-0.352759,-0.935657,0.010468,-0.026773,-0.133618,28.708496,-10.052034,-39.386826,,,,,,,
1512178341.541601,-0.012265,0.357844,0.081946,-0.100587,0.026439,0.249655,-0.011488,-0.350256,-0.936583,0.036192,-0.002527,-0.176606,28.483826,-9.977373,-39.384872,,,,,,,
1512178341.561590,-0.014187,0.358476,0.086942,0.133090,-0.022308,0.234749,-0.013285,-0.350847,-0.936338,0.062937,-0.010984,-0.166231,28.181763,-10.427828,-39.457535,,,,,,,
1512178341.581609,-0.015424,0.363910,0.092980,0.336584,0.114580,0.313866,-0.014414,-0.355931,-0.934401,0.061762,-0.063243,-0.079149,28.181564,-10.502825,-39.157562,,,,,,,
1512178341.601595,-0.013532,0.369552,0.102219,0.210961,0.340458,0.507918,-0.012618,-0.361198,-0.932404,0.055511,-0.098626,-0.028183,27.953201,-11.253176,-39.155991,,,,,,,
1512178341.621584,-0.010214,0.368251,0.115555,-0.244817,0.415278,0.676412,-0.009529,-0.359985,-0.932909,0.068595,-0.047990,-0.066801,28.478012,-11.327379,-38.860504,,,,,,,
1512178341.641604,-0.009513,0.357690,0.130499,-0.647386,0.195622,0.706061,-0.008911,-0.350112,-0.936665,0.113174,0.040846,-0.184200,28.252289,-11.477724,-38.933655,,,,,,,
1512178341.661593,-0.015612,0.344628,0.144610,-0.584876,-0.211148,0.644785,-0.014693,-0.337847,-0.941086,0.140563,0.105593,-0.224884,28.327866,-11.327608,-39.159225,,,,,,,
1512178341.681612,-0.026460,0.337876,0.157536,-0.137583,-0.341761,0.601775,-0.024961,-0.331484,-0.943130,0.123548,0.120638,-0.114365,27.728455,-11.178499,-39.304047,,,,,,,
1512178341.701602,-0.034468,0.340350,0.169737,0.288623,-0.107100,0.560791,-0.032484,-0.333817,-0.942078,0.072920,0.092743,0.036331,27.277740,-11.329180,-39.375305,,,,,,,
1512178341.721591,-0.036714,0.347889,0.181628,0.405768,0.222169,0.519927,-0.034507,-0.340914,-0.939461,0.049262,0.082216,0.135094,27.050537,-11.854525,-39.073624,,,,,,,
1512178341.741611,-0.032792,0.353402,0.191284,0.188420,0.414360,0.391649,-0.030760,-0.346091,-0.937696,0.033949,0.062674,0.157469,26.819412,-13.204866,-39.147339,,,,,,,
1512178341.761600,-0.026009,0.352148,0.197747,-0.199566,0.455681,0.260374,-0.024410,-0.344915,-0.938316,0.070934,0.050665,0.114921,27.498352,-12.378847,-38.702698,,,,,,,
1512178341.781589,-0.019312,0.344378,0.202641,-0.464700,0.389099,0.239249,-0.018177,-0.337612,-0.941110,0.119953,0.034816,0.044534,27.499451,-12.153856,-38.552597,,,,,,,
1512178341.801607,-0.015308,0.334749,0.208203,-0.441190,0.224526,0.292319,-0.014457,-0.328532,-0.944382,0.146095,0.049052,0.007141,27.574036,-12.228731,-38.703262,,,,,,,
1512178341.821596,-0.014650,0.329212,0.214691,-0.149557,0.101015,0.314237,-0.013863,-0.323298,-0.946195,0.132500,0.056849,0.060408,27.573959,-12.228731,-38.853271,,,,,,,
1512178341.841585,-0.014883,0.330266,0.221065,0.165233,0.099394,0.295337,-0.014078,-0.324294,-0.945851,0.095881,0.032867,0.174397,27.498276,-12.378847,-38.852692,,,,,,,
1512178341.861605,-0.013913,0.335129,0.227645,0.261913,0.191363,0.320513,-0.013139,-0.328891,-0.944276,0.065583,-0.010632,0.260713,27.498352,-12.378847,-38.702698,,,,,,,
1512178341.881594,-0.012539,0.338964,0.235282,0.136168,0.177164,0.381540,-0.011825,-0.332510,-0.943025,0.041137,-0.040018,0.274385,27.496445,-12.828859,-38.477905,,,,,,,
1512178341.901613,-0.013579,0.339392,0.244038,-0.032971,0.033695,0.416968,-0.012804,-0.332914,-0.942870,0.029146,-0.019000,0.229964,27.194229,-13.354311,-38.175598,,,,,,,
1512178341.921603,-0.017450,0.337290,0.252255,-0.131483,-0.108440,0.371336,-0.016466,-0.330931,-0.943511,0.015764,-0.013552,0.182372,27.046478,-12.829531,-38.399078,,,,,,,
1512178341.941592,-0.023960,0.334481,0.259627,-0.117244,-0.253634,0.341187,-0.022630,-0.328279,-0.944309,0.009431,-0.015120,0.140110,26.818741,-13.429873,-38.472443,,,,,,,
1512178341.961612,-0.031704,0.333275,0.266714,-0.010549,-0.269479,0.335216,-0.029954,-0.327140,-0.944501,-0.017119,-0.022302,0.107846,26.369720,-13.205553,-38.543518,,,,,,,
1512178341.981601,-0.039847,0.333304,0.273805,0.003248,-0.311126,0.336335,-0.037644,-0.327167,-0.944216,-0.034988,-0.042172,0.059389,26.144302,-13.280886,-38.691635,,,,,,,
1512178342.001590,-0.050135,0.330993,0.281230,-0.179614,-0.459934,0.364086,-0.047393,-0.324982,-0.944532,-0.079804,-0.066925,-0.005252,25.768219,-13.506441,-38.838562,,,,,,,
1512178342.021610,-0.063758,0.324504,0.287566,-0.375364,-0.639493,0.266815,-0.060390,-0.318839,-0.945883,-0.125813,-0.036584,-0.067621,25.017197,-13.657579,-39.507248,,,,,,,
1512178342.041599,-0.077940,0.315403,0.289685,-0.478345,-0.666995,0.044548,-0.074020,-0.310200,-0.947785,-0.165116,-0.024440,-0.096237,25.019226,-13.207567,-39.507034,,,,,,,
1512178342.061588,-0.088389,0.306018,0.286728,-0.466911,-0.489195,-0.187066,-0.084173,-0.301264,-0.949818,-0.167994,-0.013754,-0.135295,24.118622,-13.283922,-40.024414,,,,,,,
1512178342.081606,-0.093552,0.298730,0.279404,-0.330248,-0.307003,-0.384872,-0.089279,-0.294306,-0.951532,-0.136841,0.005625,-0.211325,23.896622,-12.609255,-40.097198,,,,,,,
1512178342.101595,-0.095691,0.297098,0.268545,0.015558,-0.259042,-0.600366,-0.091359,-0.292746,-0.951815,-0.097132,0.022055,-0.264722,23.897293,-12.459261,-40.097122,,,,,,,
1512178342.121615,-0.096073,0.303806,0.252536,0.407469,-0.273877,-0.900701,-0.091533,-0.299154,-0.949804,-0.070073,0.013693,-0.207636,24.046021,-12.684023,-40.623505,,,,,,,
1512178342.141604,-0.095896,0.317651,0.233038,0.659063,-0.256152,-1.030255,-0.090959,-0.312336,-0.945607,-0.085554,-0.071071,-0.094082,23.823120,-12.234362,-40.471390,,,,,,,
1512178342.161593,-0.092049,0.330773,0.212044,0.434498,-0.071668,-1.043525,-0.086937,-0.324774,-0.941787,-0.102425,-0.142801,-0.019806,23.970352,-12.834139,-40.622925,,,,,,,
1512178342.181612,-0.084300,0.333572,0.191548,-0.206711,0.134380,-0.936960,-0.079559,-0.327420,-0.941523,-0.107773,-0.145709,-0.040990,24.348618,-12.158571,-40.175812,,,,,,,
1512178342.201602,-0.073606,0.323593,0.171353,-0.732621,0.231792,-0.912264,-0.069723,-0.317975,-0.945532,-0.090372,-0.100741,-0.114893,25.780289,-10.656435,-40.337234,,,,,,,
1512178342.221591,-0.062765,0.310388,0.150534,-0.634767,0.202140,-0.964249,-0.059727,-0.305428,-0.950340,0.008396,0.082558,-0.310967,25.780289,-10.656435,-40.337234,,,,,,,
1512178342.241611,-0.051473,0.305873,0.129348,-0.052968,0.294985,-1.007732,-0.049062,-0.301125,-0.952321,0.055211,0.138741,-0.277781,25.783249,-9.981417,-40.486923,,,,,,,
1512178342.261600,-0.038549,0.313548,0.110413,0.521209,0.437608,-0.846474,-0.036661,-0.308436,-0.950538,0.021066,0.060542,-0.161431,26.460739,-9.455400,-40.267410,,,,,,,
1512178342.281589,-0.022166,0.325779,0.094956,0.589239,0.608330,-0.696711,-0.020998,-0.320047,-0.947169,0.009447,0.070749,-0.094350,26.908676,-9.979738,-39.671478,,,,,,,
1512178342.301607,-0.007061,0.335585,0.081613,0.399013,0.471139,-0.610396,-0.006667,-0.329322,-0.944194,0.006697,0.073829,-0.059148,27.510773,-9.528841,-39.526382,,,,,,,
1512178342.321596,0.003099,0.341016,0.069655,0.209965,0.206858,-0.537299,0.002921,-0.334445,-0.942411,0.019509,0.084780,-0.043765,28.712204,-9.302034,-38.711472,,,,,,,
1512178342.341585,0.007457,0.345503,0.058910,0.279316,-0.043090,-0.488125,0.007017,-0.338670,-0.940879,0.049715,0.121644,-0.010843,28.636230,-9.527147,-38.635941,,,,,,,
1512178342.361605,0.009009,0.354501,0.049324,0.574488,-0.088708,-0.417910,0.008449,-0.347123,-0.937781,0.049535,0.114228,0.079825,28.635849,-9.602144,-38.710968,,,,,,,
1512178342.381594,0.010686,0.369541,0.041535,0.843713,-0.023331,-0.321037,0.009964,-0.361188,-0.932439,0.045166,0.098721,0.181554,28.782883,-10.276934,-38.562561,,,,,,,
1512178342.401613,0.013242,0.387289,0.035613,0.884919,0.031037,-0.230699,0.012261,-0.377679,-0.925855,0.030296,0.079858,0.249494,28.930374,-10.876711,-38.189117,,,,,,,
1512178342.421603,0.014842,0.402661,0.031636,0.677607,-0.021808,-0.139010,0.013654,-0.391868,-0.919920,0.013995,0.065589,0.294676,29.005707,-10.801592,-38.189713,,,,,,,
1512178342.441592,0.014411,0.412076,0.029183,0.339944,-0.093977,-0.094046,0.013204,-0.400513,-0.916196,-0.000173,0.059784,0.307019,29.079437,-11.101473,-38.040497,,,,,,,
1512178342.461612,0.012479,0.414447,0.027472,-0.006039,-0.155459,-0.061961,0.011422,-0.402684,-0.915267,0.000816,0.053242,0.278060,28.854095,-11.176821,-38.038620,,,,,,,
1512178342.481601,0.009283,0.411422,0.026840,-0.216893,-0.174039,-0.011778,0.008509,-0.399913,-0.916513,0.010000,0.039653,0.221414,28.929657,-11.026705,-38.264191,,,,,,,
1512178342.501590,0.005549,0.406052,0.027288,-0.292331,-0.182797,0.037204,0.005098,-0.394986,-0.918673,0.019560,0.023678,0.156679,28.705719,-10.802050,-38.187164,,,,,,,
1512178342.521610,0.000849,0.399907,0.028646,-0.307945,-0.224564,0.076273,0.000782,-0.389333,-0.921096,0.021694,0.015721,0.111084,28.405487,-10.802492,-38.634613,,,,,,,
1512178342.541599,-0.004339,0.394843,0.031076,-0.203350,-0.190336,0.135476,-0.004005,-0.384663,-0.923048,0.015160,-0.008418,0.089689,28.330704,-10.727602,-38.858948,,,,,,,
1512178342.561588,-0.008051,0.392727,0.034648,-0.054785,-0.073766,0.182810,-0.007438,-0.382710,-0.923838,0.003333,-0.030346,0.069987,28.106079,-10.652941,-38.781998,,,,,,,
1512178342.581606,-0.009974,0.392035,0.039098,-0.033984,0.016991,0.218606,-0.009217,-0.382069,-0.924087,-0.008055,-0.046046,0.040054,28.105362,-10.802950,-38.857071,,,,,,,
1512178342.601574,-0.011276,0.390481,0.044164,-0.110071,0.034989,0.244221,-0.010427,-0.380633,-0.924667,-0.009868,-0.054456,-0.000351,28.030365,-10.803057,-38.856430,,,,,,,
1512178342.621594,-0.012821,0.387247,0.049644,-0.179658,0.015623,0.261269,-0.011871,-0.377641,-0.925875,-0.005997,-0.056090,-0.046109,28.104996,-10.877947,-38.932098,,,,,,,
1512178342.641583,-0.014550,0.383538,0.055407,-0.193731,0.031597,0.274979,-0.013492,-0.374204,-0.927248,-0.001492,-0.053347,-0.074385,27.803986,-11.103395,-38.929657,,,,,,,
1512178342.661572,-0.015417,0.380160,0.061349,-0.177704,0.089302,0.275411,-0.014316,-0.371069,-0.928495,-0.002286,-0.058100,-0.110186,27.881042,-10.653276,-38.855087,,,,,,,
1512178342.681591,-0.015225,0.377136,0.066797,-0.150431,0.115049,0.238582,-0.014154,-0.368259,-0.929615,0.021997,-0.060543,-0.145702,27.805664,-10.728395,-38.929474,,,,,,,
1512178342.701580,-0.014722,0.374918,0.071714,-0.096045,0.119411,0.238322,-0.013699,-0.366196,-0.930436,0.037914,-0.096511,-0.146132,27.954926,-10.878176,-39.080826,,,,,,,
1512178342.721569,-0.013873,0.371684,0.077816,-0.231768,0.180977,0.325048,-0.012925,-0.363185,-0.931627,0.044022,-0.113744,-0.116606,28.103683,-11.177950,-38.857239,,,,,,,
1512178342.741589,-0.012141,0.362251,0.086606,-0.635021,0.278343,0.477325,-0.011353,-0.354380,-0.935032,0.061310,-0.091482,-0.136486,27.878906,-11.103273,-39.080292,,,,,,,
1512178342.761578,-0.010199,0.342883,0.098292,-1.142220,0.302972,0.592657,-0.009605,-0.336203,-0.941740,0.114814,0.021491,-0.240984,28.184006,-9.977816,-39.007324,,,,,,,
1512178342.781567,-0.009887,0.318360,0.110248,-1.173479,0.126776,0.540421,-0.009390,-0.313010,-0.949703,0.161597,0.152747,-0.394749,27.959839,-9.753160,-39.380310,,,,,,,
1512178342.801586,-0.013096,0.302749,0.119183,-0.460676,-0.089683,0.360240,-0.012500,-0.298145,-0.954438,0.225696,0.227268,-0.396712,27.885818,-9.528276,-39.454559,,,,,,,
1512178342.821575,-0.017673,0.306742,0.125051,0.610003,-0.138077,0.271109,-0.016848,-0.301955,-0.953173,0.200487,0.137022,-0.184492,27.659760,-9.753618,-39.527756,,,,,,,
1512178342.841595,-0.018470,0.327192,0.133401,1.165003,0.288635,0.445872,-0.017489,-0.321385,-0.946787,0.181353,0.059880,0.052957,27.731873,-10.428499,-39.228714,,,,,,,
1512178342.861584,-0.011918,0.348780,0.145827,0.964880,0.637251,0.639276,-0.011201,-0.341752,-0.939723,0.174698,0.030381,0.166621,27.954132,-11.103167,-38.630936,,,,,,,
1512178342.881573,-0.003914,0.359999,0.161598,0.295068,0.649812,0.788455,-0.003663,-0.352273,-0.935890,0.187730,0.024331,0.157234,28.175644,-11.927843,-38.183228,,,,,,,
1512178342.901592,-0.000966,0.357439,0.179960,-0.349786,0.343109,0.896378,-0.000905,-0.349876,-0.936795,0.216512,0.061439,0.087338,28.323730,-12.377611,-37.959717,,,,,,,
1512178342.921582,-0.005180,0.346104,0.199895,-0.645282,0.015668,0.957053,-0.004873,-0.339235,-0.940689,0.211507,0.090181,0.054367,27.948059,-12.528185,-37.956604,,,,,,,
1512178342.941571,-0.014728,0.333509,0.220585,-0.556488,-0.200039,0.992771,-0.013916,-0.327361,-0.944797,0.184769,0.106566,0.069400,27.647827,-12.528627,-38.404037,,,,,,,
1512178342.961590,-0.025749,0.326350,0.241354,-0.192757,-0.196257,0.979929,-0.024387,-0.320587,-0.946905,0.129719,0.101242,0.148168,27.272720,-12.529192,-38.625854,,,,,,,
1512178342.981579,-0.034216,0.326086,0.261329,0.120673,-0.036505,0.922127,-0.032407,-0.320338,-0.946749,0.079541,0.088007,0.238649,26.821411,-12.829866,-38.547165,,,,,,,
1512178343.001568,-0.038313,0.329866,0.279801,0.257785,0.166859,0.828881,-0.036238,-0.323916,-0.945391,0.044402,0.056247,0.300677,26.444153,-13.355425,-38.319214,,,,,,,
1512178343.021588,-0.038621,0.334149,0.296422,0.216551,0.292993,0.748765,-0.036476,-0.327965,-0.943985,0.030708,0.024147,0.304352,25.917313,-13.731218,-38.614929,,,,,,,
1512178343.041577,-0.038255,0.335752,0.311788,0.027412,0.238305,0.708522,-0.036110,-0.329480,-0.943472,0.023338,-0.007389,0.253271,26.139389,-14.405886,-38.392151,,,,,,,
1512178343.061596,-0.040374,0.332776,0.326215,-0.206607,0.056437,0.669322,-0.038148,-0.326668,-0.944369,0.013139,-0.023918,0.178942,25.684296,-15.531572,-38.463852,,,,,,,
1512178343.081585,-0.046357,0.325539,0.339491,-0.411922,-0.175604,0.631425,-0.043906,-0.319820,-0.946460,-0.000726,-0.036900,0.094730,25.686691,-15.006563,-38.388611,,,,,,,
1512178343.101574,-0.057545,0.314093,0.351915,-0.624055,-0.498496,0.614433,-0.054700,-0.308954,-0.949502,-0.002795,-0.053320,-0.016913,25.240738,-14.107241,-38.384369,,,,,,,
1512178343.121594,-0.076428,0.298248,0.363498,-0.816938,-0.932430,0.588807,-0.072983,-0.293846,-0.953062,-0.047058,-0.036324,-0.084200,24.788300,-14.557909,-39.205750,,,,,,,
1512178343.141583,-0.100534,0.280903,0.372696,-0.792500,-1.101973,0.456381,-0.096431,-0.277223,-0.955954,-0.122655,-0.022291,-0.077478,23.815399,-14.034380,-39.722229,,,,,,,
1512178343.161572,-0.120853,0.268802,0.378185,-0.388912,-0.786876,0.240519,-0.116230,-0.265576,-0.957058,-0.184933,-0.003970,-0.082493,22.390778,-13.886507,-40.310028,,,,,,,
1512178343.181591,-0.128781,0.268736,0.379696,0.248205,-0.096389,-0.026090,-0.123816,-0.265513,-0.956123,-0.205621,-0.004781,-0.083153,21.943390,-13.287188,-40.455933,,,,,,,
1512178343.201580,-0.121530,0.280452,0.377834,0.712710,0.558474,-0.234557,-0.116495,-0.276790,-0.953843,-0.172492,-0.038014,-0.129913,21.942749,-13.437181,-40.380997,,,,,,,
1512178343.221569,-0.105788,0.296475,0.372870,0.765439,0.754328,-0.384493,-0.100984,-0.292151,-0.951026,-0.129027,-0.044611,-0.209772,22.540955,-13.886293,-39.936310,,,,,,,
1512178343.241589,-0.089779,0.311631,0.363916,0.678751,0.572963,-0.566543,-0.085340,-0.306612,-0.948001,-0.081392,-0.044829,-0.269284,23.212173,-14.785280,-39.417465,,,,,,,
1512178343.261578,-0.078635,0.325691,0.351276,0.640131,0.237749,-0.697261,-0.074424,-0.319964,-0.944502,-0.032830,-0.087370,-0.254885,23.886078,-15.084276,-38.898346,,,,,,,
1512178343.281567,-0.072155,0.338565,0.337525,0.551069,0.030330,-0.672623,-0.068000,-0.332134,-0.940777,-0.033334,-0.145924,-0.181156,24.112595,-14.783937,-38.600128,,,,,,,
1512178343.301586,-0.068714,0.347832,0.325973,0.322249,-0.020559,-0.504481,-0.064548,-0.340861,-0.937895,-0.083355,-0.174581,-0.086428,24.786316,-15.082918,-38.455994,,,,,,,
1512178343.321575,-0.063820,0.349042,0.317243,-0.167919,0.180332,-0.378693,-0.059931,-0.341998,-0.937787,-0.129568,-0.100370,-0.048373,25.386429,-15.082018,-38.236099,,,,,,,
1512178343.341595,-0.054731,0.340324,0.307784,-0.588604,0.345420,-0.459903,-0.051566,-0.333792,-0.941235,-0.098305,0.044959,-0.139545,25.087357,-14.857470,-38.383438,,,,,,,
1512178343.361584,-0.043424,0.329836,0.295380,-0.448276,0.343831,-0.630579,-0.041070,-0.323888,-0.945203,-0.017753,0.172811,-0.244265,26.366150,-14.030550,-38.243896,,,,,,,
1512178343.381573,-0.033507,0.328776,0.279721,0.170416,0.176323,-0.790633,-0.031706,-0.322884,-0.945907,0.047148,0.217660,-0.210175,26.365326,-14.180559,-38.543961,,,,,,,
1512178343.401592,-0.026017,0.340260,0.263003,0.732173,0.084255,-0.791341,-0.024523,-0.333732,-0.942349,0.013491,0.155982,-0.025257,27.042664,-13.729540,-37.949509,,,,,,,
1512178343.421582,-0.018942,0.357280,0.247861,0.842502,0.119476,-0.692610,-0.017745,-0.349727,-0.936683,-0.029603,0.115596,0.145256,27.567139,-13.878756,-37.654022,,,,,,,
1512178343.441571,-0.010876,0.371584,0.234185,0.584651,0.183054,-0.633228,-0.010133,-0.363092,-0.931698,-0.079329,0.089868,0.233074,27.714584,-14.478533,-37.355591,,,,,,,
1512178343.461590,-0.002540,0.377742,0.220492,0.126466,0.134317,-0.648564,-0.002361,-0.368822,-0.929497,-0.093648,0.089022,0.228554,28.091309,-14.102968,-37.283600,,,,,,,
1512178343.481579,0.003673,0.375099,0.206411,-0.263845,-0.003014,-0.647235,0.003417,-0.366364,-0.930465,-0.046722,0.092149,0.162658,28.617996,-13.727175,-37.287888,,,,,,,
1512178343.501568,0.006875,0.367680,0.193360,-0.391803,-0.105877,-0.585482,0.006416,-0.359452,-0.933141,-0.007682,0.088593,0.110479,28.468933,-13.502398,-37.436508,,,,,,,
1512178343.521588,0.008274,0.361318,0.182075,-0.237758,-0.143218,-0.490634,0.007740,-0.353508,-0.935399,0.014858,0.071037,0.081914,28.622314,-12.752169,-37.437439,,,,,,,
1512178343.541577,0.008984,0.359798,0.173123,0.025799,-0.094977,-0.373645,0.008409,-0.352085,-0.935930,0.014342,0.050022,0.105074,28.922943,-12.601717,-37.514923,,,,,,,
1512178343.561596,0.010925,0.362562,0.166799,0.184865,0.041753,-0.251467,0.010214,-0.354670,-0.934935,-0.008551,0.018565,0.145354,28.922241,-12.751711,-37.589981,,,,,,,
1512178343.581585,0.014553,0.365817,0.162708,0.127880,0.122660,-0.152865,0.013590,-0.357713,-0.933732,-0.015741,0.002091,0.140886,29.071335,-12.976488,-37.366364,,,,,,,
1512178343.601554,0.016867,0.366223,0.160475,-0.042877,0.037869,-0.081010,0.015748,-0.358091,-0.933553,-0.013047,-0.003786,0.109365,28.923706,-12.451723,-37.364853,,,,,,,
1512178343.621574,0.016595,0.363737,0.159672,-0.160307,-0.066065,-0.011648,0.015508,-0.355770,-0.934445,-0.002279,0.000087,0.075115,28.773392,-12.526949,-37.288605,,,,,,,
1512178343.641563,0.013982,0.360363,0.160332,-0.160253,-0.144159,0.045647,0.013084,-0.352614,-0.935677,0.006493,0.010695,0.043832,29.148880,-12.376375,-37.666718,,,,,,,
1512178343.661552,0.010283,0.358647,0.161601,-0.026303,-0.169635,0.066687,0.009628,-0.351008,-0.936323,0.004288,0.017664,0.031492,28.924866,-12.151720,-37.739716,,,,,,,
1512178343.681571,0.006936,0.360640,0.163336,0.167321,-0.109570,0.094222,0.006490,-0.352873,-0.935648,0.002375,-0.009797,0.043833,28.697906,-12.602053,-37.588013,,,,,,,
1512178343.701560,0.004356,0.365154,0.166165,0.240889,-0.066859,0.160467,0.004069,-0.357093,-0.934060,-0.015925,-0.036111,0.044564,28.772903,-12.601946,-37.588638,,,,,,,
1512178343.721549,0.001500,0.369055,0.170315,0.155836,-0.086313,0.210339,0.001399,-0.360734,-0.932667,-0.029292,-0.037261,0.008809,28.920731,-13.051714,-37.890121,,,,,,,
1512178343.741569,-0.003116,0.370559,0.174982,0.032991,-0.188003,0.219930,-0.002904,-0.362137,-0.932120,-0.026286,-0.016708,-0.035577,28.317780,-13.727617,-37.735336,,,,,,,
1512178343.761558,-0.008960,0.370163,0.179724,-0.044942,-0.202020,0.226215,-0.008353,-0.361768,-0.932230,-0.025857,-0.013126,-0.057699,28.095886,-13.052965,-37.583115,,,,,,,
1512178343.781577,-0.013976,0.369316,0.184870,-0.052710,-0.128367,0.248748,-0.013033,-0.360977,-0.932483,-0.015379,-0.003570,-0.086087,28.020432,-13.128069,-37.807510,,,,,,,
1512178343.801566,-0.017154,0.368877,0.190224,-0.021661,-0.024701,0.245292,-0.015999,-0.360568,-0.932595,-0.008079,0.012439,-0.114371,27.569580,-13.278749,-38.178741,,,,,,,
1512178343.821555,-0.018861,0.369157,0.194892,0.046415,0.008628,0.192028,-0.017589,-0.360829,-0.932466,0.012462,0.023488,-0.127089,27.718933,-13.428514,-38.105103,,,,,,,
1512178343.841575,-0.019701,0.371235,0.198363,0.139885,0.036622,0.148701,-0.018358,-0.362767,-0.931699,0.020723,-0.017131,-0.091266,27.943069,-13.653185,-37.807114,,,,,,,
1512178343.861564,-0.018985,0.373566,0.202075,0.082761,0.158227,0.193074,-0.017674,-0.364938,-0.930864,0.021230,-0.048560,-0.025160,27.719269,-13.428514,-37.430099,,,,,,,
1512178343.881553,-0.014847,0.371725,0.207797,-0.229413,0.423468,0.323795,-0.013832,-0.363223,-0.931599,0.027458,-0.073819,0.019063,27.718491,-13.578524,-37.655167,,,,,,,
1512178343.901572,-0.006432,0.360137,0.216815,-0.790402,0.630607,0.478431,-0.006019,-0.352403,-0.935829,0.083900,0.005998,-0.084923,27.868149,-13.653307,-37.656479,,,,,,,
1512178343.921562,0.001047,0.340137,0.227192,-1.046295,0.447567,0.471954,0.000987,-0.333617,-0.942708,0.143819,0.119994,-0.250697,28.168442,-13.577852,-37.733994,,,,,,,
1512178343.941551,0.001033,0.323233,0.235641,-0.651346,-0.050441,0.352281,0.000980,-0.317634,-0.948213,0.181698,0.187171,-0.302199,28.245773,-13.052736,-37.809387,,,,,,,
1512178343.961570,-0.004767,0.319840,0.241575,0.124150,-0.212496,0.249947,-0.004525,-0.314415,-0.949275,0.143289,0.140770,-0.138952,28.171738,-12.827837,-37.883652,,,,,,,
1512178343.981559,-0.008397,0.329334,0.246759,0.624424,0.015815,0.244134,-0.007945,-0.323413,-0.946224,0.095027,0.058871,0.067974,27.945770,-13.053179,-37.806839,,,,,,,
1512178344.001579,-0.005169,0.341251,0.252643,0.517282,0.380873,0.293955,-0.004871,-0.334666,-0.942324,0.093494,0.011271,0.171664,27.793777,-13.503405,-37.730774,,,,,,,
1512178344.021568,0.001649,0.346134,0.259490,0.058252,0.471954,0.336661,0.001551,-0.339263,-0.940690,0.114095,-0.018525,0.174073,28.016937,-13.953081,-37.357895,,,,,,,
1512178344.041557,0.006870,0.341403,0.267643,-0.386663,0.330115,0.417140,0.006473,-0.334810,-0.942263,0.161221,-0.011244,0.087832,28.091873,-13.952959,-37.508530,,,,,,,
1512178344.061576,0.007188,0.331137,0.277915,-0.556989,0.088235,0.519368,0.006798,-0.325118,-0.945649,0.179283,-0.002946,0.035752,28.165512,-14.252855,-37.509308,,,,,,,
1512178344.081565,0.002520,0.320614,0.290358,-0.491705,-0.089190,0.625239,0.002392,-0.315149,-0.949039,0.167209,0.012949,0.032337,27.791946,-13.953417,-37.355988,,,,,,,
1512178344.101554,-0.004854,0.313028,0.304306,-0.298565,-0.181922,0.674623,-0.004618,-0.307941,-0.951394,0.115900,0.030735,0.068642,27.868454,-13.578295,-37.731445,,,,,,,
1512178344.121574,-0.012828,0.309741,0.318194,-0.081711,-0.177271,0.646861,-0.012217,-0.304812,-0.952334,0.063319,0.033450,0.147067,27.565781,-14.178759,-37.654175,,,,,,,
1512178344.141563,-0.019418,0.309833,0.330906,0.060234,-0.104273,0.576682,-0.018493,-0.304899,-0.952205,0.020491,0.020628,0.217738,26.817062,-13.879869,-37.797653,,,,,,,
1512178344.161552,-0.023962,0.311438,0.342105,0.096644,-0.038918,0.504944,-0.022808,-0.306428,-0.951620,-0.000233,0.002534,0.246695,26.589279,-14.480211,-37.946030,,,,,,,
1512178344.181571,-0.027672,0.312373,0.351931,0.022942,-0.048534,0.448407,-0.026329,-0.307317,-0.951243,-0.007194,-0.012171,0.231028,26.363678,-14.630556,-37.794174,,,,,,,
1512178344.201560,-0.032660,0.311081,0.360482,-0.088968,-0.167129,0.377082,-0.031087,-0.306088,-0.951495,-0.002757,-0.012546,0.188159,26.062637,-14.856005,-37.866730,,,,,,,
1512178344.221549,-0.040036,0.308937,0.367217,-0.083443,-0.327187,0.292384,-0.038130,-0.304046,-0.951894,-0.000612,-0.019837,0.142934,25.913895,-14.556231,-38.015320,,,,,,,
1512178344.241569,-0.049363,0.308470,0.372171,0.042743,-0.409062,0.200115,-0.047014,-0.303601,-0.951638,-0.014281,-0.030002,0.119897,25.461914,-15.006914,-37.936707,,,,,,,
1512178344.261558,-0.057847,0.310620,0.375455,0.147414,-0.345736,0.126160,-0.055048,-0.305649,-0.950551,-0.044699,-0.056488,0.100133,25.236130,-15.157244,-38.159851,,,,,,,
1512178344.281577,-0.063784,0.313890,0.377489,0.168809,-0.214187,0.064033,-0.060626,-0.308761,-0.949205,-0.068753,-0.083802,0.061983,24.710068,-15.383043,-38.230499,,,,,,,
1512178344.301566,-0.067419,0.316210,0.378211,0.074035,-0.151177,-0.004285,-0.064028,-0.310967,-0.948261,-0.092146,-0.080711,-0.003689,24.860672,-15.232805,-38.381699,,,,,,,
1512178344.321555,-0.069437,0.315207,0.376181,-0.150664,-0.135214,-0.147138,-0.065963,-0.310013,-0.948441,-0.089494,-0.062622,-0.097961,24.785110,-15.382921,-38.156128,,,,,,,
1512178344.341575,-0.071006,0.309669,0.370758,-0.361618,-0.177989,-0.285731,-0.067572,-0.304744,-0.950034,-0.065973,-0.052449,-0.206582,24.711685,-15.008028,-38.380325,,,,,,,
1512178344.361564,-0.072996,0.302693,0.362583,-0.349969,-0.263175,-0.414854,-0.069615,-0.298092,-0.951995,-0.035686,-0.035114,-0.313493,24.786957,-14.932924,-38.530930,,,,,,,
1512178344.381553,-0.076461,0.299396,0.351594,-0.095900,-0.366096,-0.570374,-0.072989,-0.294943,-0.952723,-0.023188,-0.051416,-0.319219,24.564957,-14.258257,-38.603699,,,,,,,
1512178344.401572,-0.078998,0.301641,0.338660,0.129244,-0.253451,-0.642412,-0.075353,-0.297088,-0.951872,-0.034403,-0.120301,-0.226854,24.789719,-14.257921,-39.055618,,,,,,,
1512178344.421562,-0.077234,0.304594,0.325721,0.029636,0.002686,-0.601386,-0.073606,-0.299906,-0.951125,-0.044223,-0.178930,-0.160356,25.016373,-13.882570,-39.132355,,,,,,,
1512178344.441551,-0.070115,0.299937,0.314709,-0.501345,0.293201,-0.452422,-0.066930,-0.295460,-0.953008,-0.053981,-0.181072,-0.195049,25.245132,-13.057238,-39.058884,,,,,,,
1512178344.461570,-0.060584,0.282231,0.305360,-1.121061,0.328409,-0.364262,-0.058151,-0.278500,-0.958674,-0.003525,-0.037571,-0.402791,25.545578,-12.906786,-39.511368,,,,,,,
1512178344.481559,-0.055164,0.259145,0.295706,-1.108363,-0.003644,-0.440930,-0.053295,-0.256254,-0.965139,0.066906,0.138304,-0.545375,25.773270,-12.231432,-40.187958,,,,,,,
1512178344.501579,-0.056805,0.246758,0.283327,-0.300373,-0.336353,-0.646793,-0.055055,-0.244262,-0.968145,0.113572,0.224669,-0.439707,26.002548,-11.331102,-39.739471,,,,,,,
1512178344.521568,-0.059320,0.254616,0.267680,0.739909,-0.286334,-0.826634,-0.057374,-0.251873,-0.966058,0.092820,0.157803,-0.159492,25.853561,-11.106310,-39.738083,,,,,,,
1512178344.541557,-0.058110,0.280166,0.252809,1.442554,0.005149,-0.754675,-0.055813,-0.276515,-0.959387,0.059109,0.075054,0.105231,26.377106,-11.480532,-39.292709,,,,,,,
1512178344.561576,-0.050258,0.311853,0.240467,1.549380,0.305219,-0.624156,-0.047814,-0.306823,-0.950565,0.014061,0.035537,0.274005,26.597260,-12.605196,-38.845154,,,,,,,
1512178344.581565,-0.039016,0.339591,0.230107,1.206550,0.435864,-0.515668,-0.036779,-0.333102,-0.942173,-0.023844,0.014468,0.351337,27.044907,-13.204531,-38.174255,,,,,,,
1512178344.601511,-0.026958,0.356339,0.220765,0.569934,0.427270,-0.439633,-0.025261,-0.348846,-0.936839,-0.026618,-0.000000,0.333202,27.645096,-13.203630,-37.804352,,,,,,,
1512178344.621531,-0.017230,0.359330,0.212727,-0.099314,0.275420,-0.331524,-0.016129,-0.351648,-0.935993,0.028565,0.027551,0.221851,27.794571,-13.353411,-37.505707,,,,,,,
1512178344.641521,-0.012605,0.352239,0.207480,-0.463322,0.052385,-0.184062,-0.011831,-0.345000,-0.938528,0.071645,0.050780,0.107061,28.171677,-12.902849,-37.358688,,,,,,,
1512178344.661510,-0.013033,0.343309,0.205560,-0.382884,-0.093079,-0.026693,-0.012272,-0.336605,-0.941566,0.089466,0.092083,0.055884,28.245102,-13.202730,-37.809464,,,,,,,
1512178344.681529,-0.015115,0.340588,0.206722,0.039368,-0.057428,0.098949,-0.014246,-0.334041,-0.942450,0.075831,0.114116,0.071906,28.248428,-12.452730,-37.884109,,,,,,,
1512178344.701518,-0.014629,0.346672,0.209986,0.439135,0.176966,0.174849,-0.013758,-0.339770,-0.940408,0.046000,0.103533,0.140008,28.021744,-12.828066,-37.882370,,,,,,,
1512178344.721538,-0.010091,0.357000,0.214820,0.522218,0.366007,0.252398,-0.009455,-0.349465,-0.936901,0.025370,0.079201,0.168331,28.542969,-13.727282,-37.362259,,,,,,,
1512178344.741527,-0.005141,0.365503,0.221103,0.351856,0.340016,0.304212,-0.004802,-0.357419,-0.933931,0.015071,0.078366,0.168428,28.392441,-13.877520,-37.061050,,,,,,,
1512178344.761516,-0.002209,0.369476,0.227657,0.107663,0.199713,0.301252,-0.002060,-0.361127,-0.932514,0.010086,0.077222,0.155277,28.765854,-14.251955,-36.839401,,,,,,,
1512178344.781535,-0.002646,0.369110,0.233893,-0.075557,0.032823,0.284156,-0.002467,-0.360786,-0.932645,0.019359,0.082359,0.117810,28.316345,-14.177629,-36.535538,,,,,,,
1512178344.801524,-0.005202,0.367307,0.239868,-0.075488,-0.035520,0.277527,-0.004855,-0.359104,-0.933285,0.028720,0.060932,0.109524,28.240143,-14.402742,-36.910004,,,,,,,
1512178344.821513,-0.007857,0.367524,0.245991,0.077801,-0.010751,0.291558,-0.007333,-0.359306,-0.933191,0.026574,0.044532,0.108835,28.238342,-14.777742,-37.135193,,,,,,,
1512178344.841533,-0.009171,0.371351,0.252475,0.256822,0.097388,0.300922,-0.008546,-0.362874,-0.931799,0.001145,0.030446,0.130621,28.238831,-14.702745,-36.835144,,,,,,,
1512178344.861521,-0.007215,0.377440,0.258600,0.306527,0.287668,0.270324,-0.006707,-0.368542,-0.929586,-0.024116,0.006573,0.130438,27.215250,-15.494770,-29.764969,,,,,,,
1512178344.881510,-0.001564,0.382062,0.263767,0.176402,0.414691,0.215577,-0.001451,-0.372835,-0.927896,-0.024413,0.004991,0.044779,27.364801,-15.644550,-29.316315,,,,,,,
1512178344.901530,0.005763,0.383810,0.267743,0.042831,0.441277,0.171091,0.005344,-0.374456,-0.927229,0.015194,0.000417,-0.089357,27.512476,-16.169315,-29.242844,,,,,,,
1512178344.921520,0.011908,0.383984,0.271097,-0.000686,0.317338,0.154041,0.011041,-0.374618,-0.927113,0.049125,0.009429,-0.193324,27.814051,-15.868870,-28.795242,,,,,,,
1512178344.941539,0.015283,0.384854,0.274625,0.085248,0.191384,0.172970,0.014165,-0.375423,-0.926745,0.070400,0.003994,-0.226682,27.663340,-16.019093,-28.869049,,,,,,,
1512178344.961528,0.017206,0.389052,0.278717,0.297908,0.167074,0.204748,0.015919,-0.379311,-0.925132,0.079372,-0.010459,-0.211587,27.888163,-16.093754,-28.570984,,,,,,,
1512178344.981517,0.018425,0.399390,0.283575,0.648876,0.152559,0.254558,0.016974,-0.388856,-0.921142,0.085122,-0.051833,-0.149049,28.110865,-16.618427,-28.423141,,,,,,,
1512178345.001537,0.019938,0.414823,0.291095,0.763161,0.293366,0.442198,0.018246,-0.403028,-0.915005,0.037663,-0.130038,-0.032810,27.883692,-17.143772,-28.046478,,,,,,,
1512178345.021526,0.024238,0.424532,0.304622,0.211562,0.613454,0.743410,0.022084,-0.411895,-0.910963,-0.005132,-0.177491,0.025770,27.955240,-17.968662,-27.522491,,,,,,,
1512178345.041515,0.029669,0.417157,0.323645,-0.764210,0.617009,0.893459,0.027120,-0.405163,-0.913842,0.033716,-0.072514,-0.118568,28.087849,-18.059559,-24.603607,,,,,,,
1512178345.061534,0.029150,0.394063,0.344018,-1.334756,0.187810,0.885835,0.026912,-0.383943,-0.922964,0.111684,0.040575,-0.304819,27.714314,-17.685108,-25.050247,,,,,,,
1512178345.081523,0.019316,0.369771,0.362619,-1.077978,-0.322238,0.804627,0.018009,-0.361402,-0.932236,0.144802,0.102445,-0.368607,27.419895,-16.410557,-25.347107,,,,,,,
1512178345.101511,0.004838,0.357866,0.378702,-0.276958,-0.468238,0.706984,0.004532,-0.350276,-0.936635,0.132736,0.122173,-0.226222,26.893131,-16.711338,-26.167786,,,,,,,
1512178345.121531,-0.007569,0.362688,0.393690,0.481458,-0.214952,0.692203,-0.007076,-0.354789,-0.934919,0.078304,0.062095,-0.005236,26.516438,-17.086903,-26.164764,,,,,,,
1512178345.141521,-0.010105,0.374346,0.407578,0.578076,0.314110,0.612289,-0.009405,-0.365663,-0.930699,0.046652,0.039598,0.140965,25.914188,-17.612812,-25.934906,,,,,,,
1512178345.161510,-0.004252,0.381822,0.419353,0.226182,0.589387,0.502611,-0.003946,-0.372612,-0.927979,0.047754,-0.000359,0.157517,26.061939,-18.137592,-25.711426,,,,,,,
1512178345.181529,0.004061,0.381165,0.429346,-0.167458,0.577129,0.453155,0.003770,-0.372003,-0.928224,0.105102,0.001199,0.095948,26.059101,-18.812595,-25.336746,,,,,,,
1512178345.201518,0.009453,0.376034,0.439768,-0.279413,0.377096,0.509471,0.008793,-0.367234,-0.930087,0.142132,0.006333,0.057345,26.209812,-18.662373,-25.262939,,,,,,,
1512178345.221538,0.009268,0.371643,0.452034,-0.166001,0.118581,0.600828,0.008635,-0.363146,-0.931692,0.138124,0.033236,0.058675,26.211491,-18.287357,-25.262772,,,,,,,
1512178345.241527,0.004652,0.371751,0.465185,0.106667,-0.039105,0.608497,0.004334,-0.363248,-0.931682,0.093337,0.053860,0.127330,25.684467,-18.738163,-25.258514,,,,,,,
1512178345.261516,-0.001189,0.376752,0.477778,0.316159,-0.061151,0.574142,-0.001105,-0.367902,-0.929864,0.053489,0.050672,0.217339,25.383183,-19.038609,-25.106125,,,,,,,
1512178345.281535,-0.006213,0.383944,0.489892,0.375172,-0.002270,0.553881,-0.005761,-0.374581,-0.927176,0.022439,0.040566,0.270575,25.307926,-19.113728,-24.955505,,,,,,,
1512178345.301524,-0.010309,0.391159,0.501753,0.346590,0.027616,0.542909,-0.009531,-0.381260,-0.924418,0.005899,0.022526,0.290843,25.004292,-19.939182,-24.803345,,,,,,,
1512178345.321513,-0.014178,0.396728,0.513278,0.245825,0.015775,0.511559,-0.013077,-0.386402,-0.922237,-0.014282,0.023808,0.262462,25.005451,-19.714176,-24.503235,,,,,,,
1512178345.341533,-0.018354,0.400422,0.523049,0.163284,-0.040762,0.406758,-0.016901,-0.389807,-0.920741,-0.007696,0.021749,0.208385,24.163715,-20.306780,-21.152519,,,,,,,
1512178345.361521,-0.022852,0.403157,0.530983,0.140856,-0.086595,0.343380,-0.021018,-0.392324,-0.919587,0.008582,-0.008998,0.147217,23.863087,-20.457232,-21.075035,,,,,,,
1512178345.381510,-0.028131,0.406275,0.538254,0.185935,-0.145239,0.321439,-0.025838,-0.395190,-0.918235,0.010274,-0.027631,0.064674,23.936802,-20.757113,-20.925804,,,,,,,
1512178345.401530,-0.034118,0.410637,0.544696,0.247677,-0.184547,0.260366,-0.031275,-0.399193,-0.916333,-0.010534,-0.039375,0.010708,23.408802,-21.432909,-20.846657,,,,,,,
1512178345.421520,-0.039588,0.415463,0.549380,0.233056,-0.169451,0.178121,-0.036211,-0.403613,-0.914212,-0.037245,-0.074185,-0.023395,23.261127,-20.908144,-20.920143,,,,,,,
1512178345.441539,-0.043637,0.418596,0.552436,0.108509,-0.123562,0.105051,-0.039856,-0.406478,-0.912790,-0.053314,-0.093171,-0.073874,22.808247,-21.583818,-20.616631,,,,,,,
1512178345.461528,-0.046188,0.418636,0.553697,-0.053314,-0.092685,0.028188,-0.042185,-0.406515,-0.912669,-0.051550,-0.084879,-0.148274,22.883457,-21.508699,-20.842232,,,,,,,
1512178345.481517,-0.048115,0.416496,0.553131,-0.119157,-0.126803,-0.052837,-0.043985,-0.404559,-0.913453,-0.041282,-0.064908,-0.222823,22.432789,-21.659380,-20.838478,,,,,,,
1512178345.501537,-0.050851,0.415132,0.550323,-0.025605,-0.241793,-0.172348,-0.046511,-0.403311,-0.913879,-0.047223,-0.059717,-0.258820,22.885487,-21.058702,-20.842018,,,,,,,
1512178345.521526,-0.053851,0.417633,0.544645,0.199760,-0.250754,-0.327957,-0.049198,-0.405598,-0.912726,-0.064708,-0.081767,-0.199686,22.511463,-20.834261,-20.913734,,,,,,,
1512178345.541515,-0.053379,0.423794,0.536317,0.309045,-0.067753,-0.417420,-0.048633,-0.411222,-0.910236,-0.083462,-0.152835,-0.094433,22.885899,-20.983706,-20.691994,,,,,,,
1512178345.561534,-0.046063,0.427568,0.527803,0.016497,0.383552,-0.367850,-0.041902,-0.414659,-0.909011,-0.080260,-0.190077,-0.025895,23.410648,-21.057909,-20.546486,,,,,,,
1512178345.581523,-0.030900,0.420321,0.521071,-0.603408,0.679347,-0.256402,-0.028206,-0.408053,-0.912522,-0.032997,-0.086469,-0.155700,24.013386,-20.457003,-20.476311,,,,,,,
1512178345.601487,-0.017127,0.404223,0.515283,-0.861457,0.449301,-0.264141,-0.015746,-0.393305,-0.919273,0.036620,0.088419,-0.311059,24.388645,-20.381441,-20.629463,,,,,,,
1512178345.621507,-0.011301,0.390430,0.507426,-0.527835,-0.043402,-0.414535,-0.010451,-0.380586,-0.924686,0.076048,0.221162,-0.303753,24.617512,-19.481096,-21.005959,,,,,,,
1512178345.641496,-0.010237,0.387680,0.496113,0.077103,-0.139359,-0.577739,-0.009477,-0.378042,-0.925740,0.037111,0.195607,-0.100444,24.918522,-19.255648,-21.008400,,,,,,,
1512178345.661515,-0.004462,0.394100,0.483204,0.420941,0.179531,-0.596166,-0.004120,-0.383978,-0.923333,-0.007568,0.131017,0.064232,24.917881,-19.405657,-20.933479,,,,,,,
1512178345.681504,0.008110,0.403298,0.471346,0.449630,0.497728,-0.510425,0.007459,-0.392454,-0.919741,-0.029767,0.073682,0.120302,25.819050,-19.179293,-20.641014,,,,,,,
1512178345.701494,0.022364,0.409571,0.461437,0.208362,0.489714,-0.425465,0.020512,-0.398216,-0.917062,-0.046391,0.073357,0.112191,26.193180,-19.403734,-20.344307,,,,,,,
1512178345.721514,0.033314,0.409003,0.452165,-0.149862,0.278744,-0.434590,0.030560,-0.397694,-0.917008,-0.041699,0.098286,0.087815,27.019321,-19.177492,-20.126213,,,,,,,
1512178345.741503,0.040042,0.403020,0.442963,-0.322889,0.085117,-0.423910,0.036824,-0.392198,-0.919143,-0.017323,0.098542,0.045867,27.247089,-18.577166,-19.977867,,,,,,,
1512178345.761492,0.043436,0.397583,0.434826,-0.182292,-0.021621,-0.357216,0.040036,-0.387191,-0.921129,-0.001050,0.095794,0.033068,27.249409,-18.052156,-20.052620,,,,,,,
1512178345.781510,0.045008,0.397213,0.428489,0.098482,-0.041691,-0.253007,0.041489,-0.386850,-0.921208,-0.005585,0.089243,0.075231,27.624378,-18.051592,-20.130791,,,,,,,
1512178345.801499,0.046767,0.401242,0.423590,0.257650,0.018274,-0.205720,0.043037,-0.390562,-0.919570,-0.044044,0.091749,0.144850,27.848560,-18.276262,-19.757820,,,,,,,
1512178345.821488,0.050320,0.406308,0.418546,0.250633,0.114446,-0.227874,0.046204,-0.395220,-0.917423,-0.061646,0.084597,0.177524,27.774189,-18.126360,-19.832115,,,,,,,
1512178345.841508,0.055470,0.410195,0.413200,0.178245,0.166683,-0.231940,0.050842,-0.398788,-0.915632,-0.050537,0.061355,0.166456,27.923588,-18.276140,-19.683464,,,,,,,
1512178345.861497,0.060458,0.412710,0.408892,0.116295,0.149360,-0.160404,0.055348,-0.401094,-0.914363,-0.045491,0.043992,0.131938,28.225498,-17.900682,-19.235832,,,,,,,
1512178345.881516,0.064045,0.414246,0.405991,0.069636,0.104328,-0.113265,0.058588,-0.402500,-0.913543,-0.043909,0.052067,0.102950,28.748707,-18.274904,-19.465477,,,,,,,
1512178345.901505,0.066439,0.414809,0.403751,0.010584,0.056127,-0.089767,0.060760,-0.403015,-0.913174,-0.043274,0.033371,0.078976,28.599079,-18.200136,-19.389153,,,,,,,
1512178345.921495,0.066976,0.414356,0.402604,-0.025562,-0.024152,-0.035135,0.061262,-0.402600,-0.913323,-0.035627,0.010816,0.057305,28.674870,-18.050020,-19.164726,,,,,,,
1512178345.941514,0.066362,0.414439,0.402251,0.036834,-0.040138,-0.005503,0.060699,-0.402677,-0.913327,-0.038238,0.000180,0.042386,28.523899,-18.275240,-19.088554,,,,,,,
1512178345.961504,0.066283,0.416771,0.402299,0.158883,0.034746,0.030637,0.060565,-0.404810,-0.912392,-0.036395,-0.030874,0.043129,28.674229,-18.200014,-19.089806,,,,,,,
1512178345.981493,0.067156,0.420589,0.403993,0.191522,0.088026,0.122977,0.061258,-0.408298,-0.910791,-0.044824,-0.049298,0.021890,28.749271,-18.199907,-19.015434,,,,,,,
1512178346.001513,0.068524,0.424489,0.406697,0.173251,0.153138,0.135734,0.062394,-0.411855,-0.909110,-0.056184,-0.047862,-0.011864,28.822697,-18.574785,-18.791252,,,,,,,
1512178346.021502,0.070901,0.427147,0.409205,0.080920,0.177608,0.111025,0.064476,-0.414276,-0.907864,-0.037255,-0.049393,-0.079029,28.672398,-18.650011,-18.715004,,,,,,,
1512178346.041491,0.072170,0.427037,0.411916,-0.096318,0.098269,0.124175,0.065631,-0.414176,-0.907827,0.010601,-0.049035,-0.144053,28.372166,-18.725466,-18.487495,,,,,,,
1512178346.061509,0.070985,0.424154,0.415765,-0.192107,-0.000251,0.174681,0.064640,-0.411550,-0.909092,0.043148,-0.027095,-0.198025,28.669575,-19.250017,-18.940285,,,,,,,
1512178346.081498,0.067663,0.421834,0.419103,-0.067264,-0.144112,0.096035,0.061684,-0.409434,-0.910251,0.065513,0.023357,-0.224499,28.373096,-18.500460,-18.637383,,,,,,,
1512178346.101487,0.064288,0.424348,0.419109,0.272632,-0.177542,-0.024955,0.058546,-0.411726,-0.909424,0.073550,-0.010347,-0.178527,28.448032,-18.500353,-18.788017,,,,,,,
1512178346.121507,0.062337,0.434528,0.418168,0.626146,-0.046739,0.007276,0.056508,-0.420982,-0.905306,0.076534,-0.045036,-0.084058,28.220478,-19.100695,-18.486397,,,,,,,
1512178346.141496,0.064281,0.448449,0.418566,0.666271,0.192401,0.106766,0.057885,-0.433568,-0.899259,0.068229,-0.060069,0.013257,28.594883,-19.250139,-18.339653,,,,,,,
1512178346.161515,0.070597,0.458055,0.421643,0.341989,0.485481,0.197967,0.063267,-0.442204,-0.894679,0.078044,-0.067271,0.004024,28.441654,-20.000368,-18.038719,,,,,,,
1512178346.181504,0.078410,0.460053,0.426597,-0.083064,0.462307,0.242898,0.070186,-0.443995,-0.893275,0.128636,-0.009862,-0.062398,28.665943,-20.225023,-17.440742,,,,,,,
1512178346.201494,0.081055,0.454043,0.433283,-0.451989,0.168954,0.298367,0.072763,-0.438602,-0.895730,0.158896,0.018314,-0.104422,28.743763,-19.624910,-17.216103,,,,,,,
1512178346.221514,0.077220,0.443416,0.442101,-0.593226,-0.086728,0.381782,0.069683,-0.429028,-0.900599,0.150257,0.055600,-0.100164,28.442631,-19.850359,-17.438652,,,,,,,
1512178346.241503,0.069696,0.433139,0.452041,-0.494876,-0.188144,0.424428,0.063208,-0.419722,-0.905448,0.128274,0.096175,-0.053795,28.594212,-19.475130,-17.664757,,,,,,,
1512178346.261492,0.062189,0.426544,0.462134,-0.275734,-0.155821,0.454368,0.056580,-0.413727,-0.908641,0.113540,0.100265,0.006556,28.369053,-19.475466,-17.962852,,,,,,,
1512178346.281510,0.057511,0.424156,0.472565,-0.078973,0.038821,0.492011,0.052386,-0.411552,-0.909879,0.084089,0.089057,0.087125,27.992558,-19.776033,-18.259789,,,,,,,
1512178346.301499,0.058752,0.422821,0.482254,-0.099153,0.289929,0.435025,0.053547,-0.410334,-0.910361,0.059399,0.091868,0.127189,27.693195,-19.626482,-18.332176,,,,,,,
1512178346.321488,0.064023,0.418413,0.489840,-0.273863,0.418099,0.303944,0.058460,-0.406311,-0.911862,0.053662,0.098129,0.118955,27.694050,-19.476488,-17.957115,,,,,,,
1512178346.341508,0.072222,0.410651,0.494912,-0.429252,0.520687,0.164529,0.066160,-0.399206,-0.914471,0.072650,0.103842,0.081570,27.768116,-19.701372,-17.807854,,,,,,,
1512178346.361497,0.080740,0.402444,0.497915,-0.363012,0.394892,0.084027,0.074208,-0.391668,-0.917109,0.072413,0.076467,0.021219,28.216312,-20.075701,-18.036842,,,,,,,
1512178346.381516,0.085909,0.398198,0.499263,-0.118195,0.237272,0.034790,0.079090,-0.387758,-0.918361,0.071942,0.053286,0.021785,27.918720,-19.551149,-17.959053,,,,,,,
1512178346.401505,0.087460,0.399163,0.501018,0.145373,0.002474,0.138004,0.080482,-0.388647,-0.917864,0.074151,0.003073,0.058291,27.766956,-19.926378,-18.107964,,,,,,,
1512178346.421495,0.084002,0.403569,0.505812,0.184483,-0.100295,0.283200,0.077162,-0.392703,-0.916422,0.061891,0.032046,0.134089,27.920246,-19.251146,-17.583916,,,,,,,
1512178346.441514,0.077759,0.406176,0.512012,0.083058,-0.247869,0.284412,0.071361,-0.395100,-0.915862,-0.006648,0.016972,0.165450,27.919651,-19.401140,-17.433983,,,,,,,
1512178346.461504,0.071567,0.407770,0.515836,0.108338,-0.215445,0.110056,0.065643,-0.396563,-0.915657,-0.049850,0.014941,0.176399,27.466923,-20.001818,-17.505440,,,,,,,
1512178346.481493,0.071520,0.411024,0.514921,0.209941,0.037205,-0.091210,0.065507,-0.399548,-0.914368,-0.029557,0.026028,0.163025,27.465076,-20.376833,-17.805611,,,,,,,
1512178346.501513,0.072581,0.416597,0.511317,0.333565,-0.053271,-0.157961,0.066315,-0.404651,-0.912063,-0.003525,-0.077817,0.117141,27.917027,-20.001146,-17.284264,,,,,,,
1512178346.521502,0.074885,0.421780,0.507378,0.244976,0.035232,-0.147210,0.068258,-0.409385,-0.909804,0.015970,-0.071221,0.067244,27.841831,-20.076265,-16.983665,,,,,,,
1512178346.541491,0.074412,0.427639,0.503859,0.360865,-0.164359,-0.137695,0.067649,-0.414724,-0.907429,-0.006156,-0.126765,0.008640,27.691578,-20.151491,-16.832420,,,,,,,
1512178346.561509,0.072382,0.435960,0.499961,0.466453,-0.213329,-0.143802,0.065554,-0.422281,-0.904091,0.004773,-0.105475,-0.014748,27.690632,-20.376497,-16.682518,,,,,,,
1512178346.581498,0.069215,0.445467,0.496247,0.459925,-0.231511,-0.136496,0.062410,-0.430880,-0.900248,-0.008974,-0.136885,-0.027929,27.690372,-20.451494,-16.532555,,,,,,,
1512178346.601518,0.067364,0.452243,0.492341,0.231162,-0.148495,-0.158709,0.060546,-0.436984,-0.897428,-0.007979,-0.137311,-0.052691,27.990498,-20.451036,-16.310112,,,,,,,
1512178346.621486,0.066643,0.454206,0.488096,0.014394,-0.143408,-0.202347,0.059842,-0.438749,-0.896614,0.015094,-0.103076,-0.146629,28.289783,-20.600588,-16.387733,,,,,,,
1512178346.641475,0.065753,0.452945,0.483019,-0.101999,-0.149888,-0.255225,0.059080,-0.437615,-0.897219,0.048357,-0.055427,-0.216810,28.218235,-19.850695,-16.236748,,,,,,,
1512178346.661494,0.063310,0.451499,0.476811,0.018175,-0.337591,-0.310635,0.056928,-0.436315,-0.897991,0.040088,-0.067134,-0.250798,27.915607,-20.376146,-16.759438,,,,,,,
1512178346.681483,0.057996,0.455947,0.468775,0.389734,-0.486488,-0.352676,0.052042,-0.440313,-0.896334,0.028051,-0.083353,-0.181150,28.142628,-19.925814,-16.761131,,,,,,,
1512178346.701472,0.052322,0.465645,0.460960,0.528351,-0.440472,-0.287611,0.046730,-0.448999,-0.892309,-0.015678,-0.118902,-0.085902,28.067142,-20.075930,-16.385582,,,,,,,
1512178346.721492,0.047715,0.473614,0.455463,0.292442,-0.270101,-0.195556,0.042447,-0.456106,-0.888912,-0.058255,-0.099360,-0.006001,27.689671,-20.601488,-16.607628,,,,,,,
1512178346.741481,0.047896,0.473320,0.450578,-0.190339,-0.020763,-0.257120,0.042614,-0.455844,-0.889038,-0.071712,0.002444,-0.033462,27.767170,-20.076372,-16.308037,,,,,,,
1512178346.761470,0.052816,0.464738,0.442015,-0.492119,0.082882,-0.505259,0.047193,-0.448188,-0.892692,-0.024640,0.108818,-0.128930,28.144398,-19.550814,-16.610970,,,,,,,
1512178346.781489,0.060754,0.455753,0.428639,-0.306117,0.111256,-0.663438,0.054519,-0.440139,-0.896272,0.046250,0.144393,-0.173247,28.597355,-18.875124,-16.764473,,,,,,,
1512178346.801478,0.069748,0.453289,0.414640,0.069934,0.105261,-0.583388,0.062653,-0.437924,-0.896825,0.043151,0.127149,-0.119044,29.275730,-18.124117,-16.769875,,,,,,,
1512178346.821498,0.075749,0.457918,0.403719,0.323824,0.073240,-0.401791,0.067880,-0.442082,-0.894402,0.034018,0.097126,-0.024162,29.272877,-18.799120,-16.395195,,,,,,,
1512178346.841487,0.079995,0.463295,0.396870,0.246413,0.051429,-0.233483,0.071486,-0.446899,-0.891723,0.005403,0.102416,0.061660,29.574223,-18.498659,-16.397606,,,,,,,
1512178346.861476,0.083418,0.463767,0.392257,-0.017475,0.059505,-0.197832,0.074520,-0.447320,-0.891263,-0.017498,0.111551,0.083798,29.574299,-18.498659,-16.247612,,,,,,,
1512178346.881495,0.086605,0.459292,0.387734,-0.215476,0.050690,-0.215657,0.077533,-0.443313,-0.893006,0.016568,0.125686,0.067887,29.501301,-18.048769,-16.321754,,,,,,,
1512178346.901484,0.088622,0.454596,0.383713,-0.144764,-0.047555,-0.177664,0.079517,-0.439099,-0.894912,0.035992,0.129864,0.040679,29.875660,-18.198214,-16.250023,,,,,,,
1512178346.921474,0.085790,0.453396,0.380388,0.030055,-0.309100,-0.124870,0.077027,-0.438021,-0.895658,0.030547,0.104265,0.081937,30.028065,-17.672976,-16.176048,,,,,,,
1512178346.941493,0.078211,0.454715,0.378630,0.088285,-0.440564,-0.042398,0.070192,-0.439206,-0.895639,0.004164,0.071225,0.182901,29.502567,-17.748766,-16.471626,,,,,,,
1512178346.961482,0.070008,0.455983,0.378321,0.032193,-0.367032,0.000752,0.062803,-0.440345,-0.895629,-0.031263,0.058708,0.257460,29.503773,-17.448778,-16.771461,,,,,,,
1512178346.981471,0.064019,0.454942,0.378571,-0.112674,-0.250812,0.000127,0.057468,-0.439410,-0.896446,-0.032444,0.073123,0.268913,29.278095,-17.599108,-16.769630,,,,,,,
1512178347.001491,0.062363,0.451575,0.378019,-0.183191,-0.016899,-0.043791,0.056076,-0.436383,-0.898011,-0.049286,0.049954,0.220719,28.903873,-17.374666,-17.216347,,,,,,,
1512178347.021480,0.063911,0.447089,0.376565,-0.239695,0.062183,-0.104032,0.057590,-0.432342,-0.899868,-0.051273,0.055603,0.157787,29.203236,-17.524218,-17.143959,,,,,,,
1512178347.041469,0.067041,0.441369,0.373801,-0.304792,0.118808,-0.162347,0.060571,-0.427178,-0.902136,-0.026284,0.059655,0.100347,29.277836,-17.599108,-17.294624,,,,,,,
1512178347.061488,0.070979,0.435045,0.370415,-0.288532,0.126344,-0.178076,0.064313,-0.421451,-0.904567,-0.000715,0.031421,0.037212,29.051777,-17.824450,-17.367821,,,,,,,
1512178347.081477,0.074801,0.430631,0.367150,-0.147333,0.119012,-0.143008,0.067908,-0.417444,-0.906161,0.012262,-0.010549,0.009295,29.731770,-16.698427,-17.523033,,,,,,,
1512178347.101497,0.077162,0.429635,0.365817,0.019908,0.059185,-0.008601,0.070080,-0.416539,-0.906412,0.037159,-0.047023,-0.006140,29.958195,-16.398088,-17.374809,,,,,,,
1512178347.121486,0.076896,0.431619,0.368119,0.118022,0.030116,0.181411,0.069775,-0.418342,-0.905605,0.025028,-0.077202,-0.004765,29.732563,-16.548418,-17.297966,,,,,,,
1512178347.141475,0.074988,0.434449,0.373482,0.116387,0.010691,0.279396,0.067958,-0.420911,-0.904552,0.002431,-0.070514,-0.003514,29.581242,-16.848650,-17.221840,,,,,,,
1512178347.161494,0.072903,0.436491,0.379723,0.050099,0.045818,0.293485,0.066009,-0.422763,-0.903832,-0.010696,-0.067930,-0.007148,29.277531,-17.674105,-17.219658,,,,,,,
1512178347.181483,0.071983,0.436617,0.386592,-0.077425,0.096815,0.336591,0.065174,-0.422876,-0.903840,-0.001255,-0.075034,-0.043548,29.281086,-16.924105,-16.844322,,,,,,,
1512178347.201472,0.070515,0.434644,0.394890,-0.178623,0.079446,0.394760,0.063905,-0.421087,-0.904765,0.013777,-0.061792,-0.097188,29.431019,-16.923876,-16.995598,,,,,,,
1512178347.221492,0.066849,0.431432,0.404571,-0.206004,-0.021081,0.434526,0.060679,-0.418172,-0.906338,0.001837,-0.060450,-0.139942,28.903614,-17.449678,-17.066368,,,,,,,
1512178347.241481,0.061705,0.428088,0.413884,-0.193575,-0.063702,0.389783,0.056101,-0.415132,-0.908029,-0.016352,-0.064055,-0.116446,29.052952,-17.599443,-17.067711,,,,,,,
1512178347.261470,0.057936,0.423007,0.422360,-0.358494,0.035414,0.374944,0.052800,-0.410505,-0.910328,0.002849,-0.084597,-0.085171,28.603992,-17.375124,-16.988792,,,,,,,
1512178347.281489,0.057538,0.411576,0.432250,-0.761317,0.276077,0.442437,0.052704,-0.400055,-0.914974,0.065735,-0.045349,-0.123539,28.604481,-17.225115,-17.363716,,,,,,,
1512178347.301478,0.060474,0.391876,0.443052,-1.124382,0.374917,0.420468,0.055856,-0.381923,-0.922504,0.145560,0.064189,-0.286221,28.230076,-17.075686,-17.510460,,,,,,,
1512178347.321498,0.062562,0.370173,0.452246,-1.054384,0.193655,0.303582,0.058287,-0.361777,-0.930440,0.180345,0.109671,-0.355052,28.383045,-16.325457,-18.336388,,,,,,,
1512178347.341487,0.058538,0.356159,0.457901,-0.428110,-0.287979,0.185186,0.054833,-0.348677,-0.935637,0.195106,0.165739,-0.295747,28.383045,-16.325457,-18.336388,,,,,,,
1512178347.361476,0.048342,0.359386,0.461900,0.465649,-0.452241,0.217821,0.045236,-0.351700,-0.935019,0.165152,0.095489,-0.099573,27.932362,-16.476122,-18.332634,,,,,,,
1512178347.381495,0.040217,0.374147,0.467096,0.798994,-0.192358,0.314166,0.037424,-0.365479,-0.930067,0.147115,0.055283,0.087888,27.932560,-16.401125,-18.632591,,,,,,,
1512178347.401484,0.037743,0.387840,0.474841,0.533133,0.121078,0.419076,0.034932,-0.378190,-0.925068,0.149379,0.033372,0.163197,27.404850,-17.076921,-17.953453,,,,,,,
1512178347.421474,0.037653,0.391441,0.484633,-0.087273,0.190501,0.484953,0.034797,-0.381521,-0.923704,0.177010,0.033346,0.149367,27.328281,-17.452028,-17.727989,,,,,,,
1512178347.441493,0.036044,0.382400,0.496274,-0.667170,0.097638,0.543392,0.033434,-0.373148,-0.927169,0.208876,0.055719,0.069808,26.801807,-17.752825,-17.948662,,,,,,,
1512178347.461482,0.031091,0.366831,0.509718,-0.814896,-0.072617,0.636604,0.029018,-0.358659,-0.933017,0.226384,0.071459,0.000171,26.202488,-17.603716,-17.943489,,,,,,,
1512178347.481471,0.022067,0.353860,0.524995,-0.542609,-0.240096,0.730580,0.020698,-0.346521,-0.937813,0.199288,0.080713,0.023919,26.353016,-17.453493,-18.244698,,,,,,,
1512178347.501491,0.011366,0.348435,0.541062,-0.137915,-0.281180,0.753358,0.010683,-0.341427,-0.939847,0.127699,0.073117,0.117688,25.673145,-18.429522,-19.214409,,,,,,,
1512178347.521480,0.002223,0.349763,0.555957,0.155787,-0.141685,0.663221,0.002088,-0.342675,-0.939451,0.073702,0.064751,0.224928,25.001179,-17.830523,-18.533394,,,,,,,
1512178347.541499,-0.002738,0.354124,0.569064,0.231779,0.052986,0.589307,-0.002568,-0.346769,-0.937947,0.058324,0.039945,0.259098,24.623432,-18.431093,-18.605476,,,,,,,
1512178347.561488,-0.004348,0.358765,0.580743,0.225516,0.134300,0.521275,-0.004071,-0.351118,-0.936322,0.048810,0.024336,0.230237,24.473469,-18.431307,-18.529213,,,,,,,
1512178347.581477,-0.006570,0.361945,0.590842,0.116973,0.011450,0.438251,-0.006144,-0.354094,-0.935189,0.057627,0.021330,0.186822,24.247242,-18.731661,-18.302437,,,,,,,
1512178347.601497,-0.010788,0.362969,0.599509,0.023838,-0.081541,0.391801,-0.010085,-0.355052,-0.934792,0.052825,-0.004262,0.169441,24.095951,-19.031878,-18.151299,,,,,,,
1512178347.621485,-0.015258,0.363248,0.607508,0.033948,-0.073979,0.362129,-0.014262,-0.355312,-0.934638,0.044444,-0.022221,0.130836,23.571171,-18.957674,-18.371803,,,,,,,
1512178347.641474,-0.019253,0.365519,0.614466,0.188611,-0.088564,0.290757,-0.017980,-0.357434,-0.933765,0.030644,-0.024616,0.080966,23.494862,-19.257784,-18.296303,,,,,,,
1512178347.661493,-0.023632,0.371338,0.619780,0.350763,-0.131966,0.217266,-0.022019,-0.362862,-0.931582,0.017625,-0.063087,0.065539,23.569904,-19.257677,-18.221947,,,,,,,
1512178347.681482,-0.026950,0.378878,0.623947,0.385992,-0.060210,0.154066,-0.025036,-0.369878,-0.928742,-0.012379,-0.085811,0.039476,23.644306,-19.407564,-18.072655,,,,,,,
1512178347.701471,-0.028095,0.386055,0.626025,0.343060,-0.002387,0.043836,-0.026024,-0.376536,-0.926036,-0.028389,-0.110234,-0.028814,23.417500,-19.857897,-17.620949,,,,,,,
1512178347.721491,-0.028316,0.392074,0.626224,0.261834,-0.020562,-0.008572,-0.026164,-0.382105,-0.923748,-0.001958,-0.148397,-0.090916,23.417164,-19.932894,-17.620979,,,,,,,
1512178347.741480,-0.028725,0.395888,0.626132,0.131841,-0.026092,-0.012606,-0.026500,-0.385628,-0.922273,-0.000936,-0.127678,-0.137160,23.192280,-19.933229,-17.394066,,,,,,,
1512178347.761499,-0.028999,0.397765,0.625185,0.062428,-0.047448,-0.071254,-0.026731,-0.387359,-0.921541,0.002302,-0.099884,-0.207228,23.641605,-20.082567,-17.397957,,,,,,,
1512178347.781488,-0.029621,0.399636,0.622265,0.128271,-0.118686,-0.188881,-0.027283,-0.389083,-0.920798,-0.005798,-0.079560,-0.232919,23.566257,-20.157671,-17.397362,,,,,,,
1512178347.801477,-0.030007,0.404000,0.616395,0.250929,-0.123579,-0.322512,-0.027588,-0.393099,-0.919082,-0.015671,-0.083479,-0.191209,23.565586,-20.307680,-17.397423,,,,,,,
1512178347.821497,-0.027786,0.409520,0.608421,0.244743,0.025031,-0.392444,-0.025485,-0.398169,-0.916957,-0.034390,-0.122736,-0.141301,23.715061,-20.457460,-17.098778,,,,,,,
1512178347.841486,-0.019676,0.411485,0.599768,-0.041761,0.383505,-0.391084,-0.018033,-0.399971,-0.916350,-0.017978,-0.123802,-0.155901,23.824883,-18.113997,-10.523766,,,,,,,
1512178347.861475,-0.004762,0.405782,0.592141,-0.423289,0.667996,-0.318862,-0.004375,-0.394737,-0.918783,0.043575,-0.042305,-0.261271,24.426537,-17.738096,-10.603706,,,,,,,
1512178347.881494,0.010593,0.396060,0.585718,-0.466453,0.589897,-0.290975,0.009773,-0.385787,-0.922536,0.086266,0.095366,-0.314372,24.726311,-17.812635,-10.381279,,,,,,,
1512178347.901483,0.022218,0.391013,0.578813,-0.072145,0.368447,-0.358525,0.020539,-0.381125,-0.924295,0.090804,0.211798,-0.234992,25.401726,-17.736631,-10.236992,,,,,,,
1512178347.921473,0.030960,0.396471,0.569324,0.488135,0.202877,-0.468252,0.028554,-0.386166,-0.921987,0.066570,0.223003,-0.086772,25.479240,-17.211515,-9.937386,,,,,,,
1512178347.941492,0.037789,0.409995,0.558466,0.774776,0.078332,-0.466665,0.034649,-0.398605,-0.916467,0.034183,0.167892,0.066476,25.779732,-17.136061,-9.639900,,,,,,,
1512178347.961481,0.041874,0.424990,0.548575,0.715834,-0.027660,-0.387931,0.038138,-0.412312,-0.910244,-0.029120,0.105747,0.211666,26.152519,-17.660505,-9.343330,,,,,,,
1512178347.981470,0.045219,0.434598,0.540488,0.346114,0.032546,-0.333383,0.041001,-0.421046,-0.906111,-0.095322,0.070521,0.287322,26.078346,-17.510618,-9.042625,,,,,,,
1512178348.001490,0.051080,0.436182,0.532876,-0.046864,0.198617,-0.349158,0.046277,-0.422482,-0.905188,-0.119885,0.050992,0.273398,26.453087,-17.585051,-8.895851,,,,,,,
1512178348.021479,0.060410,0.431177,0.525572,-0.323153,0.372276,-0.329101,0.054847,-0.417940,-0.906817,-0.076347,0.044832,0.167956,26.905479,-17.059370,-8.824425,,,,,,,
1512178348.041498,0.070946,0.422986,0.520301,-0.410192,0.411448,-0.221491,0.064639,-0.410485,-0.909573,-0.022082,0.067819,0.029293,26.832283,-16.684492,-8.598625,,,,,,,
1512178348.061487,0.078211,0.415480,0.517518,-0.321409,0.231929,-0.118484,0.071484,-0.403629,-0.912125,0.002017,0.095859,-0.048232,27.280739,-16.983824,-8.977577,,,,,,,
1512178348.081476,0.080810,0.411593,0.516436,-0.101242,0.045157,-0.032794,0.073981,-0.400069,-0.913493,-0.002158,0.088592,-0.032292,27.508186,-16.458479,-8.829247,,,,,,,
1512178348.101496,0.080744,0.412090,0.517099,0.052881,0.052689,0.060081,0.073904,-0.400525,-0.913300,-0.033193,0.062878,0.073182,27.807625,-16.608030,-8.606880,,,,,,,
1512178348.121485,0.083308,0.412397,0.518877,-0.015637,0.161495,0.082920,0.076235,-0.400807,-0.912985,-0.057940,0.036015,0.089514,27.505898,-16.983473,-8.679497,,,,,,,
1512178348.141474,0.085601,0.410539,0.520674,-0.145471,0.137825,0.068164,0.078393,-0.399103,-0.913548,-0.068230,0.040873,0.095082,27.656487,-16.833250,-8.830696,,,,,,,
1512178348.161493,0.087278,0.407116,0.522053,-0.178002,0.094044,0.034492,0.080043,-0.395963,-0.914771,-0.060725,0.029508,0.072318,27.430107,-17.133589,-8.903923,,,,,,,
1512178348.181482,0.087921,0.404444,0.522758,-0.096689,0.015165,0.013008,0.080724,-0.393508,-0.915770,-0.042653,0.027846,0.058272,27.732918,-16.533140,-8.681190,,,,,,,
1512178348.201471,0.087009,0.404046,0.523239,0.020184,-0.068009,0.033605,0.079902,-0.393141,-0.915999,-0.032401,-0.001085,0.064696,27.507576,-16.608473,-8.679314,,,,,,,
1512178348.221491,0.084442,0.405428,0.524414,0.084562,-0.119257,0.070605,0.077505,-0.394412,-0.915659,-0.064306,-0.018185,0.076944,27.131493,-16.834044,-8.826241,,,,,,,
1512178348.241480,0.082318,0.407781,0.524939,0.130603,-0.086997,-0.005375,0.075483,-0.396573,-0.914894,-0.078077,-0.018023,0.090050,27.507622,-16.608473,-8.604317,,,,,,,
1512178348.261499,0.081551,0.409848,0.523407,0.073340,-0.033524,-0.087044,0.074714,-0.398470,-0.914133,-0.075508,-0.052031,0.099985,27.507622,-16.608473,-8.604317,,,,,,,
1512178348.281488,0.082983,0.409881,0.521211,-0.011673,0.040085,-0.098675,0.076022,-0.398500,-0.914012,-0.063418,-0.106032,0.054209,27.581490,-16.833372,-8.830070,,,,,,,
1512178348.301477,0.083490,0.409350,0.519909,-0.036258,-0.013496,-0.033124,0.076503,-0.398013,-0.914184,-0.041728,-0.126157,0.008422,27.731499,-16.833143,-8.831337,,,,,,,
1512178348.321497,0.082677,0.409017,0.521007,-0.023181,0.002327,0.080125,0.075771,-0.397707,-0.914378,-0.025417,-0.129743,-0.037176,27.658073,-16.458250,-9.055519,,,,,,,
1512178348.341486,0.080758,0.410300,0.524424,0.030486,0.009673,0.187533,0.073975,-0.398885,-0.914012,-0.008240,-0.128459,-0.070653,27.733742,-16.308134,-9.056099,,,,,,,
1512178348.361475,0.078753,0.412235,0.529963,0.004643,0.053271,0.270465,0.072082,-0.400658,-0.913387,0.001863,-0.111716,-0.098652,27.583855,-16.308363,-8.829826,,,,,,,
1512178348.381494,0.078099,0.412260,0.536454,-0.086298,0.148148,0.293994,0.071483,-0.400681,-0.913424,0.017262,-0.075287,-0.110990,27.581825,-16.758360,-8.830025,,,,,,,
1512178348.401483,0.079410,0.411224,0.542788,-0.058162,0.210194,0.272232,0.072713,-0.399732,-0.913743,0.044825,-0.043658,-0.145980,27.281487,-16.833815,-8.827507,,,,,,,
1512178348.421473,0.082019,0.411888,0.548058,0.063024,0.232894,0.229291,0.075075,-0.400340,-0.913285,0.075819,-0.009404,-0.129546,27.581947,-16.758360,-8.605034,,,,,,,
1512178348.441492,0.082069,0.417526,0.552950,0.382101,0.038897,0.264153,0.074934,-0.405500,-0.911018,0.062837,-0.073931,-0.084130,27.355598,-17.058699,-8.603264,,,,,,,
1512178348.461481,0.081348,0.426060,0.559631,0.344708,0.163544,0.404766,0.073994,-0.413287,-0.907589,0.055828,-0.103239,0.002865,27.430031,-17.208586,-8.378960,,,,,,,
1512178348.481501,0.083116,0.427798,0.570863,-0.194100,0.437980,0.574880,0.075539,-0.414868,-0.906740,0.071434,-0.112201,0.028810,26.979881,-17.284269,-8.000175,,,,,,,
1512178348.501490,0.087769,0.415546,0.586381,-0.937828,0.569081,0.688226,0.080196,-0.403689,-0.911374,0.131153,-0.027845,-0.082782,26.976768,-17.959272,-8.150490,,,,,,,
1512178348.521479,0.090046,0.393585,0.604555,-1.219639,0.355929,0.765490,0.083048,-0.383502,-0.919798,0.181692,0.073688,-0.222887,27.127785,-17.734053,-8.151665,,,,,,,
1512178348.541498,0.086340,0.372379,0.623238,-1.043808,0.033626,0.754125,0.080322,-0.363832,-0.927994,0.176040,0.166750,-0.213195,26.605934,-16.984831,-8.596840,,,,,,,
1512178348.561487,0.075434,0.359193,0.640093,-0.492482,-0.368185,0.723400,0.070553,-0.351518,-0.933518,0.117878,0.172121,-0.086944,25.706825,-16.686171,-9.489067,,,,,,,
1512178348.581476,0.064694,0.356874,0.655160,-0.018142,-0.156923,0.672375,0.060575,-0.349347,-0.935033,0.068072,0.132321,0.094289,25.031044,-16.837187,-9.708397,,,,,,,
1512178348.601496,0.062160,0.358859,0.668667,0.058830,0.280195,0.615309,0.058162,-0.351207,-0.934489,0.067524,0.107035,0.207652,24.579231,-17.212858,-9.929741,,,,,,,
1512178348.621450,0.067945,0.358851,0.681194,-0.116014,0.615439,0.568103,0.063568,-0.351199,-0.934140,0.087784,0.080172,0.219846,25.027473,-17.662199,-9.408775,,,,,,,
1512178348.641439,0.077216,0.354396,0.693477,-0.346145,0.673851,0.562841,0.072345,-0.347024,-0.935061,0.109112,0.043756,0.150317,25.254356,-17.286848,-9.035515,,,,,,,
1512178348.661458,0.083310,0.347240,0.706615,-0.417388,0.415154,0.603550,0.078247,-0.340304,-0.937054,0.122833,0.048708,0.081280,24.802925,-17.587538,-9.181831,,,,,,,
1512178348.681447,0.082409,0.341148,0.720432,-0.305065,0.052095,0.627369,0.077572,-0.334569,-0.939173,0.108509,0.072270,0.074427,24.428001,-17.588087,-9.028633,,,,,,,
1512178348.701436,0.075571,0.338318,0.733907,-0.124947,-0.196506,0.617384,0.071219,-0.331901,-0.940622,0.054528,0.051581,0.131646,24.501762,-17.812986,-9.479378,,,,,,,
1512178348.721456,0.066754,0.337766,0.746787,-0.054192,-0.223048,0.592734,0.062935,-0.331380,-0.941396,0.002845,0.018178,0.182332,23.827583,-17.664000,-9.173576,,,,,,,
1512178348.741445,0.059011,0.337147,0.758910,-0.083360,-0.155725,0.554166,0.055657,-0.330796,-0.942059,-0.032143,-0.011291,0.205899,23.601768,-17.814329,-9.471733,,,,,,,
1512178348.761464,0.053263,0.335167,0.770104,-0.158034,-0.074540,0.496867,0.050275,-0.328927,-0.943016,-0.046827,-0.018714,0.180961,23.151421,-17.890013,-9.467949,,,,,,,
1512178348.781453,0.049148,0.331868,0.779558,-0.191587,-0.042356,0.399480,0.046447,-0.325810,-0.944293,-0.038742,-0.008297,0.141895,22.774315,-18.340574,-9.614952,,,,,,,
1512178348.801442,0.046041,0.329011,0.786666,-0.131093,-0.039907,0.286295,0.043556,-0.323107,-0.945359,-0.025734,-0.014311,0.104142,22.472176,-18.791029,-9.837624,,,,,,,
