timestamp(unix),attitude_roll(radians),attitude_pitch(radians),attitude_yaw(radians),rotation_rate_x(radians/s),rotation_rate_y(radians/s),rotation_rate_z(radians/s),gravity_x(G),gravity_y(G),gravity_z(G),user_acc_x(G),user_acc_y(G),user_acc_z(G),magnetic_field_x(microteslas),magnetic_field_y(microteslas),magnetic_field_z(microteslas),latitude(degree),longitude(degree),altitude(meter),speed(m/s),course(degree),timestamp(unix),User Mark
1512178752.706804,-0.048808,0.419263,2.717340,0.277491,0.437077,1.129927,-0.044563,-0.407087,-0.912302,0.153968,0.038511,-0.112860,-21.732193,-28.429085,-38.181419,,,,,,,
1512178752.726793,-0.051010,0.425223,2.742982,0.386655,0.435026,1.167744,-0.046447,-0.412524,-0.909762,0.136154,0.034457,-0.039243,-21.958328,-28.654411,-38.404610,,,,,,,
1512178752.746782,-0.051315,0.431625,2.768981,0.366498,0.597360,1.170150,-0.046588,-0.418348,-0.907091,0.110843,0.023481,0.028536,-22.031967,-28.354530,-38.403831,,,,,,,
1512178752.766802,-0.047232,0.436753,2.795678,0.277468,0.867389,1.216707,-0.042783,-0.423000,-0.905119,0.084805,0.014385,0.046171,-21.881485,-28.279305,-38.105080,,,,,,,
1512178752.786791,-0.039685,0.439766,2.822637,0.153857,0.966538,1.218460,-0.035900,-0.425728,-0.904139,0.078396,0.044090,-0.002020,-21.805283,-27.979179,-38.405571,,,,,,,
1512178752.806780,-0.033552,0.440359,2.849699,0.030854,0.815697,1.235340,-0.030345,-0.426264,-0.904090,0.077312,0.069422,-0.055795,-21.500824,-27.003731,-38.257668,,,,,,,
1512178752.826799,-0.031734,0.439451,2.876617,-0.006170,0.584971,1.207352,-0.028714,-0.425443,-0.904530,0.058056,0.108640,-0.068233,-21.724243,-26.629066,-38.480598,,,,,,,
1512178752.846788,-0.033064,0.439634,2.902556,0.089342,0.450606,1.161358,-0.029914,-0.425608,-0.904413,0.016914,0.116999,-0.040762,-21.496689,-26.028725,-38.782219,,,,,,,
1512178752.866777,-0.034334,0.441981,2.927334,0.188407,0.509629,1.105436,-0.031029,-0.427731,-0.903373,-0.022056,0.097424,0.029625,-21.719894,-25.654060,-38.555138,,,,,,,
1512178752.886797,-0.032025,0.445779,2.952048,0.247904,0.736130,1.128406,-0.028891,-0.431161,-0.901812,-0.057978,0.060693,0.070834,-21.644928,-25.653938,-38.630775,,,,,,,
1512178752.906742,-0.025931,0.450054,2.977456,0.230546,0.921914,1.155451,-0.023346,-0.435014,-0.900121,-0.069092,0.044526,0.067067,-21.794403,-25.504173,-38.929436,,,,,,,
1512178752.926731,-0.018217,0.452492,3.003637,0.089133,0.972886,1.200488,-0.016383,-0.437208,-0.899211,-0.065999,0.026335,0.031215,-21.267044,-24.978386,-38.933662,,,,,,,
1512178752.946720,-0.011571,0.452027,3.030903,-0.061158,0.894560,1.259869,-0.010409,-0.436790,-0.899503,-0.050459,0.031913,-0.019534,-21.117569,-25.053154,-39.309959,,,,,,,
1512178752.966739,-0.008079,0.448799,3.060010,-0.204692,0.764892,1.359681,-0.007279,-0.433883,-0.900940,-0.037582,0.042083,-0.061661,-21.411682,-23.778603,-39.006813,,,,,,,
1512178752.986728,-0.007607,0.442972,3.091249,-0.319277,0.667327,1.450426,-0.006873,-0.428626,-0.903456,-0.040170,0.057655,-0.092516,-20.882141,-22.727806,-39.385796,,,,,,,
1512178753.006717,-0.009233,0.435850,3.123935,-0.348068,0.595596,1.512659,-0.008369,-0.422181,-0.906473,-0.043129,0.085679,-0.117285,-21.254257,-22.053368,-39.682289,,,,,,,
1512178753.026737,-0.011847,0.429127,-3.125893,-0.288625,0.556136,1.526176,-0.010773,-0.416077,-0.909265,-0.048355,0.119874,-0.127951,-21.474411,-21.003685,-39.454903,,,,,,,
1512178753.046726,-0.015155,0.424853,-3.092991,-0.126127,0.494489,1.495267,-0.013807,-0.412187,-0.910995,-0.059648,0.140351,-0.114976,-21.924911,-21.079369,-39.751106,,,,,,,
1512178753.066715,-0.018996,0.424304,-3.061439,0.064886,0.452206,1.416866,-0.017310,-0.411687,-0.911161,-0.074364,0.137242,-0.055422,-21.998627,-20.779472,-39.900337,,,,,,,
1512178753.086735,-0.021822,0.426452,-3.031674,0.161197,0.509137,1.333176,-0.019866,-0.413643,-0.910222,-0.087281,0.104775,0.032003,-22.065796,-19.054573,-39.748894,,,,,,,
1512178753.106724,-0.022038,0.429103,-3.003264,0.152467,0.632057,1.286570,-0.020039,-0.416056,-0.909118,-0.084102,0.067987,0.090316,-21.991577,-19.204475,-39.974602,,,,,,,
1512178753.126713,-0.019932,0.430795,-2.975187,0.080994,0.729140,1.294402,-0.018110,-0.417593,-0.908454,-0.070101,0.037054,0.101065,-22.139862,-18.829689,-39.898155,,,,,,,
1512178753.146732,-0.016775,0.430625,-2.946643,-0.030161,0.766317,1.313174,-0.015243,-0.417439,-0.908577,-0.057328,0.034764,0.082924,-22.136856,-18.154686,-39.972847,,,,,,,
1512178753.166721,-0.013925,0.428043,-2.918191,-0.153770,0.717005,1.308016,-0.012668,-0.415091,-0.909692,-0.044033,0.034461,0.051156,-22.286255,-18.004906,-40.121498,,,,,,,
1512178753.186710,-0.012622,0.423524,-2.889468,-0.236417,0.633497,1.337441,-0.011507,-0.410976,-0.911574,-0.031859,0.022380,0.026213,-22.132690,-17.179680,-40.422401,,,,,,,
1512178753.206699,-0.012797,0.418020,-2.859809,-0.265032,0.597031,1.390203,-0.011695,-0.405952,-0.913820,-0.036203,0.015663,0.021806,-21.904022,-16.354332,-40.498924,,,,,,,
1512178753.226719,-0.012702,0.412246,-2.829377,-0.272865,0.640766,1.414761,-0.011638,-0.400668,-0.916149,-0.047643,0.015505,0.019818,-22.052032,-15.904564,-40.572441,,,,,,,
1512178753.246708,-0.011965,0.406606,-2.799278,-0.259572,0.633369,1.384012,-0.010990,-0.395494,-0.918403,-0.051816,0.024797,-0.003289,-22.123474,-15.079659,-40.871422,,,,,,,
1512178753.266697,-0.011893,0.401296,-2.770498,-0.244650,0.536329,1.315667,-0.010948,-0.390611,-0.920490,-0.041695,0.026094,-0.027828,-22.043930,-14.029549,-41.246574,,,,,,,
1512178753.286716,-0.012827,0.396570,-2.743135,-0.198782,0.469237,1.245736,-0.011831,-0.386257,-0.922315,-0.041102,0.026607,-0.023562,-21.891266,-13.429314,-41.322578,,,,,,,
1512178753.306705,-0.014311,0.392678,-2.717397,-0.172180,0.394628,1.179764,-0.013221,-0.382664,-0.923793,-0.034219,0.020069,-0.014455,-22.037521,-12.604530,-41.245903,,,,,,,
1512178753.326694,-0.016564,0.389329,-2.692931,-0.143757,0.349899,1.135247,-0.015324,-0.379568,-0.925037,-0.035915,-0.007700,-0.002835,-22.109222,-11.854652,-41.394936,,,,,,,
1512178753.346714,-0.018670,0.385743,-2.669497,-0.165268,0.339290,1.081596,-0.017298,-0.376247,-0.926358,-0.036947,-0.016697,0.019864,-21.958878,-11.779411,-41.396172,,,,,,,
1512178753.366703,-0.020316,0.382311,-2.646775,-0.134232,0.356438,1.074641,-0.018848,-0.373065,-0.927614,-0.042660,-0.044568,0.034852,-22.481888,-11.330208,-41.466499,,,,,,,
1512178753.386692,-0.021875,0.379489,-2.624214,-0.114725,0.342621,1.054620,-0.020317,-0.370446,-0.928632,-0.039132,-0.043052,0.043469,-22.330200,-10.954979,-41.467598,,,,,,,
1512178753.406681,-0.022730,0.376828,-2.602741,-0.104121,0.371599,0.995176,-0.021133,-0.367973,-0.929596,-0.049866,-0.045556,0.050583,-22.551193,-9.980309,-42.215248,,,,,,,
1512178753.426700,-0.022270,0.374697,-2.582403,-0.067020,0.418755,0.945774,-0.020723,-0.365991,-0.930388,-0.053602,-0.061683,0.047148,-21.873184,-9.379280,-41.620689,,,,,,,
1512178753.446689,-0.021401,0.374021,-2.562755,0.018523,0.390079,0.928791,-0.019920,-0.365361,-0.930653,-0.041847,-0.075664,0.023243,-22.096207,-8.929619,-41.693581,,,,,,,
1512178753.466678,-0.021881,0.374374,-2.543503,0.041323,0.302576,0.898965,-0.020364,-0.365690,-0.930514,-0.040106,-0.078982,0.018252,-21.945038,-8.629402,-42.069710,,,,,,,
1512178753.486698,-0.022969,0.375006,-2.525030,0.054684,0.305871,0.865058,-0.021371,-0.366278,-0.930260,-0.058891,-0.091394,0.038124,-21.944366,-8.479393,-42.069649,,,,,,,
1512178753.506687,-0.022134,0.375468,-2.507351,0.026744,0.413807,0.819188,-0.020591,-0.366708,-0.930108,-0.067788,-0.096350,0.042215,-21.864151,-7.279274,-42.444725,,,,,,,
1512178753.526676,-0.019351,0.375615,-2.491119,0.014716,0.473700,0.776583,-0.018001,-0.366845,-0.930108,-0.063252,-0.092735,0.023339,-21.642273,-7.953941,-42.596947,,,,,,,
1512178753.546695,-0.016199,0.375722,-2.475009,0.010720,0.454492,0.758331,-0.015069,-0.366945,-0.930121,-0.046623,-0.086180,-0.012872,-21.412125,-6.828590,-42.448341,,,,,,,
1512178753.566684,-0.014015,0.375981,-2.459028,0.023398,0.393618,0.762569,-0.013035,-0.367185,-0.930056,-0.048305,-0.091982,-0.035337,-21.412308,-6.828590,-42.823341,,,,,,,
1512178753.586673,-0.012095,0.376533,-2.443545,0.029500,0.395856,0.715758,-0.011247,-0.367699,-0.929877,-0.046691,-0.087807,-0.034738,-21.335220,-6.378487,-42.673775,,,,,,,
1512178753.606663,-0.009656,0.377528,-2.429313,0.065756,0.402451,0.651278,-0.008976,-0.368624,-0.929535,-0.046154,-0.076841,-0.044265,-21.109650,-6.228142,-42.900612,,,,,,,
1512178753.626682,-0.006744,0.379714,-2.416566,0.134018,0.372780,0.582869,-0.006264,-0.370655,-0.928749,-0.043526,-0.080639,-0.059105,-20.883270,-5.927803,-42.827385,,,,,,,
1512178753.646671,-0.005157,0.383634,-2.405189,0.222402,0.270490,0.518762,-0.004782,-0.374292,-0.927298,-0.044046,-0.091146,-0.059350,-21.034607,-6.228035,-42.826256,,,,,,,
1512178753.666660,-0.003820,0.388438,-2.395382,0.241715,0.263187,0.446526,-0.003535,-0.378743,-0.925495,-0.047948,-0.095576,-0.030270,-20.884842,-6.227806,-43.277519,,,,,,,
1512178753.686680,-0.001872,0.392664,-2.386925,0.185103,0.263212,0.388137,-0.001730,-0.382651,-0.923891,-0.045633,-0.103662,-0.014295,-20.810516,-6.377693,-43.278236,,,,,,,
1512178753.706669,0.001148,0.394905,-2.379493,0.063174,0.330399,0.351426,0.001060,-0.384720,-0.923033,-0.040733,-0.101654,0.007627,-20.582169,-5.627357,-43.354805,,,,,,,
1512178753.726658,0.005728,0.394254,-2.372609,-0.096263,0.392161,0.325877,0.005288,-0.384120,-0.923268,-0.035287,-0.080785,0.011937,-20.959808,-6.152916,-43.876854,,,,,,,
1512178753.746677,0.011574,0.390491,-2.366251,-0.245038,0.445399,0.300457,0.010702,-0.380642,-0.924660,-0.034842,-0.062977,-0.003837,-20.355453,-5.177010,-43.956505,,,,,,,
1512178753.766666,0.018710,0.384549,-2.360294,-0.336382,0.499770,0.282264,0.017343,-0.375141,-0.926805,-0.023721,-0.040798,-0.032301,-20.355118,-5.102013,-43.956474,,,,,,,
1512178753.786655,0.026785,0.377873,-2.354441,-0.352384,0.551012,0.285408,0.024893,-0.368944,-0.929118,0.017328,-0.005568,-0.086400,-19.829880,-5.026222,-44.185890,,,,,,,
1512178753.806644,0.035086,0.371612,-2.348158,-0.314304,0.520059,0.301842,0.032685,-0.363118,-0.931170,0.053100,0.039601,-0.161268,-19.826355,-4.201210,-44.560509,,,,,,,
1512178753.826664,0.041012,0.366914,-2.342142,-0.195823,0.337613,0.283735,0.038272,-0.358736,-0.932654,0.093549,0.098101,-0.207437,-19.824417,-3.751213,-44.710304,,,,,,,
1512178753.846653,0.041792,0.365867,-2.336170,0.028589,0.032418,0.300849,0.039015,-0.357759,-0.932999,0.119021,0.132768,-0.201508,-19.823029,-3.451210,-44.635155,,,,,,,
1512178753.866642,0.036815,0.370142,-2.330216,0.296817,-0.205407,0.314569,0.034314,-0.361748,-0.931644,0.110812,0.147713,-0.109036,-19.973694,-3.601433,-44.633949,,,,,,,
1512178753.886661,0.029989,0.378256,-2.323845,0.434049,-0.181731,0.333698,0.027865,-0.369300,-0.928892,0.088926,0.133903,0.019987,-20.125381,-3.976662,-44.632851,,,,,,,
1512178753.906634,0.025572,0.387209,-2.316892,0.423796,-0.018410,0.381022,0.023677,-0.377605,-0.925664,0.091710,0.110042,0.092915,-20.650009,-3.902458,-44.553352,,,,,,,
1512178753.926623,0.023230,0.394769,-2.307830,0.328302,0.092327,0.488764,0.021442,-0.384595,-0.922836,0.103207,0.097745,0.090698,-20.950058,-3.902901,-44.625801,,,,,,,
1512178753.946643,0.020545,0.399995,-2.296539,0.205393,0.068475,0.571118,0.018922,-0.389413,-0.920869,0.109267,0.101907,0.065400,-21.325089,-3.903465,-44.697624,,,,,,,
1512178753.966632,0.016179,0.402797,-2.284458,0.080527,0.009522,0.576566,0.014883,-0.391993,-0.919848,0.097391,0.117152,0.067553,-21.401108,-4.128578,-44.697090,,,,,,,
1512178753.986621,0.010208,0.403665,-2.272296,0.015386,-0.068561,0.579615,0.009388,-0.392791,-0.919580,0.084179,0.087432,0.064996,-21.623398,-3.528908,-44.694893,,,,,,,
1512178754.006640,0.005496,0.403580,-2.260291,-0.011859,0.064965,0.557297,0.005054,-0.392713,-0.919647,0.081234,0.098997,0.094192,-22.072052,-3.229576,-44.690941,,,,,,,
1512178754.026629,0.004025,0.403690,-2.249828,0.012032,0.184806,0.471708,0.003702,-0.392815,-0.919610,0.076148,0.086906,0.085031,-22.522537,-3.380257,-44.312187,,,,,,,
1512178754.046618,0.004350,0.404292,-2.240740,0.040525,0.198827,0.425263,0.003999,-0.393368,-0.919372,0.091979,0.073650,0.050934,-22.746338,-3.080589,-44.610115,,,,,,,
1512178754.066607,0.003480,0.405767,-2.232247,0.089702,0.083568,0.411718,0.003197,-0.394723,-0.918794,0.101859,0.049447,0.031709,-22.822723,-3.380714,-44.684624,,,,,,,
1512178754.086627,-0.000038,0.407801,-2.223755,0.095894,-0.040348,0.417771,-0.000035,-0.396591,-0.917995,0.103093,0.031006,0.051540,-22.820251,-2.855705,-44.459389,,,,,,,
1512178754.106616,-0.005228,0.409067,-2.215177,0.038376,-0.088495,0.412506,-0.004797,-0.397754,-0.917480,0.083227,0.018588,0.099334,-23.195251,-2.856270,-44.456200,,,,,,,
1512178754.126605,-0.008522,0.407910,-2.207428,-0.122643,0.048098,0.357346,-0.007822,-0.396692,-0.917918,0.056193,-0.022131,0.137965,-23.569092,-2.631828,-44.152916,,,,,,,
1512178754.146625,-0.010179,0.403310,-2.200483,-0.278169,0.075648,0.351993,-0.009362,-0.392465,-0.919719,0.059304,-0.042655,0.117839,-23.570114,-2.856834,-44.153023,,,,,,,
1512178754.166614,-0.012547,0.397011,-2.192671,-0.312213,0.024209,0.409954,-0.011571,-0.386664,-0.922148,0.066213,-0.058115,0.084044,-23.791992,-2.182167,-44.000786,,,,,,,
1512178754.186603,-0.016578,0.391516,-2.183998,-0.230633,-0.059040,0.436431,-0.015323,-0.381590,-0.924204,0.065143,-0.050203,0.066798,-24.468872,-2.558174,-44.370216,,,,,,,
1512178754.206622,-0.022120,0.388090,-2.175338,-0.127030,-0.107993,0.421769,-0.020473,-0.378421,-0.925407,0.053920,-0.063153,0.071388,-25.138550,-1.434181,-43.838966,,,,,,,
1512178754.226611,-0.026796,0.386089,-2.167523,-0.076009,-0.042644,0.370503,-0.024821,-0.376568,-0.926056,0.035303,-0.068241,0.090912,-25.062729,-1.284065,-43.539543,,,,,,,
1512178754.246600,-0.029198,0.384336,-2.161206,-0.085246,0.027999,0.286392,-0.027064,-0.374943,-0.926652,0.024882,-0.073985,0.076433,-25.362717,-1.284523,-43.536995,,,,,,,
1512178754.266589,-0.030866,0.382700,-2.157244,-0.066538,-0.031591,0.183046,-0.028628,-0.373427,-0.927218,0.045062,-0.080751,0.038073,-25.587723,-1.284859,-43.535088,,,,,,,
1512178754.286609,-0.033846,0.382449,-2.154535,0.013941,-0.122187,0.147655,-0.031395,-0.373193,-0.927222,0.053871,-0.100485,0.026694,-25.587646,-1.284859,-43.385078,,,,,,,
1512178754.306598,-0.037553,0.383925,-2.152259,0.088838,-0.132721,0.130580,-0.034811,-0.374563,-0.926548,0.038458,-0.113780,0.030826,-26.113251,-1.435646,-43.230690,,,,,,,
1512178754.326587,-0.041324,0.386409,-2.150320,0.112574,-0.145468,0.112757,-0.038266,-0.376865,-0.925478,0.036633,-0.124890,0.025514,-26.415207,-1.886101,-43.078346,,,,,,,
1512178754.346606,-0.045025,0.389062,-2.148459,0.117739,-0.154025,0.122396,-0.041646,-0.379320,-0.924328,0.037801,-0.131422,0.010433,-26.562607,-1.361320,-42.626823,,,,,,,
1512178754.366595,-0.048741,0.391964,-2.145768,0.139337,-0.114568,0.171884,-0.045026,-0.382004,-0.923063,0.026639,-0.118942,-0.011995,-26.638474,-1.586433,-42.326302,,,,,,,
1512178754.386584,-0.051287,0.395193,-2.142741,0.150343,-0.046153,0.154158,-0.047313,-0.384986,-0.921709,0.016856,-0.073876,-0.054640,-27.238708,-1.662331,-42.096230,,,,,,,
1512178754.406604,-0.053613,0.398313,-2.140725,0.146001,-0.095172,0.092094,-0.049392,-0.387864,-0.920392,0.007919,-0.053283,-0.117007,-27.388672,-1.662560,-42.019966,,,,,,,
1512178754.426593,-0.057957,0.401527,-2.140627,0.172149,-0.267973,-0.015803,-0.053317,-0.390825,-0.918920,0.003680,-0.028044,-0.143901,-27.694931,-3.013023,-42.393044,,,,,,,
1512178754.446582,-0.063776,0.405681,-2.142860,0.219738,-0.323229,-0.124042,-0.058560,-0.394645,-0.916966,-0.019412,-0.042413,-0.109066,-27.841446,-2.338234,-41.491447,,,,,,,
1512178754.466571,-0.067602,0.410400,-2.146938,0.226334,-0.198102,-0.194938,-0.061942,-0.398976,-0.914867,-0.044702,-0.071162,-0.068806,-28.370819,-3.314034,-41.487434,,,,,,,
1512178754.486590,-0.067239,0.414980,-2.152419,0.201922,-0.011078,-0.256470,-0.061486,-0.403172,-0.913056,-0.064201,-0.090419,-0.067535,-28.221268,-3.463814,-41.038780,,,,,,,
1512178754.506579,-0.063426,0.418940,-2.160036,0.158304,0.102207,-0.321741,-0.057902,-0.406792,-0.911684,-0.071233,-0.095787,-0.081404,-27.928055,-4.963371,-41.117027,,,,,,,
1512178754.526568,-0.057142,0.421093,-2.168623,0.028330,0.179052,-0.387318,-0.052122,-0.408758,-0.911153,-0.074679,-0.092325,-0.091868,-28.227829,-4.963814,-40.664482,,,,,,,
1512178754.546588,-0.048974,0.419415,-2.178438,-0.196076,0.246065,-0.415920,-0.044712,-0.407226,-0.912232,-0.041317,-0.070588,-0.111556,-27.627914,-4.962914,-40.819572,,,,,,,
1512178754.566577,-0.039123,0.412898,-2.188488,-0.416865,0.346115,-0.403845,-0.035826,-0.401265,-0.915261,-0.007280,-0.013957,-0.143791,-27.480652,-5.562706,-40.896126,,,,,,,
1512178754.586566,-0.028784,0.404739,-2.197952,-0.391850,0.298021,-0.371669,-0.026455,-0.393779,-0.918824,0.042019,0.072688,-0.187880,-27.028702,-5.112022,-41.049751,,,,,,,
1512178754.606585,-0.022919,0.400136,-2.206693,-0.111884,0.017488,-0.361128,-0.021107,-0.389543,-0.920766,0.067219,0.156023,-0.163401,-27.180618,-5.562248,-40.823677,,,,,,,
1512178754.626574,-0.024188,0.403332,-2.215923,0.303458,-0.349224,-0.418217,-0.022245,-0.392486,-0.919489,0.031568,0.171096,-0.055898,-27.480545,-5.562706,-40.671135,,,,,,,
1512178754.646564,-0.029029,0.412974,-2.226150,0.540715,-0.439580,-0.458804,-0.026584,-0.401335,-0.915545,-0.031109,0.139357,0.131701,-27.785416,-6.688164,-40.294106,,,,,,,
1512178754.666553,-0.032092,0.424334,-2.236363,0.536304,-0.251615,-0.440088,-0.029241,-0.411714,-0.910844,-0.087092,0.084596,0.281373,-27.938248,-7.363380,-39.918144,,,,,,,
1512178754.686572,-0.028927,0.433446,-2.245627,0.370178,0.129329,-0.368681,-0.026248,-0.420000,-0.907144,-0.138470,0.032671,0.335031,-27.716309,-8.038063,-39.920372,,,,,,,
1512178754.706561,-0.018551,0.438222,-2.253418,0.147451,0.486686,-0.290708,-0.016797,-0.424330,-0.905352,-0.126635,0.017622,0.281908,-27.268448,-8.487389,-40.149391,,,,,,,
1512178754.726550,-0.005417,0.438527,-2.258622,-0.071352,0.573643,-0.142199,-0.004904,-0.424606,-0.905365,-0.092538,0.034576,0.175506,-26.894485,-8.711815,-40.227684,,,,,,,
1512178754.746570,0.005589,0.433982,-2.261235,-0.325401,0.457741,-0.062059,0.005071,-0.420487,-0.907284,-0.091543,0.067323,0.081448,-25.920578,-8.935356,-40.386070,,,,,,,
1512178754.766559,0.012616,0.424409,-2.263583,-0.562858,0.235245,-0.089728,0.011496,-0.411782,-0.911210,-0.103629,0.105645,0.022996,-25.768997,-8.560143,-40.612175,,,,,,,
1512178754.786548,0.015501,0.411509,-2.267020,-0.667472,0.018375,-0.155960,0.014207,-0.399993,-0.916408,-0.104066,0.123199,0.006114,-25.393326,-8.409569,-40.615288,,,,,,,
1512178754.806567,0.015530,0.398690,-2.271116,-0.612212,-0.099053,-0.151304,0.014312,-0.388211,-0.921459,-0.104567,0.097958,0.022091,-25.315369,-7.734459,-40.765617,,,,,,,
1512178754.826556,0.015105,0.387222,-2.274715,-0.549496,-0.045579,-0.138486,0.013986,-0.377618,-0.925856,-0.122461,0.087731,0.069075,-25.389389,-7.509560,-40.839867,,,,,,,
1512178754.846545,0.016935,0.376703,-2.278774,-0.508298,0.083807,-0.173684,0.015747,-0.367857,-0.929749,-0.132797,0.066435,0.092545,-25.238037,-7.209328,-40.841011,,,,,,,
1512178754.866565,0.021776,0.367092,-2.283206,-0.453796,0.215281,-0.175636,0.020323,-0.358903,-0.933154,-0.124785,0.029939,0.086855,-24.785706,-6.683662,-40.919594,,,,,,,
1512178754.886554,0.027519,0.359041,-2.287406,-0.359140,0.223945,-0.161441,0.025761,-0.351377,-0.935880,-0.092030,0.018125,0.063626,-24.637177,-6.983437,-41.146004,,,,,,,
1512178754.906531,0.033018,0.353469,-2.290545,-0.216358,0.253935,-0.091040,0.030971,-0.346154,-0.937666,-0.082393,-0.015159,0.068037,-24.337921,-7.132988,-41.298622,,,,,,,
1512178754.926520,0.039691,0.350791,-2.291973,-0.096487,0.346839,0.013359,0.037264,-0.343641,-0.938362,-0.067721,-0.054552,0.085334,-23.587250,-6.981865,-41.304924,,,,,,,
1512178754.946539,0.048194,0.347948,-2.294127,-0.162180,0.310733,-0.141228,0.045288,-0.340970,-0.938983,-0.120224,0.032620,0.057864,-23.213104,-7.131294,-41.683189,,,,,,,
1512178754.966528,0.052474,0.345470,-2.300596,-0.068988,0.066591,-0.309163,0.049351,-0.338638,-0.939621,-0.139255,-0.161484,0.041672,-22.987015,-6.905952,-41.534996,,,,,,,
1512178754.986517,0.056060,0.343996,-2.307773,-0.075543,0.068697,-0.299657,0.052748,-0.337252,-0.939936,-0.060240,-0.048658,0.067316,-22.612350,-6.980400,-41.538216,,,,,,,
1512178755.006537,0.057490,0.341749,-2.314067,-0.100126,-0.047903,-0.237525,0.054136,-0.335135,-0.940613,-0.052030,-0.110177,0.016434,-22.386749,-6.830055,-41.690056,,,,,,,
1512178755.026526,0.057868,0.341497,-2.317866,0.067914,-0.003085,-0.081419,0.054496,-0.334898,-0.940677,-0.047309,-0.128114,-0.027539,-22.313065,-7.129951,-41.615837,,,,,,,
1512178755.046515,0.057083,0.345271,-2.318206,0.182611,0.016013,0.075957,0.053685,-0.338452,-0.939451,-0.032506,-0.139652,-0.035143,-22.314758,-7.504951,-41.616005,,,,,,,
1512178755.066534,0.057711,0.349666,-2.316095,0.187564,0.160033,0.169271,0.054188,-0.342584,-0.937923,-0.057805,-0.128425,-0.055805,-22.316223,-7.804955,-41.841148,,,,,,,
1512178755.086523,0.062145,0.353601,-2.313445,0.146423,0.362964,0.153393,0.058263,-0.346279,-0.936321,-0.069447,-0.104390,-0.089161,-21.565170,-7.578819,-41.772423,,,,,,,
1512178755.106512,0.069390,0.354479,-2.311546,-0.047035,0.414007,0.121986,0.065024,-0.347102,-0.935571,-0.028891,-0.091344,-0.172202,-21.338776,-7.278481,-41.699196,,,,,,,
1512178755.126501,0.074968,0.352407,-2.308827,-0.124821,0.289862,0.177992,0.070295,-0.345158,-0.935908,0.017412,-0.065929,-0.261357,-20.963547,-7.202919,-41.927345,,,,,,,
1512178755.146521,0.077092,0.352210,-2.305865,0.066176,0.090441,0.157678,0.072288,-0.344973,-0.935825,0.021630,-0.026503,-0.286129,-20.290009,-7.501915,-42.158211,,,,,,,
1512178755.166510,0.076684,0.358223,-2.304936,0.409973,-0.046626,0.054511,0.071745,-0.350611,-0.933769,0.001146,-0.043478,-0.235710,-20.440018,-7.502144,-42.156944,,,,,,,
1512178755.186499,0.076063,0.367028,-2.307375,0.447617,-0.055886,-0.095290,0.070928,-0.358843,-0.930699,0.006449,-0.022779,-0.151485,-19.989975,-7.501457,-42.085777,,,,,,,
1512178755.206519,0.078811,0.377371,-2.310684,0.547325,0.195211,-0.052461,0.073190,-0.368477,-0.926751,-0.009195,-0.117591,-0.073234,-20.218384,-8.251808,-42.159203,,,,,,,
1512178755.226508,0.084384,0.384503,-2.311975,0.205767,0.305593,0.043185,0.078130,-0.375098,-0.923687,0.015162,-0.121621,-0.094853,-19.770142,-8.626137,-42.313194,,,,,,,
1512178755.246497,0.089749,0.383438,-2.309870,-0.221953,0.322813,0.187362,0.083120,-0.374111,-0.923651,0.060984,-0.103184,-0.133996,-19.395554,-8.700569,-42.466423,,,,,,,
1512178755.266516,0.093016,0.376197,-2.303569,-0.443152,0.259143,0.345979,0.086386,-0.367386,-0.926048,0.114984,-0.031158,-0.181237,-19.094589,-8.475121,-42.543861,,,,,,,
1512178755.286505,0.092496,0.369684,-2.295432,-0.235129,0.075631,0.392058,0.086124,-0.361320,-0.928456,0.134258,0.083641,-0.200512,-18.867935,-8.099785,-42.620598,,,,,,,
1512178755.306494,0.089298,0.372570,-2.288383,0.327072,-0.091154,0.360179,0.083061,-0.364010,-0.927684,0.131447,0.135983,-0.154058,-18.714554,-7.349541,-42.621529,,,,,,,
1512178755.326483,0.082908,0.385961,-2.283115,0.811490,-0.260187,0.326100,0.076721,-0.376449,-0.923255,0.081909,0.143890,-0.028100,-18.940567,-7.574883,-42.619728,,,,,,,
1512178755.346503,0.076251,0.406273,-2.278492,1.052361,-0.187196,0.333042,0.069977,-0.395188,-0.915931,0.038697,0.109162,0.139808,-19.091583,-7.800117,-42.618553,,,,,,,
1512178755.366492,0.073531,0.426936,-2.273693,0.960107,0.097901,0.316704,0.066871,-0.414084,-0.907779,-0.001594,0.105017,0.244190,-19.169769,-8.550240,-42.243263,,,,,,,
1512178755.386481,0.077977,0.444015,-2.269572,0.753243,0.452322,0.273369,0.070345,-0.429568,-0.900290,-0.022905,0.083148,0.241233,-19.172653,-9.150246,-42.618538,,,,,,,
1512178755.406500,0.086056,0.455968,-2.264617,0.461326,0.510509,0.329038,0.077169,-0.440332,-0.894513,0.019633,0.062295,0.117581,-19.100693,-9.825127,-42.619484,,,,,,,
1512178755.426489,0.089556,0.462939,-2.256536,0.242095,0.264181,0.489182,0.080022,-0.446580,-0.891158,0.069331,0.071793,0.010574,-18.200317,-9.748772,-42.552101,,,,,,,
1512178755.446478,0.083346,0.467348,-2.244116,0.129931,-0.213841,0.673519,0.074322,-0.450520,-0.889667,0.077045,0.062001,-0.057644,-17.974564,-9.598442,-42.403954,,,,,,,
1512178755.466498,0.065164,0.469849,-2.227607,0.023591,-0.664024,0.829254,0.058062,-0.452752,-0.889744,0.058424,0.051384,-0.008205,-17.900360,-9.748329,-42.629646,,,,,,,
1512178755.486487,0.040933,0.469316,-2.207557,-0.143070,-0.740416,0.975819,0.036497,-0.452276,-0.891131,-0.006544,0.026663,0.088473,-19.469696,-8.550682,-42.090721,,,,,,,
1512178755.506476,0.017897,0.463644,-2.186127,-0.425057,-0.528362,1.019378,0.016007,-0.447210,-0.894286,-0.047974,0.040411,0.155455,-20.518982,-8.402260,-42.006721,,,,,,,
1512178755.526465,0.002040,0.451500,-2.164892,-0.735745,-0.194322,0.935020,0.001836,-0.436316,-0.899792,-0.061940,0.054419,0.151287,-20.813995,-7.277702,-42.153648,,,,,,,
1512178755.546484,-0.006416,0.433475,-2.147353,-0.985195,0.048143,0.753154,-0.005822,-0.420027,-0.907493,-0.046775,0.067945,0.144783,-20.810028,-6.377693,-42.303246,,,,,,,
1512178755.566473,-0.009303,0.411178,-2.134733,-1.175293,0.157268,0.520511,-0.008527,-0.399689,-0.916611,-0.016528,0.083222,0.168274,-20.803909,-5.027687,-42.227623,,,,,,,
1512178755.586462,-0.006870,0.386888,-2.131318,-1.218338,0.235205,-0.033126,-0.006362,-0.377308,-0.926066,0.028258,0.167439,0.210047,-20.421936,-3.452110,-42.455070,,,,,,,
1512178755.606482,-0.001427,0.364143,-2.139364,-1.071526,0.046160,-0.477273,-0.001334,-0.356149,-0.934428,0.013327,0.037271,0.185710,-20.271255,-3.301888,-42.456276,,,,,,,
1512178755.626471,-0.003552,0.346137,-2.151872,-0.786801,-0.549266,-0.576496,-0.003341,-0.339267,-0.940684,0.065582,-0.029508,0.159801,-20.716461,-2.252556,-42.301964,,,,,,,
1512178755.646460,-0.016106,0.334596,-2.165662,-0.464498,-0.968490,-0.618058,-0.015212,-0.328388,-0.944420,0.091903,-0.032849,0.175469,-21.541504,-2.253792,-42.369957,,,,,,,
1512178755.666479,-0.030783,0.328135,-2.175850,-0.277931,-0.739200,-0.284078,-0.029136,-0.322278,-0.946196,0.010658,-0.143923,0.252303,-21.841843,-2.404243,-41.692482,,,,,,,
1512178755.686468,-0.037502,0.323625,-2.176889,-0.202126,-0.097907,0.128620,-0.035546,-0.318005,-0.947422,-0.009284,-0.160998,0.286946,-22.440598,-2.105141,-41.912239,,,,,,,
1512178755.706458,-0.034194,0.320898,-2.173245,-0.075256,0.353961,0.214114,-0.032442,-0.315419,-0.948398,-0.006514,-0.092784,0.188754,-22.289322,-1.804909,-42.063377,,,,,,,
1512178755.726447,-0.028812,0.320832,-2.170177,0.054625,0.297662,0.158236,-0.027338,-0.315356,-0.948580,0.001337,-0.076551,0.027681,-21.837753,-1.429237,-42.292030,,,,,,,
1512178755.746466,-0.024613,0.323390,-2.168331,0.173090,0.242440,0.081934,-0.023335,-0.317782,-0.947876,0.055821,-0.086637,-0.020095,-21.389099,-1.728554,-42.295998,,,,,,,
1512178755.766455,-0.019372,0.327592,-2.167755,0.216332,0.292782,0.048624,-0.018341,-0.321764,-0.946642,0.022095,-0.119688,-0.053251,-21.539932,-1.878792,-42.594780,,,,,,,
1512178755.786444,-0.016378,0.329498,-2.167500,0.007807,0.098116,0.012942,-0.015496,-0.323568,-0.946078,-0.017753,-0.100123,-0.135251,-21.090042,-1.878120,-42.823601,,,,,,,
1512178755.806464,-0.013542,0.328853,-2.170685,-0.038776,0.117698,-0.198741,-0.012816,-0.322958,-0.946326,-0.025652,-0.114420,-0.128030,-21.164780,-1.803230,-42.972939,,,,,,,
1512178755.826453,-0.007483,0.328532,-2.177617,-0.006454,0.249416,-0.342801,-0.007082,-0.322654,-0.946491,-0.055250,-0.127633,-0.145077,-21.090530,-1.953117,-43.123634,,,,,,,
1512178755.846442,-0.002196,0.328982,-2.185631,0.043252,0.029419,-0.328986,-0.002079,-0.323080,-0.946369,-0.026577,-0.145304,-0.210201,-21.164551,-1.728218,-43.197899,,,,,,,
1512178755.866461,-0.003581,0.330843,-2.192182,0.127014,-0.283589,-0.252106,-0.003386,-0.324841,-0.945763,-0.020997,-0.133640,-0.172005,-21.691162,-2.104012,-43.043602,,,,,,,
1512178755.886450,-0.009654,0.335160,-2.197873,0.282433,-0.410484,-0.244966,-0.009117,-0.328920,-0.944314,-0.081337,-0.154189,-0.107795,-22.067886,-2.479576,-43.115593,,,,,,,
1512178755.906415,-0.016110,0.342665,-2.204636,0.394929,-0.434682,-0.344696,-0.015173,-0.335999,-0.941740,-0.133066,-0.149109,-0.110079,-22.368378,-2.630028,-42.738106,,,,,,,
1512178755.926435,-0.017028,0.349861,-2.217266,0.308884,-0.100767,-0.734959,-0.015996,-0.342767,-0.939284,-0.144664,-0.035590,-0.069703,-22.446045,-3.230141,-42.662758,,,,,,,
1512178755.946424,-0.008836,0.353816,-2.238667,0.081250,0.150585,-1.076390,-0.008289,-0.346480,-0.938021,-0.099743,0.011046,-0.135100,-22.302597,-4.654930,-42.964684,,,,,,,
1512178755.966413,0.002437,0.352352,-2.261255,-0.121927,0.140455,-0.974897,0.002287,-0.345106,-0.938561,-0.009581,0.026609,-0.139274,-22.301285,-4.354927,-43.039543,,,,,,,
1512178755.986402,0.011597,0.351129,-2.280682,0.016486,0.153216,-0.833189,0.010889,-0.343958,-0.938922,0.039098,0.078623,-0.110410,-22.301773,-4.429924,-43.339577,,,,,,,
1512178756.006421,0.020048,0.354785,-2.296789,0.310690,0.147938,-0.638121,0.018798,-0.347389,-0.937533,0.036988,0.073463,-0.091993,-22.078094,-4.729591,-43.266624,,,,,,,
1512178756.026410,0.025948,0.364327,-2.306102,0.577973,0.140063,-0.233441,0.024242,-0.356321,-0.934049,0.027775,0.045881,-0.039568,-22.156799,-5.554710,-43.266380,,,,,,,
1512178756.046399,0.028399,0.378265,-2.307398,0.765705,0.044668,0.079172,0.026388,-0.369308,-0.928932,-0.004766,0.085373,-0.018822,-21.635178,-6.303932,-43.271187,,,,,,,
1512178756.066419,0.027792,0.394755,-2.307870,0.852950,-0.015850,-0.043440,0.025651,-0.384582,-0.922734,-0.080323,0.140289,0.005986,-22.015610,-7.504509,-43.343559,,,,,,,
1512178756.086408,0.031539,0.410912,-2.313615,0.819863,0.160843,-0.290629,0.028909,-0.399446,-0.916301,-0.079736,0.183656,0.017421,-22.015884,-7.579506,-43.193581,,,,,,,
1512178756.106397,0.041035,0.425977,-2.320804,0.722927,0.390221,-0.218741,0.037358,-0.413211,-0.909869,-0.015721,0.067080,0.043124,-21.869171,-8.329277,-43.045204,,,,,,,
1512178756.126416,0.047988,0.436082,-2.324967,0.402949,0.167291,-0.090897,0.043480,-0.422392,-0.905370,0.018241,0.068708,0.047292,-21.271347,-8.778389,-43.350517,,,,,,,
1512178756.146405,0.047774,0.438875,-2.327678,0.015096,-0.115253,-0.115620,0.043230,-0.424921,-0.904197,-0.026155,0.119425,0.078117,-21.350067,-9.603508,-43.350258,,,,,,,
1512178756.166394,0.045261,0.434071,-2.331825,-0.368382,-0.217146,-0.203617,0.041049,-0.420568,-0.906332,-0.000613,0.187581,0.079275,-21.573044,-9.153831,-43.348137,,,,,,,
1512178756.186383,0.038764,0.424199,-2.336663,-0.528386,-0.542102,-0.213461,0.035320,-0.411591,-0.910684,0.027058,0.171372,0.052789,-21.871872,-8.929283,-43.045479,,,,,,,
1512178756.206403,0.026593,0.412035,-2.341016,-0.656181,-0.782736,-0.169247,0.024365,-0.400475,-0.915984,0.027164,0.149498,0.065932,-22.319778,-8.479958,-42.891457,,,,,,,
1512178756.226392,0.010645,0.397717,-2.344473,-0.727395,-0.873733,-0.121555,0.009814,-0.387314,-0.921895,0.049314,0.141053,0.132619,-22.916702,-7.805855,-42.811043,,,,,,,
1512178756.246381,-0.004788,0.383502,-2.346596,-0.692176,-0.710382,-0.051182,-0.004440,-0.374171,-0.927349,0.014496,0.088404,0.208111,-23.890579,-7.582314,-42.577660,,,,,,,
1512178756.266401,-0.013827,0.370991,-2.348215,-0.569434,-0.313913,-0.040561,-0.012886,-0.362539,-0.931879,0.000633,0.029821,0.239252,-24.562469,-6.908318,-42.421608,,,,,,,
1512178756.286390,-0.015544,0.362711,-2.350635,-0.304884,-0.003615,-0.100680,-0.014532,-0.354810,-0.934826,-0.000269,0.021176,0.217800,-24.788040,-7.058662,-42.194771,,,,,,,
1512178756.306379,-0.011151,0.360754,-2.353663,0.019561,0.285310,-0.108833,-0.010433,-0.352980,-0.935573,0.025829,0.016691,0.219264,-24.936768,-6.758888,-42.343346,,,,,,,
1512178756.326398,-0.000904,0.365175,-2.356152,0.342182,0.598714,-0.068952,-0.000844,-0.357113,-0.934061,0.042562,0.008754,0.266382,-24.486420,-6.683205,-42.347145,,,,,,,
1512178756.346387,0.014261,0.374474,-2.357578,0.493750,0.802843,-0.006348,0.013272,-0.365783,-0.930605,0.061404,0.038498,0.243258,-24.186310,-6.607750,-42.799644,,,,,,,
1512178756.366376,0.028640,0.384321,-2.358649,0.463929,0.669288,-0.014708,0.026547,-0.374930,-0.926673,0.048893,0.063467,0.252280,-23.442566,-7.956642,-43.181648,,,,,,,
1512178756.386365,0.042563,0.392139,-2.360362,0.354839,0.676689,-0.056770,0.039320,-0.382166,-0.923257,0.077364,0.031275,0.310586,-22.768356,-8.105629,-43.412453,,,,,,,
1512178756.406385,0.058493,0.397409,-2.364855,0.201000,0.791079,-0.225975,0.053904,-0.387030,-0.920490,0.065099,0.065482,0.377567,-22.471283,-8.705177,-43.865273,,,,,,,
1512178756.426374,0.079942,0.397467,-2.371595,-0.090227,1.077116,-0.329408,0.073632,-0.387084,-0.919100,0.119636,0.181640,0.423311,-21.645416,-8.478951,-44.172188,,,,,,,
1512178756.446363,0.109745,0.392450,-2.380641,-0.272160,1.413588,-0.464130,0.101199,-0.382453,-0.918416,0.181348,0.185706,0.386541,-19.395554,-8.400566,-45.166267,,,,,,,
1512178756.466382,0.142890,0.384601,-2.393523,-0.329178,1.413951,-0.690958,0.132002,-0.375189,-0.917501,0.238131,0.326270,0.342657,-18.195938,-8.398766,-45.926460,,,,,,,
1512178756.486371,0.179444,0.375434,-2.410483,-0.343463,1.711191,-0.844710,0.166051,-0.366677,-0.915410,0.268275,0.371407,0.459538,-16.322495,-8.695961,-46.392540,,,,,,,
1512178756.506360,0.232349,0.363716,-2.428206,-0.482855,2.790045,-0.936787,0.215200,-0.355750,-0.909467,0.316431,0.431449,0.684187,-13.320541,-8.166466,-47.242790,,,,,,,
1512178756.526380,0.311707,0.343999,-2.446939,-0.903428,4.180762,-1.223746,0.288717,-0.337254,-0.896048,0.322245,0.583256,0.703940,-9.794113,-7.711174,-48.472527,,,,,,,
1512178756.546369,0.417994,0.308366,-2.468567,-1.546934,5.333452,-1.772748,0.386781,-0.303502,-0.870797,0.416213,0.608770,0.474297,-4.238846,-6.427834,-49.494118,,,,,,,
1512178756.566358,0.528893,0.257215,-2.488395,-2.004852,5.072704,-2.073456,0.487978,-0.254388,-0.834964,0.587507,0.621301,0.010302,1.017654,-4.919945,-50.063042,,,,,,,
1512178756.586347,0.622036,0.200820,-2.500628,-2.031981,4.228554,-1.956321,0.570981,-0.199473,-0.796362,0.674915,0.702570,-0.161799,5.752762,-2.662849,-50.177162,,,,,,,
1512178756.606366,0.702744,0.147531,-2.507441,-1.839836,3.871879,-1.859899,0.639293,-0.146996,-0.754783,0.598348,0.665948,-0.111901,9.662750,-0.481987,-49.834312,,,,,,,
1512178756.626355,0.777859,0.095188,-2.510853,-1.885678,3.660321,-1.870897,0.698579,-0.095044,-0.709193,0.529296,0.652005,-0.047018,13.648483,1.848991,-49.342018,,,,,,,
1512178756.646344,0.846911,0.039973,-2.505966,-2.270205,3.339088,-1.776309,0.748639,-0.039962,-0.661772,0.507220,0.646590,-0.045687,17.110825,4.479195,-48.320122,,,,,,,
1512178756.666364,0.908657,-0.019555,-2.487703,-2.849272,2.953415,-1.652779,0.788528,0.019554,-0.614688,0.440903,0.648461,-0.057309,19.600159,7.557930,-47.364754,,,,,,,
1512178756.686353,0.965832,-0.083830,-2.456194,-3.375260,2.665235,-1.642218,0.819634,0.083732,-0.566736,0.338646,0.636208,-0.108984,22.165009,10.711769,-46.034981,,,,,,,
1512178756.706342,1.021252,-0.149089,-2.414893,-3.570485,2.478942,-1.578534,0.843303,0.148538,-0.516505,0.258046,0.584449,-0.214178,24.286957,15.364952,-44.025688,,,,,,,
1512178756.726361,1.078474,-0.211842,-2.368060,-3.585103,2.382705,-1.536435,0.861537,0.210262,-0.462107,0.185627,0.497166,-0.311117,26.029816,19.117577,-42.088631,,,,,,,
1512178756.746351,1.136024,-0.270764,-2.315035,-3.707378,2.125960,-1.438889,0.873922,0.267467,-0.405859,0.135615,0.450733,-0.393763,27.174240,23.169289,-39.696327,,,,,,,
1512178756.766340,1.192651,-0.327290,-2.253469,-3.924149,1.814767,-1.432453,0.880018,0.321478,-0.349600,0.082857,0.426203,-0.444620,28.242813,26.995872,-37.003502,,,,,,,
1512178756.786329,1.251992,-0.382849,-2.185462,-3.953804,1.768003,-1.575898,0.880863,0.373565,-0.290740,0.064648,0.391862,-0.484254,28.711182,30.746574,-34.005608,,,,,,,
1512178756.806348,1.315455,-0.436551,-2.118778,-3.551935,1.960056,-1.694138,0.876833,0.422816,-0.228888,0.103361,0.326345,-0.566034,28.577423,33.971382,-30.552849,,,,,,,
1512178756.826337,1.383356,-0.481017,-2.058510,-2.904894,2.053580,-1.492548,0.870997,0.462681,-0.165199,0.198019,0.193553,-0.710778,29.043137,37.122078,-27.480232,,,,,,,
1512178756.846326,1.446152,-0.516411,-2.007115,-2.321000,1.760454,-1.359314,0.862850,0.493762,-0.108110,0.222370,0.137936,-0.806120,29.053223,39.072090,-24.854347,,,,,,,
1512178756.866346,1.498144,-0.548309,-1.964187,-1.857330,1.343664,-1.439326,0.851156,0.521245,-0.061947,0.186411,0.019755,-0.808109,28.538422,41.021324,-21.999001,,,,,,,
1512178756.886335,1.540435,-0.579987,-1.927588,-1.539414,0.991828,-1.536158,0.836084,0.548013,-0.025393,0.173681,-0.131432,-0.775877,27.647156,42.744987,-20.040550,,,,,,,
1512178756.906291,1.573709,-0.611540,-1.895455,-1.293180,0.595936,-1.554224,0.818761,0.574129,0.002385,0.228434,-0.259401,-0.760335,26.529022,44.093300,-18.455376,,,,,,,
1512178756.926310,1.598858,-0.641013,-1.866347,-1.112939,0.277674,-1.445047,0.801175,0.598008,0.022488,0.295413,-0.356400,-0.708157,25.634644,45.216972,-17.322227,,,,,,,
1512178756.946299,1.618625,-0.667431,-1.840403,-0.936289,0.147349,-1.302218,0.784516,0.618970,0.037551,0.349349,-0.418302,-0.641586,24.440567,46.415169,-16.261467,,,,,,,
1512178756.966288,1.635593,-0.690114,-1.818000,-0.771157,0.102340,-1.104897,0.769555,0.636625,0.049935,0.417365,-0.447736,-0.616127,23.020355,47.388039,-15.423912,,,,,,,
1512178756.986277,1.648355,-0.708431,-1.798585,-0.618140,-0.046331,-0.887852,0.757101,0.650643,0.058837,0.470469,-0.485162,-0.620285,22.050537,48.511589,-15.190102,,,,,,,
1512178757.006297,1.655435,-0.723107,-1.783277,-0.452697,-0.215195,-0.714406,0.747069,0.661718,0.063383,0.494569,-0.524297,-0.619535,21.376465,48.660576,-14.659294,,,,,,,
1512178757.026286,1.655717,-0.734488,-1.772929,-0.282195,-0.422540,-0.527166,0.739499,0.670207,0.062950,0.521533,-0.563060,-0.610801,20.703308,49.034569,-14.353386,,,,,,,
1512178757.046275,1.647559,-0.741764,-1.767734,-0.087141,-0.673760,-0.278955,0.735107,0.675589,0.056540,0.547166,-0.603598,-0.588507,20.328537,49.109001,-14.575172,,,,,,,
1512178757.066294,1.631632,-0.743835,-1.769369,0.168311,-0.754031,0.000579,0.734516,0.677115,0.044740,0.574109,-0.584281,-0.516099,20.101730,48.808662,-15.473396,,,,,,,
1512178757.086283,1.610034,-0.742011,-1.779190,0.473817,-0.738923,0.157502,0.736543,0.675772,0.028915,0.588988,-0.516165,-0.461182,20.328827,49.334007,-16.000053,,,,,,,
1512178757.106272,1.585139,-0.738211,-1.797417,0.779680,-0.529252,0.237283,0.739597,0.672966,0.010608,0.620525,-0.468605,-0.380161,20.703278,49.334572,-17.128242,,,,,,,
1512178757.126292,1.561281,-0.732303,-1.823312,1.074625,-0.203198,0.339705,0.743602,0.668584,-0.007076,0.666142,-0.404928,-0.342854,20.924606,48.659904,-18.405464,,,,,,,
1512178757.146281,1.538059,-0.721470,-1.858025,1.462046,0.109769,0.652370,0.750433,0.660489,-0.024576,0.681879,-0.455044,-0.363562,21.445129,47.835686,-19.910301,,,,,,,
1512178757.166270,1.514956,-0.701014,-1.901808,1.831671,0.350792,1.134024,0.762997,0.644993,-0.042650,0.668079,-0.428486,-0.376173,22.488831,46.637245,-21.719765,,,,,,,
1512178757.186289,1.491909,-0.670086,-1.950558,2.062262,0.404761,1.569305,0.781331,0.621053,-0.061765,0.617855,-0.286184,-0.364947,24.430176,44.915154,-23.537132,,,,,,,
1512178757.206278,1.470083,-0.631270,-2.001339,2.269988,0.477183,1.841216,0.803188,0.590170,-0.081166,0.548481,-0.157263,-0.335200,26.293564,42.517952,-25.204170,,,,,,,
1512178757.226267,1.450151,-0.586792,-2.054182,2.472270,0.533681,2.053287,0.826669,0.553692,-0.100220,0.491141,-0.053936,-0.320236,28.306305,39.970970,-26.797539,,,,,,,
1512178757.246256,1.431416,-0.536753,-2.107600,2.613612,0.435196,2.269270,0.851040,0.511348,-0.119392,0.435826,0.043049,-0.304390,31.725525,33.451103,-29.679878,,,,,,,
1512178757.266276,1.412440,-0.481796,-2.160199,2.670341,0.253355,2.441097,0.875076,0.463372,-0.139744,0.351685,0.104591,-0.259883,31.725525,33.451103,-29.679878,,,,,,,
1512178757.286265,1.395621,-0.422235,-2.208883,2.588127,0.229206,2.706336,0.898215,0.409801,-0.158974,0.369164,0.129323,-0.122657,33.360031,30.153557,-30.970406,,,,,,,
1512178757.306254,1.382159,-0.357397,-2.251824,2.422045,0.104694,2.880462,0.920192,0.349837,-0.175671,0.266301,0.233445,-0.126911,34.541321,26.105324,-31.957481,,,,,,,
1512178757.326274,1.371990,-0.291027,-2.287980,2.194746,0.013404,2.954674,0.939081,0.286937,-0.189195,0.270316,0.351888,-0.067885,35.500244,22.581779,-32.417397,,,,,,,
1512178757.346263,1.363423,-0.224449,-2.318306,2.004422,-0.091630,2.983531,0.954029,0.222569,-0.200726,0.247936,0.490169,-0.051731,36.609085,19.058434,-33.028572,,,,,,,
1512178757.366252,1.355312,-0.158299,-2.344833,1.886514,-0.196434,2.952675,0.964659,0.157639,-0.211147,0.196199,0.616989,-0.018009,37.494690,15.909767,-33.487679,,,,,,,
1512178757.386271,1.347755,-0.094149,-2.368683,1.764917,-0.255115,2.824915,0.970910,0.094010,-0.220217,0.114783,0.686355,0.012285,37.703781,12.385078,-33.566231,,,,,,,
1512178757.406260,1.340687,-0.033750,-2.390233,1.641044,-0.304077,2.641722,0.973087,0.033743,-0.227954,0.031613,0.701608,0.042056,37.687317,8.785057,-34.092888,,,,,,,
1512178757.426249,1.333784,0.022651,-2.409666,1.513937,-0.356259,2.459532,0.971794,-0.022649,-0.234740,-0.048775,0.705404,0.067931,37.602829,6.684929,-34.168205,,,,,,,
1512178757.446238,1.327728,0.074773,-2.427297,1.402249,-0.322906,2.252281,0.967892,-0.074704,-0.240009,-0.121319,0.698758,0.102100,37.816666,4.210243,-34.246269,,,,,,,
1512178757.466258,1.324391,0.122639,-2.444917,1.340594,-0.197624,2.054606,0.962512,-0.122332,-0.242087,-0.162463,0.691897,0.119437,36.970459,-0.516014,-34.091438,,,,,,,
1512178757.486247,1.324825,0.166701,-2.462400,1.352367,-0.025258,1.865615,0.956456,-0.165930,-0.240123,-0.190892,0.722510,0.125682,36.812317,-2.316261,-34.165993,,,,,,,
1512178757.506236,1.330577,0.208037,-2.481683,1.406762,0.195112,1.745639,0.950343,-0.206539,-0.232785,-0.205150,0.737164,0.144284,36.728317,-4.341393,-33.941292,,,,,,,
1512178757.526255,1.341777,0.247217,-2.502855,1.431379,0.409037,1.620946,0.944281,-0.244706,-0.220121,-0.225775,0.772065,0.155545,36.643463,-6.591515,-33.416695,,,,,,,
1512178757.546244,1.358212,0.283118,-2.525508,1.417247,0.606961,1.452991,0.938574,-0.279351,-0.202587,-0.251959,0.809304,0.166256,36.787262,-8.016304,-32.968636,,,,,,,
1512178757.566233,1.378787,0.314365,-2.548352,1.299540,0.739684,1.227876,0.933516,-0.309213,-0.181479,-0.285231,0.830041,0.165229,37.005905,-9.515968,-32.221245,,,,,,,
1512178757.586253,1.399779,0.339610,-2.569206,1.075773,0.684323,0.960058,0.929130,-0.333120,-0.160465,-0.320792,0.834401,0.144047,36.697647,-11.466438,-31.169594,,,,,,,
1512178757.606242,1.415980,0.356326,-2.586649,0.823909,0.400687,0.510878,0.925976,-0.348833,-0.144512,-0.365048,0.844194,0.135372,36.618515,-12.441551,-30.644402,,,,,,,
1512178757.626231,1.425520,0.360884,-2.602128,0.680649,0.142142,-0.124274,0.925730,-0.353101,-0.135440,-0.387628,0.835111,0.184848,36.694275,-12.291435,-30.494972,,,,,,,
1512178757.646220,1.434702,0.352810,-2.618016,0.631703,0.266059,-0.705554,0.929728,-0.345536,-0.127318,-0.343058,0.795609,0.269515,36.692703,-12.666435,-30.270149,,,,,,,
1512178757.666239,1.448739,0.335135,-2.632424,0.422979,0.602984,-1.090119,0.937339,-0.328897,-0.114981,-0.257286,0.795923,0.333685,37.447510,-11.690315,-29.451088,,,,,,,
1512178757.686228,1.465741,0.310079,-2.637615,-0.192549,0.839750,-1.376454,0.947059,-0.305133,-0.099861,-0.181938,0.837345,0.331948,38.125397,-11.089287,-29.081535,,,,,,,
1512178757.706217,1.477284,0.276318,-2.625542,-1.148296,0.672488,-1.803450,0.957863,-0.272815,-0.089834,-0.147591,0.878711,0.251867,39.108459,-9.362816,-28.489037,,,,,,,
1512178757.726237,1.479272,0.229955,-2.594398,-2.078086,0.392359,-2.386100,0.969601,-0.227933,-0.088991,-0.091962,0.874662,0.148637,39.566147,-7.637123,-28.642067,,,,,,,
1512178757.746226,1.474786,0.170900,-2.549254,-2.740899,0.146736,-2.931719,0.980894,-0.170069,-0.094466,-0.019193,0.814234,0.045119,40.109100,-3.661308,-28.494698,,,,,,,
1512178757.766215,1.467749,0.101670,-2.496354,-3.092087,-0.054962,-3.302102,0.989559,-0.101495,-0.102334,0.091557,0.744287,-0.039374,40.573441,-0.435616,-28.872017,,,,,,,
1512178757.786234,1.461896,0.027003,-2.442747,-3.033683,-0.132488,-3.485954,0.993714,-0.027000,-0.108645,0.212173,0.686210,-0.110959,40.068420,3.988625,-28.715523,,,,,,,
1512178757.806224,1.460249,-0.049860,-2.395632,-2.630066,-0.079331,-3.587594,0.992661,0.049839,-0.110186,0.313385,0.627834,-0.140684,39.711502,7.963097,-28.335503,,,,,,,
1512178757.826213,1.464100,-0.125614,-2.359193,-2.016747,0.129799,-3.533206,0.986479,0.125284,-0.105655,0.362947,0.504553,-0.126081,39.054276,11.862099,-27.877953,,,,,,,
1512178757.846202,1.475593,-0.197427,-2.334810,-1.355739,0.539645,-3.386812,0.976134,0.196147,-0.093213,0.343950,0.352528,-0.097949,38.389999,14.186104,-27.346153,,,,,,,
1512178757.866221,1.494863,-0.264394,-2.321281,-0.776483,0.936453,-3.197945,0.962470,0.261325,-0.073225,0.296213,0.165479,-0.098864,37.880264,17.485344,-26.515175,,,,,,,
1512178757.886210,1.518317,-0.326118,-2.314974,-0.442118,1.120252,-2.971785,0.945989,0.320368,-0.049691,0.246562,0.005086,-0.112876,37.216644,19.884346,-25.308327,,,,,,,
1512178757.906198,1.542602,-0.382987,-2.308871,-0.485376,1.037486,-2.744563,0.927184,0.373693,-0.026149,0.212358,-0.114690,-0.125661,36.625702,21.833458,-24.777336,,,,,,,
1512178757.926218,1.565119,-0.435153,-2.295779,-0.831790,0.697860,-2.506639,0.906791,0.421549,-0.005149,0.213921,-0.197916,-0.157983,35.958633,23.482460,-23.720833,,,,,,,
1512178757.946207,1.583745,-0.482703,-2.271541,-1.286232,0.163768,-2.319992,0.885669,0.464175,0.011469,0.235318,-0.208239,-0.208887,34.919815,25.880898,-22.960808,,,,,,,
1512178757.966196,1.598238,-0.526721,-2.236739,-1.626735,-0.292062,-2.185787,0.864135,0.502701,0.023719,0.241670,-0.225998,-0.234016,33.278625,27.753426,-22.195915,,,,,,,
1512178757.986215,1.610540,-0.567540,-2.195572,-1.760528,-0.573500,-2.038393,0.842560,0.537559,0.033504,0.245926,-0.265465,-0.258693,32.088516,29.851646,-21.284767,,,,,,,
1512178758.006204,1.621585,-0.604693,-2.152757,-1.697167,-0.689083,-1.877967,0.821616,0.568509,0.041765,0.240380,-0.334745,-0.270341,30.745911,31.424629,-20.672554,,,,,,,
1512178758.026193,1.631338,-0.637957,-2.112365,-1.506413,-0.720157,-1.681289,0.801842,0.595556,0.048604,0.253608,-0.394246,-0.278066,29.102692,32.847160,-19.907875,,,,,,,
1512178758.046182,1.640051,-0.667658,-2.076047,-1.306426,-0.664620,-1.523622,0.783391,0.619149,0.054341,0.277720,-0.412789,-0.255207,27.534439,34.269814,-19.218849,,,,,,,
1512178758.066202,1.649482,-0.694716,-2.043030,-1.164430,-0.556755,-1.401790,0.765859,0.640167,0.060387,0.344447,-0.391876,-0.229484,26.414001,35.243126,-18.833824,,,,,,,
1512178758.086191,1.659882,-0.720141,-2.012504,-1.026492,-0.458351,-1.356804,0.748732,0.659491,0.066878,0.435533,-0.335989,-0.229583,25.294449,36.366447,-18.073753,,,,,,,
1512178758.106180,1.670810,-0.745306,-1.986018,-0.805932,-0.310636,-1.343503,0.731208,0.678197,0.073375,0.509087,-0.352223,-0.233730,23.724731,37.489098,-17.609840,,,,,,,
1512178758.126199,1.681725,-0.770195,-1.965216,-0.560394,-0.130908,-1.291348,0.713363,0.696275,0.079459,0.589081,-0.408326,-0.237418,23.126816,37.938210,-17.454536,,,,,,,
1512178758.146188,1.691885,-0.793054,-1.950342,-0.346429,-0.003773,-1.137494,0.696535,0.712499,0.084757,0.661894,-0.469625,-0.252131,21.778473,38.236183,-16.842934,,,,,,,
1512178758.166177,1.700151,-0.812640,-1.941122,-0.156732,0.084782,-0.935083,0.681839,0.726105,0.088694,0.733414,-0.540497,-0.270594,20.956619,38.909950,-16.610603,,,,,,,
1512178758.186197,1.706115,-0.827669,-1.937684,0.017608,0.165657,-0.642306,0.670409,0.736356,0.091276,0.829011,-0.532407,-0.263289,19.831680,38.908257,-16.451042,,,,,,,
1512178758.206186,1.706594,-0.835335,-1.941149,0.216981,0.076421,-0.195180,0.664752,0.741521,0.090831,0.900784,-0.496267,-0.267574,19.384460,39.507591,-16.296944,,,,,,,
1512178758.226175,1.698653,-0.834547,-1.952301,0.406699,-0.077990,0.252646,0.666032,0.740992,0.085624,0.951217,-0.436915,-0.251731,19.608643,39.357918,-16.598930,,,,,,,
1512178758.246164,1.681787,-0.825449,-1.970810,0.618061,-0.262244,0.678289,0.674054,0.734852,0.075123,0.941989,-0.363499,-0.213627,19.830902,38.758263,-16.676109,,,,,,,
1512178758.266183,1.656886,-0.807977,-1.996673,0.854647,-0.358917,1.130189,0.688403,0.722891,0.059412,0.814984,-0.428595,-0.160348,20.127869,38.158699,-17.353935,,,,,,,
1512178758.286172,1.628244,-0.780691,-2.029033,1.090760,-0.253774,1.621164,0.709256,0.703770,0.040790,0.638507,-0.514897,-0.098560,20.497513,37.034264,-17.957634,,,,,,,
1512178758.306161,1.601711,-0.744179,-2.065281,1.250730,-0.002216,2.017734,0.735293,0.677368,0.022739,0.487150,-0.456955,-0.048343,21.845078,36.586281,-18.794319,,,,,,,
1512178758.326181,1.581800,-0.701148,-2.101934,1.315379,0.299730,2.249992,0.764056,0.645095,0.008407,0.373441,-0.325668,-0.031082,23.411224,34.713631,-19.633568,,,,,,,
1512178758.346170,1.569388,-0.654898,-2.137128,1.330985,0.538830,2.349125,0.793109,0.609078,-0.001117,0.300442,-0.181985,-0.053021,25.280197,33.441429,-20.250084,,,,,,,
1512178758.366159,1.562600,-0.607399,-2.171220,1.371191,0.695869,2.375842,0.821108,0.570734,-0.006731,0.259276,-0.064935,-0.097685,26.322876,31.867989,-20.709740,,,,,,,
1512178758.386179,1.559117,-0.559408,-2.205376,1.443488,0.754698,2.389884,0.847512,0.530684,-0.009899,0.240211,0.028215,-0.146199,28.338547,29.846016,-21.177895,,,,,,,
1512178758.406168,1.556383,-0.510720,-2.240275,1.530151,0.702407,2.433603,0.872302,0.488805,-0.012573,0.217755,0.088709,-0.168793,29.528610,27.672798,-21.489082,,,,,,,
1512178758.426157,1.552926,-0.461070,-2.275803,1.599769,0.600956,2.473703,0.895434,0.444907,-0.016004,0.177610,0.135767,-0.169528,31.549225,26.700829,-21.506752,,,,,,,
1512178758.446176,1.549991,-0.410445,-2.311183,1.611921,0.582737,2.511126,0.916745,0.399018,-0.019076,0.144825,0.189621,-0.133985,34.603729,22.205437,-22.059959,,,,,,,
1512178758.466165,1.549549,-0.359194,-2.345225,1.515393,0.584652,2.545977,0.935969,0.351520,-0.019890,0.126943,0.265118,-0.110207,35.568787,20.031883,-22.369255,,,,,,,
1512178758.486154,1.551080,-0.307328,-2.374577,1.331454,0.518083,2.578263,0.952960,0.302513,-0.018791,0.101285,0.339485,-0.103859,36.908432,17.708885,-22.156792,,,,,,,
1512178758.506143,1.553492,-0.255157,-2.399309,1.122199,0.407714,2.591905,0.967479,0.252397,-0.016743,0.067739,0.405928,-0.105220,37.650681,15.985008,-22.163963,,,,,,,
1512178758.526163,1.555160,-0.202689,-2.420085,0.965041,0.249342,2.611465,0.979409,0.201304,-0.015316,0.015952,0.454824,-0.114582,38.616653,13.961449,-22.023186,,,,,,,
1512178758.546152,1.555450,-0.150457,-2.438189,0.861980,0.126392,2.583956,0.988586,0.149890,-0.015173,-0.057892,0.492261,-0.109919,38.980179,11.411995,-22.027550,,,,,,,
1512178758.566141,1.554844,-0.099758,-2.454273,0.769826,0.030322,2.478880,0.994902,0.099592,-0.015872,-0.134276,0.528566,-0.101590,39.423004,9.837654,-22.182106,,,,,,,
1512178758.586160,1.553217,-0.052002,-2.468404,0.675644,-0.066682,2.302343,0.998494,0.051979,-0.017555,-0.205983,0.569756,-0.092461,39.788483,7.738213,-22.336266,,,,,,,
1512178758.606149,1.550824,-0.008551,-2.480728,0.599497,-0.114403,2.069742,0.999764,0.008551,-0.019970,-0.266228,0.591867,-0.073963,40.004898,5.863533,-22.639046,,,,,,,
1512178758.626138,1.549007,0.029686,-2.491874,0.548599,-0.073353,1.796234,0.999322,-0.029682,-0.021778,-0.305017,0.624912,-0.057202,39.923630,4.438408,-22.339058,,,,,,,
1512178758.646158,1.548869,0.062074,-2.502272,0.513269,-0.001224,1.485751,0.997834,-0.062034,-0.021883,-0.328538,0.665764,-0.048231,40.367859,3.164070,-22.418480,,,,,,,
1512178758.666147,1.550501,0.087523,-2.512572,0.514964,0.074257,1.127841,0.995967,-0.087412,-0.020216,-0.337154,0.698206,-0.049807,40.439484,2.414177,-22.419456,,,,,,,
1512178758.686136,1.553752,0.105974,-2.523503,0.538783,0.132659,0.786188,0.994246,-0.105775,-0.016948,-0.335936,0.709489,-0.052114,40.209641,1.288841,-21.968071,,,,,,,
1512178758.706125,1.557871,0.118319,-2.534420,0.503807,0.141680,0.514931,0.992926,-0.118044,-0.012834,-0.312582,0.710024,-0.046156,40.283630,1.063942,-21.968803,,,,,,,
1512178758.726144,1.560887,0.125408,-2.543617,0.378168,0.065113,0.243131,0.992098,-0.125080,-0.009831,-0.313921,0.716785,-0.034343,40.129135,0.088722,-22.192986,,,,,,,
1512178758.746133,1.561884,0.126109,-2.550108,0.252765,-0.009161,-0.107546,0.992019,-0.125775,-0.008841,-0.314514,0.706662,-0.007104,40.279648,0.163948,-21.819221,,,,,,,
1512178758.766122,1.562345,0.118800,-2.555000,0.195791,0.024702,-0.529345,0.992916,-0.118521,-0.008391,-0.271434,0.731314,0.031417,40.733704,1.064629,-21.822639,,,,,,,
1512178758.786142,1.565017,0.103172,-2.558933,0.132088,0.178141,-0.925241,0.994665,-0.102989,-0.005748,-0.184897,0.783821,0.069972,40.809799,1.289742,-21.673164,,,,,,,
1512178758.806131,1.570658,0.079382,-2.559465,-0.118034,0.310888,-1.266344,0.996850,-0.079299,-0.000138,-0.125909,0.827941,0.093919,40.887985,1.964851,-21.373497,,,,,,,
1512178758.826120,1.575349,0.046683,-2.552032,-0.579777,0.157125,-1.653086,0.998900,-0.046666,0.004547,-0.142897,0.797811,0.062210,40.819519,3.389748,-21.147209,,,,,,,
1512178758.846139,1.574455,0.006136,-2.535669,-0.954704,-0.150261,-2.076420,0.999974,-0.006136,0.003659,-0.188222,0.629213,0.030063,40.824844,4.589760,-21.296654,,,,,,,
1512178758.866129,1.570764,-0.040949,-2.516044,-1.005189,-0.219042,-2.444113,0.999162,0.040938,-0.000032,-0.179154,0.436479,0.026125,40.537399,7.364326,-21.142815,,,,,,,
1512178758.886118,1.567869,-0.092825,-2.497487,-0.935570,-0.208901,-2.657347,0.995691,0.092692,-0.002914,-0.098718,0.345922,0.050384,39.796585,9.388222,-20.985512,,,,,,,
1512178758.906076,1.565641,-0.146354,-2.479319,-0.965381,-0.231366,-2.659986,0.989296,0.145832,-0.005100,0.021827,0.330105,0.093159,39.281738,11.637444,-20.905006,,,,,,,
1512178758.926095,1.564516,-0.198919,-2.459167,-1.084706,-0.237015,-2.600973,0.980261,0.197610,-0.006157,0.119287,0.338629,0.111290,38.542313,13.961342,-20.672554,,,,,,,
1512178758.946084,1.565385,-0.250867,-2.436400,-1.192563,-0.195545,-2.587466,0.968683,0.248244,-0.005242,0.187414,0.339830,0.093087,37.726883,16.060112,-20.439583,,,,,,,
1512178758.966073,1.568793,-0.302363,-2.411615,-1.254886,-0.177538,-2.556322,0.954634,0.297777,-0.001912,0.218904,0.286543,0.033757,36.687500,18.383553,-20.129585,,,,,,,
1512178758.986093,1.572656,-0.352705,-2.384780,-1.325458,-0.308108,-2.485308,0.938440,0.345437,0.001745,0.201437,0.173178,-0.044546,35.720520,20.107109,-19.595497,,,,,,,
1512178759.006082,1.574838,-0.400746,-2.356549,-1.326771,-0.484630,-2.349485,0.920763,0.390105,0.003721,0.159346,0.028748,-0.087080,34.456467,22.505211,-19.283562,,,,,,,
1512178759.026071,1.575042,-0.445188,-2.329421,-1.207538,-0.596999,-2.150927,0.902521,0.430628,0.003832,0.109243,-0.115229,-0.107897,33.338287,24.003532,-19.123314,,,,,,,
1512178759.046090,1.573703,-0.485231,-2.305306,-1.034487,-0.619635,-1.915033,0.884563,0.466413,0.002571,0.072117,-0.215299,-0.088616,31.995819,25.651512,-18.886070,,,,,,,
1512178759.066079,1.572825,-0.520626,-2.284218,-0.904844,-0.526951,-1.692161,0.867506,0.497423,0.001760,0.047945,-0.256685,-0.053395,30.503052,27.224266,-18.572594,,,,,,,
1512178759.086068,1.574456,-0.552451,-2.265129,-0.809021,-0.352969,-1.546247,0.851235,0.524775,0.003115,0.037223,-0.261912,-0.028109,29.457855,28.272697,-18.413185,,,,,,,
1512178759.106057,1.579518,-0.582208,-2.248311,-0.671584,-0.136071,-1.465677,0.835219,0.549869,0.007285,0.040621,-0.274815,-0.036109,28.862717,29.321800,-18.107597,,,,,,,
1512178759.126077,1.586778,-0.610732,-2.235618,-0.448529,0.053222,-1.407420,0.819124,0.573467,0.013092,0.079680,-0.295162,-0.062012,28.041702,30.145576,-17.575218,,,,,,,
1512178759.146066,1.593520,-0.637191,-2.227857,-0.260938,0.086360,-1.274528,0.803563,0.594940,0.018263,0.129085,-0.327514,-0.095412,26.994461,30.743996,-17.416008,,,,,,,
1512178759.166055,1.597840,-0.660785,-2.221230,-0.292050,-0.074181,-1.141214,0.789222,0.613736,0.021349,0.163857,-0.328489,-0.096925,26.248962,31.717888,-17.184196,,,,,,,
1512178759.186074,1.600623,-0.682769,-2.210635,-0.488983,-0.291397,-1.104312,0.775483,0.630944,0.023137,0.195495,-0.294244,-0.075704,25.351822,32.316536,-16.876259,,,,,,,
1512178759.206063,1.603775,-0.704517,-2.194484,-0.678791,-0.425204,-1.107526,0.761510,0.647666,0.025123,0.256144,-0.281470,-0.054984,24.828537,32.690758,-16.796623,,,,,,,
1512178759.226052,1.608048,-0.725879,-2.174273,-0.784700,-0.495908,-1.089054,0.747397,0.663793,0.027855,0.325128,-0.265325,-0.060691,23.632065,33.438957,-16.486076,,,,,,,
1512178759.246072,1.613029,-0.746812,-2.151960,-0.814842,-0.531233,-1.072554,0.733204,0.679303,0.030984,0.409054,-0.243680,-0.067056,22.886002,34.262840,-16.029335,,,,,,,
1512178759.266061,1.618626,-0.766988,-2.129830,-0.751622,-0.475682,-1.024537,0.719180,0.693970,0.034424,0.477612,-0.243180,-0.065949,21.764191,34.936165,-15.719460,,,,,,,
1512178759.286050,1.624380,-0.785471,-2.110617,-0.598827,-0.365648,-0.911071,0.706040,0.707158,0.037868,0.536254,-0.290960,-0.078960,20.794250,35.984703,-15.035698,,,,,,,
1512178759.306039,1.628766,-0.800794,-2.096457,-0.400523,-0.286691,-0.714969,0.694968,0.717909,0.040332,0.582727,-0.348738,-0.098956,20.420670,36.284142,-14.882362,,,,,,,
1512178759.326058,1.629740,-0.811861,-2.088249,-0.197516,-0.249449,-0.481627,0.686954,0.725569,0.040538,0.611950,-0.400023,-0.113491,19.597122,36.582909,-14.650215,,,,,,,
1512178759.346047,1.628129,-0.818291,-2.086319,0.010586,-0.132124,-0.230878,0.682347,0.729979,0.039164,0.673427,-0.393690,-0.100733,19.147842,36.732231,-14.571312,,,,,,,
1512178759.366036,1.624204,-0.819741,-2.090646,0.192868,-0.023415,0.033324,0.681438,0.730969,0.036429,0.766758,-0.314099,-0.088629,18.923141,36.806892,-14.644371,,,,,,,
1512178759.386056,1.618342,-0.816114,-2.099524,0.315416,0.009367,0.296397,0.684283,0.728489,0.032559,0.851453,-0.185398,-0.075879,18.698105,36.806557,-14.717461,,,,,,,
1512178759.406045,1.608964,-0.806346,-2.112181,0.447035,-0.060564,0.650927,0.691636,0.721763,0.026411,0.830306,-0.187706,-0.076292,18.919800,36.131889,-15.244682,,,,,,,
1512178759.426034,1.595584,-0.787872,-2.129250,0.598018,-0.085839,1.126357,0.705138,0.708854,0.017482,0.709184,-0.320320,-0.068797,19.971008,36.433464,-15.553459,,,,,,,
1512178759.446054,1.581267,-0.759531,-2.149187,0.658489,-0.038614,1.598594,0.725119,0.688581,0.007593,0.565835,-0.340910,-0.055322,21.166840,35.535255,-15.789085,,,,,,,
1512178759.466043,1.569721,-0.723446,-2.167708,0.648058,0.066503,1.913297,0.749529,0.661971,-0.000806,0.469206,-0.254089,-0.045046,22.437195,34.562172,-16.325356,,,,,,,
1512178759.486032,1.561197,-0.681965,-2.185251,0.670575,0.151487,2.167639,0.776300,0.630320,-0.007452,0.387152,-0.171412,-0.060160,23.857025,33.439293,-16.562996,,,,,,,
1512178759.506051,1.554198,-0.635226,-2.202458,0.692064,0.143558,2.416317,0.804826,0.593360,-0.013360,0.308791,-0.089240,-0.096626,25.578049,32.616875,-17.103035,,,,,,,
1512178759.526040,1.546668,-0.584220,-2.218561,0.684654,0.017137,2.601265,0.833900,0.551549,-0.020125,0.218987,0.008494,-0.121904,27.296494,31.194450,-17.418358,,,,,,,
1512178759.546029,1.537536,-0.530854,-2.233699,0.710192,-0.114337,2.661941,0.861898,0.506270,-0.028678,0.117975,0.083025,-0.121530,28.566544,30.146355,-17.879662,,,,,,,
1512178759.566018,1.527441,-0.477412,-2.249221,0.792764,-0.144059,2.631053,0.887352,0.459482,-0.038495,0.032661,0.135107,-0.103152,29.984421,28.648491,-18.642464,,,,,,,
1512178759.586038,1.517992,-0.424657,-2.265741,0.873621,-0.109648,2.577975,0.909910,0.412009,-0.048092,-0.018339,0.201090,-0.083027,31.401733,27.000618,-19.180351,,,,,,,
1512178759.606027,1.509755,-0.372955,-2.282432,0.900227,-0.093465,2.516584,0.929520,0.364369,-0.056810,-0.057069,0.265529,-0.068739,32.593491,25.202400,-19.491371,,,,,,,
1512178759.626016,1.502575,-0.322566,-2.298341,0.872808,-0.098681,2.434084,0.946219,0.317001,-0.064653,-0.090216,0.331406,-0.053588,33.486862,23.778755,-19.949669,,,,,,,
1512178759.646035,1.495955,-0.273976,-2.312462,0.789072,-0.156305,2.336722,0.960008,0.270561,-0.071983,-0.136598,0.377556,-0.034829,34.828537,21.980766,-20.411980,,,,,,,
1512178759.666024,1.489093,-0.228025,-2.324194,0.684881,-0.228799,2.187849,0.970865,0.226054,-0.079500,-0.188791,0.423955,-0.018232,35.646378,20.482002,-21.244682,,,,,,,
1512178759.686013,1.481822,-0.185863,-2.333722,0.591214,-0.288360,1.981599,0.978890,0.184795,-0.087327,-0.262993,0.448551,-0.002700,36.013794,18.832542,-21.548637,,,,,,,
1512178759.706033,1.474936,-0.148578,-2.341948,0.542277,-0.262281,1.717662,0.984442,0.148032,-0.094659,-0.331961,0.443277,0.009652,36.232849,17.557869,-22.001122,,,,,,,
1512178759.726022,1.469752,-0.116764,-2.350013,0.533008,-0.175228,1.443855,0.988125,0.116499,-0.100186,-0.376110,0.430102,0.017148,36.975723,16.058983,-22.758202,,,,,,,
1512178759.746011,1.466546,-0.090090,-2.358254,0.517849,-0.086115,1.204083,0.990537,0.089968,-0.103640,-0.386961,0.430738,0.030672,36.973389,15.533989,-22.683449,,,,,,,
1512178759.766000,1.465173,-0.067451,-2.365958,0.451689,-0.016419,1.016804,0.992166,0.067399,-0.105187,-0.386392,0.449355,0.048562,37.269608,14.709435,-22.836372,,,,,,,
1512178759.786019,1.465090,-0.049210,-2.372068,0.329821,0.022316,0.780640,0.993214,0.049190,-0.105382,-0.376653,0.490972,0.058950,37.938721,13.435432,-23.142693,,,,,,,
1512178759.806008,1.465564,-0.036699,-2.375840,0.178937,0.037609,0.492804,0.993798,0.036691,-0.104968,-0.367135,0.522254,0.066516,37.936966,13.060432,-23.292870,,,,,,,
1512178759.825997,1.466878,-0.030402,-2.377370,0.036725,0.084982,0.198812,0.994146,0.030397,-0.103684,-0.336660,0.540511,0.073532,37.936966,13.060432,-23.292870,,,,,,,
1512178759.846017,1.468684,-0.029790,-2.376324,-0.136076,0.077738,-0.054241,0.994350,0.029786,-0.101890,-0.301936,0.554336,0.067436,37.936584,12.985435,-23.367897,,,,,,,
1512178759.866006,1.469309,-0.034596,-2.371920,-0.334332,-0.013912,-0.319685,0.994259,0.034589,-0.101253,-0.285076,0.559832,0.053447,37.938461,13.360435,-22.992729,,,,,,,
1512178759.885995,1.469017,-0.045795,-2.365266,-0.431226,-0.015547,-0.650509,0.993782,0.045779,-0.101497,-0.239128,0.555738,0.060497,37.941116,13.960442,-23.067451,,,,,,,
1512178759.905995,1.470930,-0.063578,-2.358544,-0.449456,0.144204,-0.958303,0.993007,0.063535,-0.099499,-0.138393,0.608996,0.085766,37.718445,14.485100,-23.140297,,,,,,,
1512178759.925984,1.475959,-0.086767,-2.350896,-0.572177,0.247045,-1.204920,0.991761,0.086658,-0.094339,-0.022477,0.709149,0.100366,37.424362,15.759666,-22.762154,,,,,,,
1512178759.945973,1.481241,-0.115317,-2.339249,-0.826872,0.154255,-1.473314,0.989378,0.115061,-0.088842,-0.001127,0.732046,0.080160,37.053864,16.734108,-22.533516,,,,,,,
1512178759.965962,1.484247,-0.150858,-2.323473,-1.000884,-0.016165,-1.853809,0.984942,0.150286,-0.085460,-0.066836,0.540952,0.032085,36.685837,18.233559,-22.079643,,,,,,,
1512178759.985981,1.486341,-0.193742,-2.307987,-0.899743,-0.018600,-2.170043,0.977793,0.192532,-0.082777,-0.068156,0.274997,0.003126,36.093079,19.807671,-21.773811,,,,,,,
1512178760.005970,1.489305,-0.239565,-2.297775,-0.574249,0.076059,-2.251349,0.968217,0.237280,-0.079076,0.037657,0.129511,0.006643,34.976318,21.605995,-21.463417,,,,,,,
1512178760.025959,1.493305,-0.283450,-2.294664,-0.217238,0.208782,-2.108192,0.957215,0.279669,-0.074325,0.161254,0.087808,0.050689,33.858414,23.179314,-21.453133,,,,,,,
1512178760.045979,1.499452,-0.322485,-2.296479,-0.024226,0.406170,-1.843525,0.946038,0.316924,-0.067609,0.245368,0.069245,0.103101,33.264786,24.528404,-20.847420,,,,,,,
1512178760.065968,1.509341,-0.355617,-2.298558,-0.072632,0.575360,-1.550472,0.935662,0.348169,-0.057574,0.284431,0.083853,0.112109,32.295105,25.726952,-20.988579,,,,,,,
1512178760.085957,1.521354,-0.383592,-2.295628,-0.356103,0.474031,-1.302273,0.926193,0.374254,-0.045831,0.271530,0.075712,0.048394,31.846085,25.876274,-20.384682,,,,,,,
1512178760.105976,1.530771,-0.407820,-2.284424,-0.728258,0.083211,-1.121399,0.917253,0.396609,-0.036733,0.194701,0.002973,-0.039805,31.328064,27.375496,-19.929527,,,,,,,
1512178760.125965,1.533868,-0.429068,-2.265754,-1.000847,-0.423827,-0.971467,0.908734,0.416024,-0.033574,0.104023,-0.108849,-0.102642,30.884354,28.724831,-19.475090,,,,,,,
1512178760.145954,1.529894,-0.447280,-2.243286,-1.088028,-0.815239,-0.810985,0.900872,0.432515,-0.036868,0.018622,-0.192510,-0.102628,29.834244,28.648262,-19.016197,,,,,,,
1512178760.165943,1.521616,-0.462866,-2.220970,-1.019678,-0.938207,-0.695289,0.893694,0.446514,-0.043987,-0.044787,-0.234738,-0.054295,29.163666,29.622261,-18.935005,,,,,,,
1512178760.185963,1.512980,-0.477070,-2.201357,-0.865865,-0.832322,-0.643653,0.886860,0.459178,-0.051332,-0.072071,-0.230480,-0.000212,28.417709,30.521141,-18.928215,,,,,,,
1512178760.205952,1.506481,-0.490523,-2.185917,-0.660247,-0.602385,-0.624951,0.880263,0.471087,-0.056693,-0.082930,-0.218783,0.029501,27.446838,31.419685,-18.769524,,,,,,,
1512178760.225941,1.502737,-0.503607,-2.175646,-0.424570,-0.354215,-0.617474,0.873820,0.482588,-0.059563,-0.077204,-0.230528,0.031396,26.849228,31.943779,-18.689171,,,,,,,
1512178760.245960,1.500711,-0.516140,-2.170373,-0.216824,-0.181944,-0.600002,0.867595,0.493526,-0.060906,-0.078014,-0.260265,0.031136,26.551025,32.318336,-18.461464,,,,,,,
1512178760.265949,1.499780,-0.528056,-2.168866,-0.079557,-0.043990,-0.579417,0.861611,0.503855,-0.061292,-0.077141,-0.301386,0.048444,25.953400,32.842445,-18.456108,,,,,,,
1512178760.285938,1.500843,-0.539102,-2.169468,-0.012998,0.125870,-0.534151,0.856071,0.513365,-0.059983,-0.065208,-0.333418,0.075929,25.502609,32.691765,-18.677361,,,,,,,
1512178760.305958,1.505238,-0.549150,-2.170212,-0.037177,0.280618,-0.482793,0.851136,0.521963,-0.055879,-0.016312,-0.333471,0.082033,25.503357,32.841774,-18.527290,,,,,,,
1512178760.325947,1.512516,-0.558514,-2.169015,-0.145130,0.324209,-0.463952,0.846603,0.529927,-0.049396,0.049225,-0.276936,0.068577,25.054749,33.141090,-18.448326,,,,,,,
1512178760.345936,1.520789,-0.568917,-2.164099,-0.325207,0.224741,-0.538332,0.841432,0.538720,-0.042113,0.121306,-0.214592,0.034209,24.831345,33.440758,-17.921272,,,,,,,
1512178760.365925,1.528999,-0.581100,-2.154487,-0.523348,0.088941,-0.617361,0.835129,0.548944,-0.034927,0.211380,-0.157358,0.013839,24.758911,33.965645,-17.545403,,,,,,,
1512178760.385944,1.537481,-0.594117,-2.140403,-0.675894,-0.017047,-0.616743,0.828184,0.559777,-0.027601,0.306765,-0.106835,-0.009538,24.009583,34.114525,-17.538963,,,,,,,
1512178760.405933,1.545562,-0.605786,-2.124494,-0.684885,-0.077061,-0.527535,0.821793,0.569409,-0.020742,0.373580,-0.105847,-0.045863,23.712540,34.714088,-17.011131,,,,,,,
1512178760.425922,1.552191,-0.615249,-2.109985,-0.573669,-0.103807,-0.420477,0.816488,0.577162,-0.015193,0.407374,-0.113249,-0.080923,22.968643,35.987968,-16.254173,,,,,,,
1512178760.445942,1.556696,-0.622398,-2.099690,-0.387910,-0.088795,-0.306864,0.812402,0.582985,-0.011456,0.452674,-0.113137,-0.102024,22.668839,35.987511,-15.876625,,,,,,,
1512178760.465931,1.558662,-0.627080,-2.093625,-0.196989,-0.104764,-0.183687,0.809684,0.586783,-0.009825,0.523385,-0.054892,-0.105897,22.519211,36.062294,-15.800316,,,,,,,
1512178760.485920,1.557300,-0.629317,-2.091943,-0.017631,-0.135693,-0.072461,0.808356,0.588593,-0.010910,0.589670,0.033584,-0.084167,22.370117,36.287071,-16.023933,,,,,,,
1512178760.505940,1.553747,-0.629860,-2.095180,0.194535,-0.058590,-0.005154,0.807992,0.589031,-0.013777,0.612617,0.099216,-0.047716,22.294662,36.211952,-16.248329,,,,,,,
1512178760.525929,1.549193,-0.628701,-2.104199,0.447768,0.076194,0.095997,0.808603,0.588095,-0.017471,0.534766,0.009012,-0.025406,21.994888,36.286507,-16.470741,,,,,,,
1512178760.545918,1.543094,-0.624044,-2.119662,0.708814,0.160576,0.302624,0.811211,0.584322,-0.022478,0.381081,-0.212999,-0.046263,22.443314,35.987175,-16.924706,,,,,,,
1512178760.565907,1.535257,-0.614020,-2.139871,0.868360,0.192306,0.584352,0.816822,0.576158,-0.029041,0.236889,-0.368654,-0.056011,22.815674,35.462730,-17.453133,,,,,,,
1512178760.585926,1.527645,-0.597896,-2.161301,0.897671,0.234503,0.878092,0.825753,0.562904,-0.035654,0.168846,-0.404274,-0.039450,23.712021,34.714073,-18.061119,,,,,,,
1512178760.605915,1.522401,-0.576865,-2.181472,0.847343,0.323736,1.089818,0.837196,0.545399,-0.040548,0.162087,-0.350635,-0.039545,24.309006,34.114983,-18.666496,,,,,,,
1512178760.625904,1.520587,-0.551011,-2.199693,0.798159,0.412851,1.361260,0.850922,0.523549,-0.042760,0.220321,-0.262974,-0.075312,25.056122,33.516090,-19.048149,,,,,,,
1512178760.645924,1.520079,-0.520016,-2.215661,0.697285,0.303292,1.590754,0.866695,0.496894,-0.043995,0.287495,-0.149100,-0.176632,26.100510,32.317665,-19.507622,,,,,,,
1512178760.665913,1.514805,-0.485750,-2.227308,0.510933,-0.215382,1.746156,0.882939,0.466872,-0.049489,0.336635,-0.046157,-0.320278,27.446869,31.569679,-20.044441,,,,,,,
1512178760.685902,1.498920,-0.447180,-2.234898,0.418548,-0.876201,2.015430,0.899342,0.432425,-0.064753,0.355724,-0.044638,-0.391927,28.416245,30.371132,-20.503273,,,,,,,
1512178760.705921,1.473060,-0.402271,-2.240500,0.424562,-1.338294,2.339056,0.915783,0.391509,-0.089791,0.349354,-0.071746,-0.385337,29.158630,28.797249,-21.560371,,,,,,,
1512178760.725910,1.441008,-0.350445,-2.242959,0.352268,-1.716182,2.697024,0.931321,0.343316,-0.121558,0.332153,-0.056252,-0.354379,30.053268,27.748589,-22.843513,,,,,,,
1512178760.745899,1.402390,-0.293697,-2.239714,0.183445,-2.149453,2.892420,0.943639,0.289492,-0.160434,0.313990,0.076642,-0.319623,30.493271,25.649254,-23.973305,,,,,,,
1512178760.765919,1.357050,-0.235495,-2.230904,0.095959,-2.519285,2.943169,0.950270,0.233324,-0.206268,0.265840,0.182112,-0.286789,30.638199,24.674461,-25.325020,,,,,,,
1512178760.785908,1.306891,-0.178955,-2.219398,0.109301,-2.680347,2.838332,0.949962,0.178001,-0.256687,0.222081,0.244774,-0.255337,30.403488,22.724129,-27.198997,,,,,,,
1512178760.805897,1.253620,-0.125690,-2.206390,0.146838,-2.813525,2.688095,0.942625,0.125360,-0.309424,0.184084,0.283835,-0.250344,30.169006,20.773781,-28.622978,,,,,,,
1512178760.825886,1.197647,-0.075693,-2.192276,0.181028,-2.908268,2.549673,0.928517,0.075621,-0.363506,0.189219,0.308565,-0.245151,29.187698,19.572304,-30.415230,,,,,,,
1512178760.845905,1.138348,-0.027892,-2.177209,0.264405,-3.053243,2.465095,0.907589,0.027888,-0.418932,0.192829,0.333424,-0.219740,28.206360,18.370842,-32.282494,,,,,,,
1512178760.865894,1.076784,0.018169,-2.162562,0.433548,-3.096571,2.354388,0.880292,-0.018168,-0.474084,0.172808,0.374552,-0.163153,27.071869,16.419136,-33.698830,,,,,,,
1512178760.885883,1.014488,0.063972,-2.151092,0.781153,-3.078684,2.221967,0.847473,-0.063929,-0.526975,0.131867,0.413401,-0.099994,25.489594,14.991753,-35.411095,,,,,,,
1512178760.905903,0.953270,0.110988,-2.145133,1.180406,-2.993371,2.063876,0.810297,-0.110760,-0.575458,0.089835,0.420834,-0.035290,23.981186,13.339500,-37.349113,,,,,,,
1512178760.925870,0.895034,0.158080,-2.142959,1.378481,-2.833565,1.890335,0.770502,-0.157422,-0.617693,0.083776,0.421735,0.042437,22.096695,11.386665,-38.759056,,,,,,,
1512178760.945859,0.840812,0.203383,-2.141664,1.397482,-2.623832,1.717571,0.729826,-0.201984,-0.653113,0.090395,0.425876,0.123054,20.212540,9.508842,-40.168983,,,,,,,
1512178760.965879,0.788876,0.244642,-2.138728,1.212808,-2.528698,1.543592,0.688434,-0.242209,-0.683662,0.090344,0.397238,0.156257,18.402145,7.331123,-41.354683,,,,,,,
1512178760.985868,0.737160,0.279901,-2.132979,0.999317,-2.500906,1.367894,0.646028,-0.276260,-0.711567,0.088301,0.383408,0.192158,16.373688,6.653084,-42.162788,,,,,,,
1512178761.005857,0.687049,0.310115,-2.126824,0.926746,-2.332825,1.122233,0.604003,-0.305169,-0.736242,0.075394,0.384880,0.238820,14.266891,5.224922,-42.895592,,,,,,,
1512178761.025846,0.642647,0.337114,-2.123954,1.009123,-2.072605,0.858884,0.565583,-0.330765,-0.755454,0.078720,0.361588,0.276160,12.163437,4.546776,-43.703041,,,,,,,
1512178761.045866,0.604225,0.362944,-2.124547,1.057879,-1.831857,0.694124,0.531114,-0.355028,-0.769333,0.111617,0.323366,0.299911,10.281158,2.968941,-44.062843,,,,,,,
1512178761.065854,0.571107,0.386564,-2.124983,0.914114,-1.549959,0.633320,0.500675,-0.377008,-0.779223,0.132244,0.293069,0.331485,8.777252,2.141685,-44.425468,,,,,,,
1512178761.085843,0.543745,0.404339,-2.122694,0.520697,-1.151914,0.525595,0.475627,-0.393411,-0.786769,0.101903,0.246683,0.345851,6.969894,0.563972,-44.935890,,,,,,,
1512178761.105863,0.523106,0.412330,-2.117774,0.058032,-0.830733,0.348379,0.457704,-0.400745,-0.793669,0.109252,0.185962,0.250685,6.446289,0.863197,-44.856285,,,,,,,
1512178761.125852,0.503971,0.413598,-2.111499,-0.150924,-0.860836,0.282347,0.442188,-0.401907,-0.801836,0.159954,0.189947,0.126909,5.470276,0.636726,-44.848106,,,,,,,
1512178761.145841,0.480891,0.413593,-2.105095,-0.124363,-1.131029,0.275399,0.423567,-0.401902,-0.811829,0.201296,0.203354,0.054230,4.570496,0.710381,-45.065422,,,,,,,
1512178761.165860,0.452166,0.415809,-2.100496,0.085057,-1.429723,0.231551,0.399686,-0.403930,-0.822856,0.197513,0.206802,0.072856,3.445374,0.708687,-45.280861,,,,,,,
1512178761.185849,0.422900,0.421560,-2.098951,0.285080,-1.357776,0.194188,0.374476,-0.409184,-0.832067,0.176244,0.155202,0.157980,1.794693,0.556221,-45.266914,,,,,,,
1512178761.205838,0.399575,0.429474,-2.097675,0.351362,-0.993556,0.265711,0.353697,-0.416392,-0.837565,0.168504,0.071513,0.198695,0.969467,0.479973,-45.034935,,,,,,,
1512178761.225827,0.381187,0.438563,-2.093554,0.316851,-0.750383,0.431298,0.336815,-0.424639,-0.840379,0.158317,0.026324,0.189073,-0.234390,-0.346825,-45.325111,,,,,,,
1512178761.245847,0.362695,0.446607,-2.085503,0.176597,-0.765751,0.531554,0.319996,-0.431908,-0.843243,0.146282,0.042427,0.165661,-0.909027,-0.272835,-45.244347,,,,,,,
1512178761.265836,0.340420,0.452061,-2.075107,0.057572,-0.968958,0.563234,0.300344,-0.436820,-0.847928,0.115107,0.065177,0.145947,-1.810303,-0.574196,-45.086830,,,,,,,
1512178761.285825,0.312259,0.458201,-2.064596,0.216292,-1.259255,0.555993,0.275520,-0.442335,-0.853480,0.071434,0.093489,0.182353,-2.635269,-0.575432,-45.004814,,,,,,,
1512178761.305844,0.282478,0.469784,-2.056826,0.593591,-1.299143,0.495229,0.248540,-0.452694,-0.856327,0.014064,0.115688,0.296650,-3.686249,-0.802010,-44.920998,,,,,,,
1512178761.325833,0.257509,0.487424,-2.051771,0.869445,-0.984607,0.460873,0.225014,-0.468351,-0.854410,-0.028679,0.093412,0.404931,-4.963303,-1.253914,-44.985374,,,,,,,
1512178761.345822,0.239214,0.507228,-2.047142,0.896290,-0.705765,0.463301,0.207107,-0.485756,-0.849204,-0.056548,0.063317,0.445701,-5.941574,-2.005394,-44.752419,,,,,,,
1512178761.365842,0.223676,0.524789,-2.041501,0.702687,-0.590662,0.442770,0.191966,-0.501030,-0.843871,-0.059001,0.066124,0.443480,-6.994232,-2.606972,-44.668785,,,,,,,
1512178761.385831,0.209701,0.535747,-2.035974,0.336102,-0.527930,0.308686,0.179001,-0.510483,-0.841050,-0.085831,0.052430,0.414186,-7.820770,-2.983208,-44.361946,,,,,,,
1512178761.405820,0.197952,0.538852,-2.033138,0.010338,-0.484206,0.088771,0.168794,-0.513151,-0.841537,-0.089815,0.044019,0.355484,-8.799088,-3.734673,-44.204018,,,,,,,
1512178761.425809,0.189316,0.536250,-2.034182,-0.192394,-0.406180,-0.089792,0.161771,-0.510916,-0.844272,-0.060453,0.026678,0.269412,-9.248291,-3.585350,-43.975105,,,,,,,
1512178761.445828,0.181637,0.531067,-2.036815,-0.255357,-0.468101,-0.152748,0.155760,-0.506454,-0.848082,-0.023084,-0.013322,0.154311,-9.695557,-2.986015,-43.896019,,,,,,,
1512178761.465817,0.171336,0.525963,-2.038972,-0.214061,-0.612392,-0.078028,0.147454,-0.502046,-0.852178,0.017310,-0.062850,0.070439,-10.143875,-2.611687,-43.892021,,,,,,,
1512178761.485806,0.158512,0.522936,-2.039775,-0.101907,-0.634757,-0.028511,0.136753,-0.499426,-0.855495,-0.003483,-0.064448,0.045742,-10.743423,-2.537590,-43.661888,,,,,,,
1512178761.505826,0.150092,0.522093,-2.042355,0.009292,-0.361921,-0.163468,0.129608,-0.498696,-0.857032,-0.066971,-0.070305,0.028129,-11.494995,-2.913719,-43.430687,,,,,,,
1512178761.525815,0.148577,0.521534,-2.050365,0.012652,-0.236422,-0.426302,0.128351,-0.498211,-0.857503,-0.055689,-0.061085,-0.037226,-11.644592,-2.838951,-43.279366,,,,,,,
1512178761.545805,0.150372,0.519599,-2.063650,-0.019071,-0.214693,-0.634566,0.130034,-0.496532,-0.858223,-0.025420,-0.042149,-0.070808,-11.647354,-3.438942,-43.429649,,,,,,,
1512178761.565825,0.155031,0.517980,-2.080772,0.068483,-0.158747,-0.769559,0.134155,-0.495126,-0.858401,0.010178,-0.067618,-0.099500,-12.096207,-3.214622,-43.125725,,,,,,,
1512178761.585814,0.160445,0.517339,-2.099930,0.074654,-0.220590,-0.824056,0.138851,-0.494569,-0.857975,0.034870,-0.074904,-0.125041,-12.024170,-3.889519,-42.976662,,,,,,,
1512178761.605803,0.162652,0.513238,-2.119266,-0.217027,-0.465579,-0.861115,0.141072,-0.491001,-0.859661,0.058833,-0.099713,-0.208225,-12.774841,-4.040642,-42.970360,,,,,,,
1512178761.625791,0.154338,0.499751,-2.138258,-0.755749,-1.081545,-0.933962,0.134925,-0.479207,-0.867269,0.050515,-0.147396,-0.288340,-13.145721,-3.141197,-42.816765,,,,,,,
1512178761.645810,0.136769,0.475852,-2.157109,-1.196388,-1.402556,-0.991563,0.121196,-0.458096,-0.880602,0.053807,-0.125949,-0.310911,-14.194489,-2.917763,-42.357735,,,,,,,
1512178761.665799,0.119168,0.448025,-2.176106,-1.249675,-1.208243,-0.983131,0.107153,-0.433186,-0.894912,0.084391,-0.009304,-0.301010,-15.690918,-2.170021,-41.969643,,,,,,,
1512178761.685788,0.104325,0.428017,-2.194677,-0.628577,-1.062214,-0.887277,0.094742,-0.415068,-0.904844,0.057083,0.029097,-0.262880,-16.589798,-1.946358,-41.736900,,,,,,,
1512178761.705808,0.091655,0.425581,-2.213230,0.322899,-0.988316,-0.787950,0.083363,-0.412850,-0.906976,0.005321,0.042870,-0.149680,-17.415359,-2.097603,-41.504951,,,,,,,
1512178761.725797,0.083352,0.437067,-2.232111,0.749345,-0.690734,-0.775408,0.075430,-0.423284,-0.902852,-0.048803,0.036214,0.013722,-18.019196,-2.998512,-41.050270,,,,,,,
1512178761.745786,0.081077,0.449255,-2.250546,0.571966,-0.369555,-0.734216,0.072951,-0.434295,-0.897812,-0.065383,0.014647,0.140106,-18.695511,-3.299522,-40.969673,,,,,,,
1512178761.765805,0.084899,0.454663,-2.266214,0.178640,-0.000849,-0.590452,0.076182,-0.439160,-0.895173,-0.067332,-0.025226,0.167131,-18.701202,-4.574532,-40.895256,,,,,,,
1512178761.785794,0.092897,0.454179,-2.276385,-0.047215,0.283501,-0.326217,0.083360,-0.438724,-0.894747,-0.015763,0.002872,0.101671,-18.475235,-4.349190,-40.972069,,,,,,,
1512178761.805784,0.101107,0.452995,-2.280538,-0.018122,0.321522,-0.084735,0.090754,-0.437660,-0.894549,0.022466,0.056480,0.017763,-18.475983,-4.499199,-41.122139,,,,,,,
1512178761.825804,0.105064,0.453738,-2.281281,0.060830,0.085349,0.029658,0.094260,-0.438328,-0.893859,0.025796,0.103093,-0.002000,-18.475235,-4.349190,-40.972069,,,,,,,
1512178761.845793,0.102343,0.454345,-2.281363,0.004096,-0.267238,0.026543,0.091799,-0.438874,-0.893847,0.016202,0.137696,0.035845,-18.474518,-4.199196,-40.896996,,,,,,,
1512178761.865781,0.092945,0.453082,-2.281342,-0.110087,-0.561150,0.019603,0.083447,-0.437738,-0.895222,0.014224,0.110239,0.107166,-18.850525,-4.424751,-40.893913,,,,,,,
1512178761.885770,0.080090,0.449257,-2.280781,-0.246968,-0.616949,0.043013,0.072065,-0.434297,-0.897883,-0.001402,0.087297,0.186579,-19.375015,-4.350533,-40.514412,,,,,,,
1512178761.905789,0.068613,0.443509,-2.279610,-0.301547,-0.461125,0.061947,0.061926,-0.429112,-0.901126,-0.017569,0.056874,0.221027,-20.199707,-4.276772,-40.582375,,,,,,,
1512178761.925762,0.062506,0.438653,-2.278806,-0.203652,-0.156458,0.023918,0.056551,-0.424721,-0.903556,-0.033648,0.069786,0.222908,-20.122574,-3.826668,-40.357811,,,,,,,
1512178761.945751,0.063468,0.435846,-2.279270,-0.103862,0.171680,0.000922,0.057496,-0.422178,-0.904688,-0.010148,0.058042,0.204432,-20.423920,-4.127113,-40.355400,,,,,,,
1512178761.965771,0.068532,0.434997,-2.278028,-0.015415,0.318950,0.139169,0.062101,-0.421408,-0.904742,0.045687,0.013113,0.128665,-20.198242,-3.976768,-40.357246,,,,,,,
1512178761.985760,0.071679,0.436424,-2.273822,0.105127,0.191787,0.257741,0.064905,-0.422701,-0.903942,0.052725,0.017001,0.074199,-19.971191,-3.526436,-40.283943,,,,,,,
1512178762.005749,0.070260,0.440516,-2.269399,0.230366,-0.064306,0.213888,0.063500,-0.426406,-0.902300,0.021248,0.034835,0.070589,-19.897980,-3.901329,-40.509743,,,,,,,
1512178762.025769,0.065558,0.445823,-2.266650,0.257004,-0.191246,0.143471,0.059108,-0.431201,-0.900318,-0.018840,-0.003217,0.108768,-20.047913,-3.901558,-40.358482,,,,,,,
1512178762.045758,0.062048,0.450231,-2.265344,0.171909,-0.070530,0.073365,0.055829,-0.435173,-0.898614,-0.059293,-0.049415,0.148919,-20.348618,-4.051994,-40.430992,,,,,,,
1512178762.065747,0.063290,0.451623,-2.264530,0.001405,0.184496,0.082444,0.056907,-0.436426,-0.897939,-0.065299,-0.080313,0.121327,-20.424866,-4.352119,-40.205498,,,,,,,
1512178762.085736,0.067291,0.450239,-2.262054,-0.123519,0.293099,0.164165,0.060539,-0.435180,-0.898306,-0.023109,-0.076386,0.025976,-20.202820,-4.951775,-40.732689,,,,,,,
1512178762.105755,0.071127,0.445885,-2.258178,-0.296557,0.283180,0.184010,0.064119,-0.431256,-0.899948,0.009734,-0.031314,-0.028732,-20.197906,-3.901772,-40.357201,,,,,,,
1512178762.125744,0.075103,0.438633,-2.254907,-0.437109,0.296996,0.109528,0.067929,-0.424702,-0.902781,0.033694,-0.005260,-0.073385,-19.974075,-4.126442,-40.659218,,,,,,,
1512178762.145733,0.078327,0.431049,-2.253312,-0.383583,0.173335,0.025656,0.071090,-0.417824,-0.905742,0.044923,-0.018394,-0.102604,-19.746078,-3.451103,-40.735817,,,,,,,
1512178762.165753,0.080811,0.425573,-2.253516,-0.285479,0.184297,-0.040046,0.073522,-0.412843,-0.907830,0.029063,-0.041289,-0.066413,-19.746445,-3.526100,-40.810844,,,,,,,
1512178762.185742,0.088188,0.416956,-2.253954,-0.587459,0.534142,-0.004823,0.080529,-0.404979,-0.910773,0.030143,-0.074452,-0.001749,-19.521454,-3.525764,-40.812752,,,,,,,
1512178762.205731,0.103634,0.398413,-2.250749,-1.152622,1.023257,0.157126,0.095346,-0.387956,-0.916733,0.112662,-0.068953,-0.081665,-18.990479,-2.174965,-41.041603,,,,,,,
1512178762.225750,0.123528,0.373037,-2.241951,-1.331625,1.222342,0.354576,0.114740,-0.364446,-0.924129,0.221121,0.024175,-0.308568,-18.238907,-1.798836,-41.272789,,,,,,,
1512178762.245739,0.140766,0.349592,-2.231303,-1.084725,0.814660,0.361001,0.131815,-0.342514,-0.930220,0.264349,0.118378,-0.455278,-17.108353,-0.522148,-41.656761,,,,,,,
1512178762.265728,0.142657,0.338337,-2.223814,-0.295559,-0.133635,0.297711,0.134113,-0.331919,-0.933726,0.247677,0.124293,-0.421285,-16.579407,0.378654,-41.885826,,,,,,,
1512178762.285717,0.132582,0.340962,-2.217856,0.244149,-0.451200,0.328942,0.124584,-0.334394,-0.934162,0.197773,0.077116,-0.216305,-16.653061,0.678551,-41.885048,,,,,,,
1512178762.305737,0.123002,0.348768,-2.211433,0.351529,-0.266415,0.420692,0.115305,-0.341740,-0.932694,0.151876,0.016240,-0.004165,-17.330383,0.152534,-41.804543,,,,,,,
1512178762.325726,0.118000,0.354289,-2.201449,0.103577,0.046891,0.602615,0.110415,-0.346924,-0.931371,0.146299,-0.013046,0.105840,-17.405396,0.152412,-41.803902,,,,,,,
1512178762.345715,0.116109,0.354439,-2.186447,-0.164971,0.223417,0.799759,0.108647,-0.347064,-0.931527,0.160045,0.004642,0.118630,-17.102875,0.677864,-41.506218,,,,,,,
1512178762.365734,0.113525,0.352135,-2.167659,-0.225895,0.168578,0.936208,0.106330,-0.344903,-0.932596,0.165612,0.045296,0.081095,-17.025620,1.202980,-41.731621,,,,,,,
1512178762.385723,0.107032,0.350944,-2.147501,-0.114716,-0.057786,0.970075,0.100316,-0.343785,-0.933675,0.152186,0.083958,0.077291,-17.098602,1.652870,-41.730766,,,,,,,
1512178762.405712,0.096275,0.352590,-2.128630,0.043527,-0.256153,0.932234,0.090212,-0.345330,-0.934135,0.113584,0.098473,0.137413,-17.323486,1.652534,-41.503853,,,,,,,
1512178762.425732,0.083652,0.356763,-2.110369,0.175451,-0.308189,0.881729,0.078293,-0.349243,-0.933756,0.069992,0.089416,0.227945,-17.472290,1.877312,-41.127480,,,,,,,
1512178762.445721,0.072053,0.362464,-2.093124,0.229437,-0.226848,0.844417,0.067313,-0.354579,-0.932600,0.030893,0.066203,0.298292,-17.545685,2.252205,-41.276665,,,,,,,
1512178762.465710,0.063110,0.367193,-2.076374,0.135180,-0.081657,0.813707,0.058864,-0.358997,-0.931481,0.001180,0.041736,0.323082,-17.693909,2.626991,-41.125221,,,,,,,
1512178762.485699,0.057376,0.369087,-2.060109,0.000445,0.072020,0.781373,0.053483,-0.360764,-0.931122,-0.018068,0.008423,0.292817,-17.769958,2.401863,-41.199684,,,,,,,
1512178762.505718,0.053978,0.369381,-2.044530,-0.033981,0.146826,0.739559,0.050313,-0.361038,-0.931193,-0.006215,-0.009415,0.220652,-17.468918,2.627327,-41.127129,,,,,,,
1512178762.525707,0.052039,0.370094,-2.029882,0.033989,0.199368,0.693823,0.048494,-0.361703,-0.931031,-0.011263,-0.010260,0.144151,-17.392258,3.002434,-41.202599,,,,,,,
1512178762.545696,0.051052,0.373491,-2.016762,0.202497,0.188009,0.623731,0.047512,-0.364868,-0.929846,-0.007458,-0.006898,0.070914,-17.390762,3.302437,-40.902458,,,,,,,
1512178762.565716,0.048807,0.379253,-2.005085,0.263114,0.044020,0.561211,0.045321,-0.370226,-0.927835,-0.028094,-0.041196,0.017328,-17.016556,3.152992,-41.130714,,,,,,,
1512178762.585705,0.043471,0.382928,-1.995206,0.081399,-0.136570,0.452410,0.040310,-0.373638,-0.926698,-0.069729,-0.049717,-0.007689,-17.317490,2.927544,-40.978264,,,,,,,
1512178762.605694,0.036391,0.382622,-1.988409,-0.080953,-0.242219,0.271655,0.033752,-0.373355,-0.927075,-0.109847,-0.049680,-0.047764,-17.766846,3.076866,-41.049370,,,,,,,
1512178762.625714,0.030603,0.380547,-1.985458,-0.111204,-0.192793,0.105087,0.028410,-0.371429,-0.928027,-0.122968,-0.058076,-0.098020,-17.765991,3.226875,-40.674309,,,,,,,
1512178762.645703,0.027905,0.379147,-1.985810,-0.039366,-0.091982,-0.044905,0.025920,-0.370128,-0.928619,-0.120890,-0.050648,-0.166092,-17.994705,2.401527,-40.672783,,,,,,,
1512178762.665692,0.027881,0.379840,-1.990109,0.099456,-0.077477,-0.252859,0.025890,-0.370772,-0.928363,-0.112469,-0.011980,-0.237042,-17.542984,2.777214,-40.601433,,,,,,,
1512178762.685681,0.027468,0.384215,-2.000445,0.314443,-0.296579,-0.564993,0.025463,-0.374832,-0.926743,-0.100719,0.008056,-0.278640,-18.143646,2.626305,-40.596397,,,,,,,
1512178762.705700,0.025119,0.391882,-2.017620,0.433140,-0.497710,-0.855005,0.023212,-0.381928,-0.923900,-0.106998,-0.026962,-0.231999,-18.521622,1.950737,-40.443520,,,,,,,
1512178762.725689,0.022327,0.399477,-2.039772,0.344483,-0.542346,-1.040874,0.020567,-0.388937,-0.921035,-0.113874,-0.096812,-0.151582,-18.898911,1.425179,-40.290581,,,,,,,
1512178762.745678,0.024662,0.400740,-2.062958,-0.121861,-0.140442,-0.991862,0.022705,-0.390099,-0.920493,-0.119538,-0.192939,-0.093866,-19.426910,0.749382,-40.211433,,,,,,,
1512178762.765698,0.036052,0.390289,-2.081821,-0.676279,0.409458,-0.766645,0.033334,-0.380456,-0.924198,-0.058831,-0.185935,-0.180096,-19.202362,0.599724,-39.763405,,,,,,,
1512178762.785687,0.052076,0.374812,-2.095417,-0.724281,0.589508,-0.562031,0.048439,-0.366098,-0.929315,0.049172,-0.023261,-0.357398,-18.450851,0.975853,-40.144615,,,,,,,
1512178762.805676,0.062654,0.365606,-2.106834,-0.189810,0.107460,-0.544239,0.058475,-0.357516,-0.932075,0.110547,0.162249,-0.457711,-18.450851,0.975853,-40.144615,,,,,,,
1512178762.825695,0.061364,0.370354,-2.122929,0.536891,-0.571340,-0.815382,0.057168,-0.361945,-0.930445,0.087638,0.239982,-0.315191,-18.751801,0.750404,-39.992165,,,,,,,
1512178762.845684,0.053963,0.385145,-2.144249,0.910827,-0.804456,-0.940834,0.049985,-0.375694,-0.925395,0.015871,0.169715,-0.049550,-19.281738,-0.375404,-39.763222,,,,,,,
1512178762.865673,0.047916,0.404171,-2.166074,1.020136,-0.599276,-0.901226,0.044038,-0.393256,-0.918374,-0.039186,0.087745,0.189522,-20.187531,-1.726753,-39.156197,,,,,,,
1512178762.885662,0.048916,0.422481,-2.185290,0.897362,-0.142591,-0.738307,0.044597,-0.410024,-0.910984,-0.079860,0.025762,0.321918,-20.341125,-2.551994,-38.930305,,,,,,,
1512178762.905682,0.057504,0.436526,-2.200623,0.619740,0.266825,-0.561806,0.052083,-0.422794,-0.904728,-0.084737,0.004062,0.337330,-19.970215,-3.451439,-39.008904,,,,,,,
1512178762.925637,0.069941,0.444136,-2.212396,0.296802,0.409208,-0.430602,0.063104,-0.429678,-0.900775,-0.064157,0.033636,0.259143,-19.824188,-4.351219,-38.860603,,,,,,,
1512178762.945626,0.080235,0.446795,-2.221665,0.092704,0.258113,-0.343467,0.072281,-0.432077,-0.898935,-0.032349,0.066294,0.173960,-19.750992,-4.726097,-39.086403,,,,,,,
1512178762.965645,0.085257,0.446916,-2.229268,0.007467,0.008990,-0.294400,0.076790,-0.432186,-0.898509,-0.013298,0.098507,0.130610,-19.301102,-4.725426,-39.315239,,,,,,,
1512178762.985634,0.085731,0.446481,-2.235924,0.006703,-0.153450,-0.255530,0.077233,-0.431794,-0.898659,-0.021447,0.108339,0.139901,-19.525650,-4.650764,-39.088295,,,,,,,
1512178763.005623,0.084974,0.446842,-2.241926,0.059611,-0.129916,-0.230161,0.076538,-0.432119,-0.898563,-0.045670,0.102453,0.174472,-19.452377,-5.025658,-39.164101,,,,,,,
1512178763.025643,0.086396,0.447850,-2.247874,0.067174,0.021773,-0.229527,0.077778,-0.433029,-0.898018,-0.061024,0.096924,0.204872,-19.228683,-5.325325,-39.091148,,,,,,,
1512178763.045632,0.090786,0.448372,-2.253477,0.030614,0.156259,-0.204003,0.081700,-0.433499,-0.897443,-0.054738,0.076932,0.190793,-19.305603,-5.775429,-38.865730,,,,,,,
1512178763.065621,0.096367,0.447914,-2.258267,-0.029491,0.195641,-0.177018,0.086726,-0.433086,-0.897170,-0.044810,0.071514,0.153732,-18.706802,-5.999535,-39.245918,,,,,,,
1512178763.085641,0.101320,0.446141,-2.262839,-0.097482,0.134684,-0.194205,0.091247,-0.431487,-0.897493,-0.042785,0.090530,0.108644,-18.559570,-6.599312,-39.397469,,,,,,,
1512178763.105630,0.104207,0.443213,-2.268299,-0.130899,-0.021227,-0.244272,0.093968,-0.428844,-0.898478,-0.037496,0.094860,0.063975,-18.631348,-5.924431,-39.021523,,,,,,,
1512178763.125619,0.104709,0.440310,-2.274798,-0.104477,-0.134306,-0.300784,0.094548,-0.426220,-0.899665,-0.033879,0.074230,0.046683,-18.406723,-5.999092,-39.098473,,,,,,,
1512178763.145608,0.104253,0.438065,-2.282133,-0.061807,-0.170548,-0.303487,0.094238,-0.424188,-0.900657,-0.031997,0.031992,0.026451,-18.183411,-6.373756,-39.100563,,,,,,,
1512178763.165627,0.103724,0.437108,-2.289253,0.012637,-0.154440,-0.292762,0.093804,-0.423321,-0.901110,-0.043770,-0.003955,-0.002317,-18.558334,-6.374321,-38.947380,,,,,,,
1512178763.185616,0.103499,0.437241,-2.296414,0.034914,-0.141599,-0.284930,0.093595,-0.423442,-0.901076,-0.028684,-0.021993,-0.048906,-18.484314,-6.599205,-38.873116,,,,,,,
1512178763.205605,0.103245,0.436190,-2.303208,-0.065491,-0.143908,-0.272531,0.093412,-0.422489,-0.901542,-0.013593,-0.078243,-0.080682,-18.260574,-6.898872,-38.725166,,,,,,,
1512178763.225625,0.101634,0.432010,-2.308040,-0.268915,-0.160475,-0.156139,0.092137,-0.418697,-0.903440,0.015285,-0.132725,-0.095950,-18.259872,-6.748863,-38.650093,,,,,,,
1512178763.245614,0.098009,0.424486,-2.308923,-0.411081,-0.183423,-0.004766,0.089168,-0.411852,-0.906878,0.033269,-0.159223,-0.132978,-18.334381,-6.598976,-39.024376,,,,,,,
1512178763.265603,0.093750,0.416884,-2.308840,-0.353378,-0.192932,-0.013558,0.085596,-0.404913,-0.910340,0.039862,-0.130228,-0.153045,-18.483856,-6.524208,-38.648079,,,,,,,
1512178763.285622,0.090945,0.410806,-2.309600,-0.289077,-0.084919,-0.029310,0.083263,-0.399348,-0.913011,0.031040,-0.150273,-0.121581,-18.333786,-6.523979,-38.499367,,,,,,,
1512178763.305611,0.093025,0.402262,-2.308787,-0.580752,0.300017,0.093601,0.085476,-0.391501,-0.916199,0.049778,-0.206995,-0.084518,-18.631195,-5.924431,-38.721535,,,,,,,
1512178763.325600,0.101349,0.384764,-2.301602,-1.073580,0.689642,0.390579,0.093778,-0.375340,-0.922131,0.170702,-0.138560,-0.194797,-17.350525,-4.647499,-38.881783,,,,,,,
1512178763.345589,0.109413,0.364059,-2.288361,-1.017571,0.562178,0.607354,0.102038,-0.356070,-0.928872,0.282011,0.017630,-0.425575,-17.350525,-4.647499,-38.881783,,,,,,,
1512178763.365609,0.109018,0.352935,-2.274648,-0.337364,-0.002866,0.575799,0.102096,-0.345653,-0.932792,0.339173,0.186809,-0.488427,-16.745544,-3.521599,-39.036354,,,,,,,
1512178763.385598,0.098667,0.356745,-2.266714,0.383898,-0.495958,0.386249,0.092305,-0.349226,-0.932481,0.290950,0.213056,-0.315978,-17.194717,-3.372276,-38.732460,,,,,,,
1512178763.405587,0.086707,0.368963,-2.261061,0.648782,-0.425004,0.358348,0.080770,-0.360649,-0.929198,0.236521,0.144355,-0.036912,-17.347717,-4.047493,-38.656502,,,,,,,
1512178763.425606,0.079096,0.381919,-2.253724,0.556461,-0.099582,0.477541,0.073321,-0.372702,-0.925050,0.217832,0.082862,0.170808,-17.721298,-3.748055,-38.503181,,,,,,,
1512178763.445595,0.077111,0.390440,-2.242349,0.259412,0.252104,0.666355,0.071237,-0.380595,-0.921994,0.204001,0.048976,0.269238,-17.272049,-3.897392,-38.657066,,,,,,,
1512178763.465584,0.077720,0.392776,-2.226117,-0.059157,0.374086,0.855119,0.071729,-0.382755,-0.921061,0.196246,0.060611,0.280879,-17.121704,-3.822166,-38.658302,,,,,,,
1512178763.485604,0.075725,0.390242,-2.206534,-0.258087,0.214429,0.950824,0.069965,-0.380412,-0.922167,0.178540,0.115413,0.261537,-17.121063,-3.672157,-38.733238,,,,,,,
1512178763.505593,0.069680,0.386145,-2.186653,-0.259771,0.019017,0.913873,0.064497,-0.376620,-0.924120,0.139742,0.161548,0.286485,-17.119003,-3.222160,-38.658028,,,,,,,
1512178763.525582,0.062040,0.383552,-2.168458,-0.138055,-0.026577,0.835523,0.057495,-0.374217,-0.925557,0.090576,0.159648,0.357671,-16.815704,-2.471703,-38.810234,,,,,,,
1512178763.545571,0.056400,0.383118,-2.151720,-0.038089,0.102919,0.792650,0.052284,-0.373814,-0.926029,0.044976,0.130711,0.429630,-16.740738,-2.471596,-38.885872,,,,,,,
1512178763.565590,0.054811,0.383380,-2.135716,-0.039536,0.314482,0.761383,0.050806,-0.374057,-0.926013,0.001562,0.100315,0.465396,-16.514389,-2.171257,-38.887657,,,,,,,
1512178763.585579,0.057490,0.382199,-2.120476,-0.149591,0.498124,0.720984,0.053312,-0.372962,-0.926314,-0.031431,0.065558,0.452986,-15.914505,-2.170357,-39.117744,,,,,,,
1512178763.605569,0.062901,0.377527,-2.105325,-0.370072,0.599276,0.713875,0.058433,-0.368623,-0.927741,-0.044715,0.030640,0.384329,-15.614197,-2.094902,-39.195259,,,,,,,
1512178763.625588,0.068743,0.367968,-2.090584,-0.619934,0.525277,0.670555,0.064091,-0.359720,-0.930856,-0.061451,-0.019873,0.253504,-14.935226,-1.193886,-39.350578,,,,,,,
1512178763.645577,0.070093,0.352575,-2.076238,-0.942572,0.174492,0.630546,0.065728,-0.345316,-0.936182,-0.054421,-0.050421,0.092585,-14.931625,-0.368874,-39.575188,,,,,,,
1512178763.665566,0.061464,0.330617,-2.062569,-1.250476,-0.435837,0.589849,0.058099,-0.324627,-0.944056,-0.054849,-0.083393,-0.056051,-14.700394,0.981468,-39.276482,,,,,,,
1512178763.685586,0.040750,0.303265,-2.049278,-1.476917,-1.013011,0.587756,0.038880,-0.298638,-0.953574,-0.084687,-0.104987,-0.152276,-15.146240,1.880806,-39.047249,,,,,,,
1512178763.705575,0.012701,0.272494,-2.037438,-1.586291,-1.303648,0.547850,0.012232,-0.269134,-0.963025,-0.134577,-0.131607,-0.237796,-16.341660,2.854012,-38.661598,,,,,,,
1512178763.725564,-0.016052,0.241778,-2.027618,-1.464634,-1.279824,0.476135,-0.015584,-0.239429,-0.970789,-0.190043,-0.105465,-0.332846,-17.235031,4.277672,-38.203300,,,,,,,
1512178763.745553,-0.040960,0.216806,-2.021798,-1.086804,-1.095093,0.264778,-0.039990,-0.215112,-0.975770,-0.228763,-0.075935,-0.409636,-17.306015,5.102562,-37.602272,,,,,,,
1512178763.765572,-0.060495,0.200293,-2.021445,-0.663943,-0.893051,-0.026890,-0.059249,-0.198957,-0.978216,-0.227342,-0.055819,-0.469538,-18.126663,6.001335,-36.994865,,,,,,,
1512178763.785561,-0.075768,0.192285,-2.028012,-0.282231,-0.779545,-0.413275,-0.074300,-0.191103,-0.978754,-0.209101,-0.055815,-0.485983,-18.200470,6.226219,-36.619118,,,,,,,
1512178763.805550,-0.087717,0.191405,-2.041689,-0.003688,-0.679112,-0.750029,-0.086005,-0.190238,-0.977964,-0.181329,-0.123666,-0.434985,-18.951935,5.850090,-36.162910,,,,,,,
1512178763.825570,-0.094742,0.194682,-2.060724,0.110439,-0.416734,-0.999051,-0.092814,-0.193455,-0.976709,-0.155325,-0.219997,-0.348883,-19.777313,5.773857,-36.230934,,,,,,,
1512178763.845559,-0.094057,0.198034,-2.082880,0.017268,-0.011865,-1.083212,-0.092083,-0.196742,-0.976122,-0.137943,-0.298406,-0.272581,-19.705048,5.173973,-36.306847,,,,,,,
1512178763.865548,-0.083933,0.198634,-2.105230,-0.096046,0.470705,-1.040532,-0.082186,-0.197331,-0.976886,-0.072355,-0.236019,-0.269315,-19.556213,4.874184,-35.933266,,,,,,,
1512178763.885567,-0.065838,0.200123,-2.125828,0.116831,0.811584,-0.939251,-0.064478,-0.198790,-0.977919,0.028696,-0.064958,-0.325578,-19.108795,4.349861,-36.387337,,,,,,,
1512178763.905556,-0.044528,0.211158,-2.144735,0.777978,0.897000,-0.946430,-0.043525,-0.209592,-0.976820,0.078681,0.095197,-0.303423,-18.735001,4.125420,-36.765617,,,,,,,
1512178763.925532,-0.022598,0.237558,-2.166111,1.580442,0.840898,-1.126891,-0.021962,-0.235330,-0.971667,0.068287,0.146905,-0.164166,-17.991440,2.701530,-36.847664,,,,,,,
1512178763.945521,-0.001104,0.275823,-2.190880,2.034553,0.714610,-1.196443,-0.001062,-0.272339,-0.962201,0.053202,0.087692,0.038693,-17.473450,1.202309,-37.377800,,,,,,,
1512178763.965541,0.019294,0.316602,-2.215856,1.988108,0.641704,-1.099295,0.018334,-0.311339,-0.950122,0.021980,0.009002,0.229388,-17.034744,-1.272026,-37.682762,,,,,,,
1512178763.985530,0.038764,0.350294,-2.239221,1.529906,0.580963,-0.984612,0.036401,-0.343174,-0.938566,-0.030572,-0.018292,0.322661,-16.516342,-2.696251,-38.062889,,,,,,,
1512178764.005519,0.058242,0.374384,-2.260721,1.117849,0.631405,-0.883802,0.054177,-0.365700,-0.929155,-0.076745,-0.009712,0.323015,-15.693329,-3.145012,-37.995110,,,,,,,
1512178764.025538,0.080449,0.393780,-2.280818,1.011000,0.838297,-0.794014,0.074212,-0.383682,-0.920478,-0.073739,0.050217,0.239753,-14.875076,-4.643791,-38.002815,,,,,,,
1512178764.045527,0.106543,0.413930,-2.297971,1.130163,1.049554,-0.575141,0.097361,-0.402210,-0.910356,-0.037974,0.084888,0.139253,-14.053299,-5.317558,-38.385139,,,,,,,
1512178764.065516,0.133119,0.437485,-2.309923,1.282581,1.090798,-0.248709,0.120226,-0.423663,-0.897806,-0.006410,0.093386,0.058863,-13.234146,-6.591331,-38.617744,,,,,,,
1512178764.085536,0.154726,0.462660,-2.315964,1.251074,0.856258,0.034658,0.137908,-0.446330,-0.884178,-0.019957,0.124446,0.013893,-12.112137,-7.264641,-38.552620,,,,,,,
1512178764.105525,0.168346,0.485820,-2.318005,1.089062,0.525711,0.145225,0.148165,-0.466934,-0.871791,-0.068331,0.179611,0.022136,-11.441605,-8.238640,-38.708794,,,,,,,
1512178764.125514,0.175409,0.505088,-2.318736,0.859200,0.250787,0.172924,0.152720,-0.483885,-0.861703,-0.081553,0.194502,0.052331,-11.069824,-8.988075,-38.412331,,,,,,,
1512178764.145503,0.177085,0.519686,-2.316721,0.608863,0.092090,0.282811,0.152903,-0.496607,-0.854401,-0.087062,0.178339,0.075593,-10.547302,-9.512291,-38.642036,,,,,,,
1512178764.165523,0.174894,0.530892,-2.311291,0.458939,0.027570,0.385958,0.150053,-0.506303,-0.849200,-0.096495,0.184556,0.091876,-10.775864,-10.337639,-38.340508,,,,,,,
1512178764.185512,0.171304,0.539965,-2.303512,0.338310,0.030444,0.460977,0.146215,-0.514106,-0.845173,-0.095983,0.171378,0.083866,-10.850906,-10.337761,-38.414864,,,,,,,
1512178764.205501,0.165558,0.547100,-2.293707,0.250139,-0.060571,0.502024,0.140748,-0.520212,-0.842359,-0.094895,0.174631,0.048826,-10.550262,-10.187309,-38.492348,,,,,,,
1512178764.225520,0.157485,0.553447,-2.284055,0.252945,-0.176913,0.454750,0.133423,-0.525622,-0.840190,-0.111282,0.164874,0.052104,-10.775681,-10.262642,-38.640465,,,,,,,
1512178764.245509,0.149627,0.560851,-2.276430,0.357965,-0.148789,0.358292,0.126232,-0.531907,-0.837341,-0.127148,0.137559,0.108276,-10.702362,-10.637535,-38.641289,,,,,,,
1512178764.265498,0.146033,0.570127,-2.271210,0.453289,0.055548,0.277234,0.122499,-0.539739,-0.832872,-0.139864,0.081288,0.161424,-10.853378,-10.862755,-38.640114,,,,,,,
1512178764.285518,0.147035,0.579135,-2.267773,0.379035,0.199796,0.196704,0.122616,-0.547300,-0.827906,-0.131207,0.041746,0.158472,-10.631149,-11.462425,-38.792305,,,,,,,
1512178764.305507,0.150038,0.584279,-2.265730,0.134195,0.209204,0.111102,0.124679,-0.551598,-0.824739,-0.085022,0.021767,0.124620,-10.631149,-11.462425,-38.792305,,,,,,,
1512178764.325496,0.151191,0.582368,-2.264005,-0.276549,0.047384,0.057682,0.125788,-0.550003,-0.825635,-0.035853,-0.010650,0.075605,-10.629684,-11.162422,-38.567162,,,,,,,
1512178764.345515,0.147685,0.571088,-2.261633,-0.735524,-0.187173,0.016102,0.123798,-0.540548,-0.832155,0.010677,-0.015269,0.022920,-10.401718,-10.487083,-38.718758,,,,,,,
1512178764.365504,0.140762,0.553585,-2.260480,-0.927046,-0.324006,-0.076695,0.119344,-0.525740,-0.842232,0.025310,-0.017992,-0.010902,-10.923462,-9.737862,-38.938957,,,,,,,
1512178764.385493,0.135412,0.535010,-2.260810,-0.902405,-0.184973,-0.141950,0.116134,-0.509850,-0.852389,0.008301,-0.016121,0.012835,-10.994858,-8.912971,-39.162926,,,,,,,
1512178764.405482,0.137543,0.516622,-2.262009,-0.940030,0.267933,-0.165438,0.119216,-0.493946,-0.861281,-0.009185,-0.023297,0.039046,-10.466934,-8.237175,-39.392082,,,,,,,
1512178764.425502,0.148436,0.495213,-2.262755,-1.140070,0.684231,-0.167953,0.130125,-0.475219,-0.870192,0.060244,0.043121,-0.012758,-10.238297,-7.411827,-39.543617,,,,,,,
1512178764.445491,0.165503,0.472206,-2.263257,-1.103233,0.904384,-0.193306,0.146720,-0.454852,-0.878398,0.176171,0.139682,-0.161809,-9.034775,-6.585030,-39.928429,,,,,,,
1512178764.465480,0.182208,0.454945,-2.265264,-0.652819,0.679772,-0.236599,0.162771,-0.439413,-0.883415,0.273173,0.210089,-0.284203,-8.508163,-6.209236,-40.082726,,,,,,,
1512178764.485499,0.191410,0.446575,-2.269391,-0.242787,0.217862,-0.235466,0.171587,-0.431879,-0.885459,0.288908,0.227579,-0.231560,-8.057297,-5.983559,-40.386436,,,,,,,
1512178764.505488,0.195448,0.443531,-2.274422,-0.059560,0.089957,-0.233255,0.175415,-0.429131,-0.886045,0.235855,0.211022,-0.009157,-8.056137,-5.758568,-40.086342,,,,,,,
1512178764.525477,0.202326,0.440783,-2.278744,-0.151053,0.393050,-0.165299,0.181741,-0.426648,-0.885970,0.202628,0.192364,0.186613,-8.055832,-5.683556,-40.161293,,,,,,,
1512178764.545497,0.214599,0.434841,-2.279756,-0.383194,0.706491,-0.036446,0.193138,-0.421266,-0.886134,0.183083,0.166291,0.257258,-7.604446,-5.382881,-40.089989,,,,,,,
1512178764.565486,0.227443,0.423151,-2.276023,-0.758638,0.691748,0.103043,0.205599,-0.410635,-0.888317,0.175886,0.176718,0.233730,-6.776245,-4.631645,-40.471657,,,,,,,
1512178764.585475,0.235600,0.404672,-2.268624,-1.098409,0.480727,0.140032,0.214573,-0.393717,-0.893837,0.149960,0.201868,0.198128,-6.472610,-3.806190,-40.623817,,,,,,,
1512178764.605464,0.239606,0.382147,-2.260238,-1.206940,0.321440,0.119783,0.220201,-0.372913,-0.901358,0.121412,0.195286,0.173896,-6.168335,-2.830727,-40.850929,,,,,,,
1512178764.625483,0.242644,0.361272,-2.252134,-1.028401,0.309898,0.153246,0.224761,-0.353464,-0.908045,0.099626,0.131663,0.177805,-5.788727,-1.780159,-41.078621,,,,,,,
1512178764.645472,0.246866,0.344899,-2.243896,-0.818270,0.405166,0.215255,0.229976,-0.338102,-0.912578,0.066808,0.085431,0.218639,-5.862442,-1.480278,-41.227837,,,,,,,
1512178764.665462,0.253856,0.331830,-2.235271,-0.704947,0.560121,0.267539,0.237438,-0.325774,-0.915147,0.028279,0.020018,0.262041,-4.957718,-0.428917,-41.235008,,,,,,,
1512178764.685481,0.264064,0.319809,-2.225732,-0.705736,0.724514,0.323535,0.247772,-0.314385,-0.916390,0.005372,-0.042869,0.259591,-4.205505,0.097206,-41.541130,,,,,,,
1512178764.705470,0.275639,0.307366,-2.214413,-0.785800,0.765908,0.397144,0.259406,-0.302549,-0.917154,-0.001624,-0.106509,0.198984,-3.529083,0.398232,-41.396736,,,,,,,
1512178764.725459,0.285936,0.293128,-2.200924,-0.916897,0.674795,0.455693,0.270025,-0.288949,-0.918474,-0.011388,-0.146720,0.114062,-2.625473,1.224586,-41.629005,,,,,,,
1512178764.745479,0.293655,0.276068,-2.186283,-1.090297,0.543199,0.427138,0.278492,-0.272575,-0.920948,-0.019535,-0.178688,0.017628,-2.321198,2.200035,-41.856102,,,,,,,
1512178764.765468,0.297513,0.255815,-2.171818,-1.214279,0.287820,0.369016,0.283604,-0.253034,-0.924955,0.012341,-0.215120,-0.131487,-1.790955,3.325844,-41.485039,,,,,,,
1512178764.785457,0.296472,0.235233,-2.157709,-1.144277,0.018725,0.377623,0.284102,-0.233070,-0.930035,0.029542,-0.255898,-0.277653,-1.712494,4.075951,-41.335335,,,,,,,
1512178764.805446,0.290926,0.218624,-2.144808,-0.863924,-0.199809,0.368132,0.280012,-0.216887,-0.935176,0.006869,-0.279405,-0.370855,-1.632767,5.126076,-41.335487,,,,,,,
1512178764.825465,0.284371,0.207749,-2.135277,-0.542389,-0.212998,0.262939,0.274521,-0.206258,-0.939199,-0.045395,-0.277781,-0.399881,-1.705704,5.575966,-41.259651,,,,,,,
1512178764.845454,0.280629,0.201068,-2.130202,-0.311358,-0.067033,0.095162,0.271380,-0.199716,-0.941523,-0.061953,-0.281364,-0.416127,-1.854553,5.800743,-40.958260,,,,,,,
1512178764.865443,0.281307,0.198207,-2.129866,-0.036808,0.092856,-0.061280,0.272176,-0.196911,-0.941884,-0.025869,-0.273456,-0.484339,-2.004700,5.800514,-41.256996,,,,,,,
1512178764.885463,0.284433,0.201210,-2.134433,0.366625,0.106606,-0.217425,0.274952,-0.199855,-0.940457,0.027264,-0.241978,-0.555469,-1.477631,6.251305,-41.186241,,,,,,,
1512178764.905452,0.288036,0.212176,-2.144503,0.824918,0.066953,-0.343119,0.277700,-0.210587,-0.937302,0.064845,-0.234206,-0.534850,-1.779404,5.875847,-41.333870,,,,,,,
1512178764.925428,0.292292,0.228723,-2.157953,1.020798,0.069489,-0.390374,0.280643,-0.226734,-0.932647,0.061520,-0.260769,-0.448975,-1.712952,4.000954,-41.560371,,,,,,,
1512178764.945447,0.296761,0.244259,-2.171794,0.833396,0.071358,-0.404814,0.283744,-0.241837,-0.927903,0.045648,-0.263671,-0.383559,-1.712952,4.000954,-41.560371,,,,,,,
1512178764.965436,0.302120,0.253357,-2.183717,0.479457,0.159474,-0.398970,0.288046,-0.250655,-0.924230,0.059534,-0.223328,-0.398829,-1.715195,3.475945,-41.335609,,,,,,,
1512178764.985425,0.309000,0.260123,-2.194327,0.538336,0.228887,-0.346709,0.293876,-0.257200,-0.920590,0.127435,-0.122973,-0.508335,-1.793457,2.800835,-41.785286,,,,,,,
1512178765.005414,0.314798,0.275409,-2.205996,1.165480,0.048053,-0.244437,0.297956,-0.271940,-0.915025,0.172945,-0.011202,-0.556579,-1.642029,3.101067,-41.636421,,,,,,,
1512178765.025434,0.315161,0.305242,-2.220392,1.861813,-0.308928,-0.144977,0.295641,-0.300524,-0.906797,0.138548,0.055468,-0.399218,-1.648254,1.751045,-41.937050,,,,,,,
1512178765.045423,0.311429,0.343519,-2.235944,2.098132,-0.474291,-0.067504,0.288517,-0.336803,-0.896282,0.059124,0.097744,-0.124668,-2.255157,0.175148,-41.557671,,,,,,,
1512178765.065412,0.307296,0.382485,-2.249604,1.988683,-0.400970,0.044169,0.280625,-0.373227,-0.884280,-0.014146,0.101773,0.086077,-2.637741,-1.475441,-41.855247,,,,,,,
1512178765.085431,0.305422,0.418766,-2.259689,1.781167,-0.210313,0.160156,0.274713,-0.406633,-0.871311,-0.065454,0.119478,0.180072,-3.094223,-2.976128,-41.327110,,,,,,,
1512178765.105420,0.305782,0.451390,-2.266378,1.568801,-0.077279,0.244960,0.270888,-0.436217,-0.858099,-0.083235,0.159514,0.176764,-3.324173,-4.101463,-41.100731,,,,,,,
1512178765.125409,0.305918,0.482090,-2.270696,1.512070,-0.092472,0.322974,0.266844,-0.463632,-0.844890,-0.064345,0.201425,0.132152,-3.554550,-5.301811,-41.024361,,,,,,,
1512178765.145429,0.304688,0.513344,-2.273642,1.529226,-0.159851,0.378424,0.261328,-0.491093,-0.830984,-0.056128,0.243534,0.116354,-2.884567,-6.425804,-40.955620,,,,,,,
1512178765.165418,0.301215,0.544798,-2.275624,1.511548,-0.238993,0.412005,0.253731,-0.518245,-0.816726,-0.061409,0.269817,0.147445,-3.566284,-7.926826,-40.875587,,,,,,,
1512178765.185407,0.296400,0.575529,-2.275952,1.434703,-0.230705,0.482346,0.245026,-0.544279,-0.802323,-0.067795,0.261015,0.196564,-3.946274,-9.052406,-40.722923,,,,,,,
1512178765.205396,0.290890,0.604194,-2.273120,1.261672,-0.161709,0.570695,0.236029,-0.568099,-0.788387,-0.080725,0.258833,0.229732,-4.023895,-9.652519,-40.572563,,,,,,,
1512178765.225416,0.285035,0.628875,-2.267049,1.014976,-0.071351,0.601549,0.227396,-0.588236,-0.776060,-0.087503,0.267923,0.237364,-4.252045,-10.402855,-40.120995,,,,,,,
1512178765.245405,0.279943,0.649129,-2.259607,0.821611,-0.008550,0.564852,0.220104,-0.604492,-0.765600,-0.076763,0.268357,0.209646,-4.480499,-11.153206,-40.269417,,,,,,,
1512178765.265394,0.274146,0.665992,-2.251287,0.654362,-0.047240,0.555900,0.212872,-0.617840,-0.756940,-0.049954,0.262005,0.181043,-4.859329,-12.053764,-39.816658,,,,,,,
1512178765.285413,0.265963,0.678924,-2.241665,0.431700,-0.129810,0.542790,0.204554,-0.627956,-0.750885,-0.029123,0.257259,0.170777,-5.010635,-12.353996,-39.740517,,,,,,,
1512178765.305402,0.254989,0.687768,-2.230615,0.252635,-0.224070,0.536671,0.194893,-0.634814,-0.747681,-0.019188,0.242206,0.150742,-5.761688,-12.580132,-39.809242,,,,,,,
1512178765.325391,0.242098,0.694212,-2.219120,0.182750,-0.294614,0.504498,0.184254,-0.639780,-0.746144,-0.036610,0.227366,0.151418,-5.989059,-13.105461,-39.807579,,,,,,,
1512178765.345411,0.229005,0.699709,-2.208714,0.160443,-0.309467,0.433761,0.173669,-0.643995,-0.745057,-0.065636,0.200987,0.175721,-6.212250,-12.730797,-39.580498,,,,,,,
1512178765.365400,0.217855,0.703583,-2.200572,0.083420,-0.242071,0.324142,0.164810,-0.646954,-0.744505,-0.104873,0.177441,0.212843,-6.960907,-12.431923,-39.573982,,,,,,,
1512178765.385389,0.211527,0.705213,-2.195173,0.004099,-0.051739,0.165879,0.159873,-0.648196,-0.744501,-0.138496,0.149768,0.248972,-7.486237,-12.507713,-39.569557,,,,,,,
1512178765.405408,0.210724,0.703781,-2.192671,-0.174890,0.082837,0.036894,0.159470,-0.647105,-0.745536,-0.104431,0.125804,0.233451,-6.961838,-12.656929,-39.424080,,,,,,,
1512178765.425397,0.211474,0.696291,-2.193442,-0.484963,-0.049681,-0.172743,0.161042,-0.641377,-0.750134,-0.080842,0.077519,0.188702,-7.185120,-12.282265,-39.346992,,,,,,,
1512178765.445386,0.210659,0.681859,-2.197892,-0.764027,-0.220591,-0.389526,0.162349,-0.630238,-0.759238,-0.029476,0.097721,0.179450,-6.958542,-11.906914,-39.573738,,,,,,,
1512178765.465375,0.211724,0.663236,-2.206162,-0.892362,-0.139282,-0.555278,0.165595,-0.615670,-0.770408,-0.022575,0.065804,0.197089,-7.106552,-11.457146,-39.647255,,,,,,,
1512178765.485395,0.220927,0.638849,-2.216659,-1.296631,0.389167,-0.708542,0.175917,-0.596272,-0.783270,-0.008193,0.060566,0.219855,-6.579834,-11.006355,-40.251503,,,,,,,
1512178765.505384,0.241468,0.601967,-2.224204,-1.966229,1.028988,-0.670176,0.197095,-0.566265,-0.800311,0.133914,0.083126,0.062243,-5.673859,-9.654991,-40.483543,,,,,,,
1512178765.525373,0.263929,0.558409,-2.223901,-2.110941,1.119078,-0.423567,0.221248,-0.529837,-0.818732,0.314015,0.161246,-0.254724,-4.541367,-7.928291,-41.017281,,,,,,,
1512178765.545392,0.277827,0.521959,-2.220570,-1.527960,0.520490,-0.314864,0.237746,-0.498579,-0.833604,0.392411,0.270674,-0.440062,-4.235352,-6.577827,-41.169212,,,,,,,
1512178765.565381,0.280510,0.501585,-2.222325,-0.649242,-0.053837,-0.360633,0.242744,-0.480816,-0.842550,0.327446,0.253216,-0.289575,-3.857239,-5.902260,-41.022087,,,,,,,
1512178765.585370,0.284505,0.491978,-2.227494,-0.338493,0.279823,-0.311260,0.247393,-0.472370,-0.845969,0.213712,0.152653,-0.005243,-3.856232,-5.677269,-41.021980,,,,,,,
1512178765.605390,0.300536,0.481975,-2.230516,-0.539799,0.996104,-0.222134,0.262308,-0.463530,-0.846365,0.174566,0.098052,0.130117,-3.553528,-5.076805,-41.024254,,,,,,,
1512178765.625379,0.324749,0.467244,-2.228958,-0.847426,1.330814,-0.104963,0.284870,-0.450428,-0.846146,0.200207,0.074604,0.087541,-1.977631,-4.849449,-41.262550,,,,,,,
1512178765.645368,0.345742,0.446476,-2.222395,-1.231707,1.065150,-0.022973,0.305675,-0.431790,-0.848599,0.222401,0.092388,-0.013034,-1.447556,-3.723656,-41.266487,,,,,,,
1512178765.665357,0.354760,0.419540,-2.212054,-1.524592,0.424821,-0.005988,0.317241,-0.407341,-0.856406,0.202703,0.112220,-0.049127,-0.618179,-2.747398,-41.273048,,,,,,,
1512178765.685376,0.353550,0.389800,-2.200543,-1.595266,0.095703,-0.002827,0.320258,-0.380003,-0.867774,0.143563,0.077834,0.029288,-0.312851,-1.546944,-41.425041,,,,,,,
1512178765.705365,0.351689,0.361648,-2.189237,-1.422227,0.174916,0.044729,0.322201,-0.353816,-0.878066,0.090977,0.042690,0.084075,-0.309128,-0.721947,-41.424660,,,,,,,
1512178765.725355,0.354093,0.340576,-2.178620,-0.997864,0.375054,0.179501,0.326824,-0.334030,-0.884087,0.079548,-0.018830,0.090905,-0.678177,0.627510,-41.645851,,,,,,,
1512178765.745374,0.359360,0.328659,-2.168333,-0.599030,0.464075,0.304987,0.332852,-0.322774,-0.886017,0.044742,-0.075297,0.111786,0.073288,0.928627,-41.427086,,,,,,,
1512178765.765363,0.365019,0.321708,-2.158377,-0.481300,0.419325,0.339586,0.338653,-0.316188,-0.886194,-0.001694,-0.115666,0.139779,0.301407,1.603981,-41.278694,,,,,,,
1512178765.785352,0.367568,0.313526,-2.147518,-0.650295,0.222472,0.364171,0.341829,-0.308415,-0.887712,-0.023500,-0.163021,0.149462,0.602005,1.754417,-41.431160,,,,,,,
1512178765.805372,0.366375,0.301861,-2.134163,-0.841254,0.122698,0.431414,0.342036,-0.297297,-0.891418,-0.032069,-0.205358,0.143737,1.053772,2.130104,-41.284828,,,,,,,
1512178765.825361,0.364322,0.289357,-2.118850,-0.831705,0.139670,0.499840,0.341503,-0.285336,-0.895522,-0.036465,-0.219105,0.088332,1.133911,3.255226,-41.134941,,,,,,,
1512178765.845350,0.362965,0.279941,-2.103726,-0.637121,0.145246,0.530395,0.341226,-0.276299,-0.898456,-0.023920,-0.212287,0.006473,1.060181,3.555107,-41.284172,,,,,,,
1512178765.865339,0.361105,0.274718,-2.089594,-0.472506,0.070656,0.564502,0.340060,-0.271276,-0.900427,-0.026797,-0.238856,-0.060572,1.435257,3.555672,-41.137352,,,,,,,
1512178765.885358,0.357379,0.271974,-2.075799,-0.384061,-0.038161,0.561139,0.336961,-0.268633,-0.902382,-0.046510,-0.243284,-0.128395,1.662430,4.006020,-40.839058,,,,,,,
1512178765.905347,0.351891,0.268956,-2.063710,-0.336828,-0.147932,0.471895,0.332282,-0.265725,-0.904975,-0.077949,-0.232383,-0.186517,1.588486,4.230904,-40.763329,,,,,,,
1512178765.925300,0.344510,0.264615,-2.053930,-0.426281,-0.310158,0.328246,0.325980,-0.261538,-0.908480,-0.069357,-0.237318,-0.268217,1.437469,4.005684,-40.762154,,,,,,,
1512178765.945320,0.331258,0.254559,-2.044913,-0.752319,-0.695019,0.234769,0.314752,-0.251819,-0.915160,-0.029733,-0.234006,-0.381150,1.139496,4.455238,-40.759392,,,,,,,
1512178765.965309,0.310678,0.239948,-2.035858,-0.825238,-1.011212,0.180374,0.296946,-0.237652,-0.924848,-0.025736,-0.190113,-0.458788,0.468246,5.279228,-40.678276,,,,,,,
1512178765.985298,0.289756,0.230365,-2.030691,-0.280291,-0.928924,0.043573,0.278171,-0.228333,-0.932998,-0.080463,-0.112579,-0.461411,-0.433975,4.752876,-40.370872,,,,,,,
1512178766.005317,0.275987,0.234858,-2.034383,0.589796,-0.583131,-0.209131,0.265016,-0.232705,-0.935743,-0.148393,-0.082312,-0.401949,-1.104477,5.726860,-40.139687,,,,,,,
1512178766.025306,0.273450,0.250928,-2.046815,1.063227,-0.077747,-0.449974,0.261597,-0.248303,-0.932691,-0.183549,-0.122409,-0.303881,-1.633530,4.826073,-40.135643,,,,,,,
1512178766.045295,0.282627,0.266397,-2.063612,0.839568,0.404034,-0.632766,0.269042,-0.263258,-0.926451,-0.143783,-0.157473,-0.303117,-1.712952,3.850960,-40.210442,,,,,,,
1512178766.065284,0.297298,0.274068,-2.081108,0.512826,0.497717,-0.725658,0.282005,-0.270650,-0.920447,0.005578,-0.111949,-0.467004,-1.190948,3.176735,-40.140221,,,,,,,
1512178766.085304,0.307679,0.280270,-2.098681,0.633366,0.090835,-0.685885,0.291030,-0.276615,-0.915852,0.129792,-0.024029,-0.595531,-0.742828,2.727409,-39.844246,,,,,,,
1512178766.105293,0.306955,0.294357,-2.117250,1.150917,-0.522722,-0.617624,0.289161,-0.290124,-0.912258,0.125680,0.057336,-0.514851,-0.744324,2.427406,-40.144402,,,,,,,
1512178766.125282,0.299521,0.318110,-2.138967,1.583015,-0.746319,-0.649453,0.280258,-0.312772,-0.907540,0.014099,0.099164,-0.246955,-1.349579,1.226494,-39.839851,,,,,,,
1512178766.145301,0.294169,0.346922,-2.163337,1.761639,-0.568673,-0.677164,0.272671,-0.340005,-0.900026,-0.054378,0.112191,0.015627,-2.031586,-0.349525,-39.684837,,,,,,,
1512178766.165290,0.295994,0.377334,-2.188279,1.792036,-0.203404,-0.628549,0.271170,-0.368443,-0.889222,-0.083563,0.094990,0.179155,-2.413300,-1.850105,-39.607338,,,,,,,
1512178766.185279,0.304397,0.407728,-2.211469,1.738077,0.080422,-0.510010,0.275148,-0.396525,-0.875820,-0.061327,0.108988,0.236294,-2.268585,-3.049873,-39.384178,,,,,,,
1512178766.205299,0.316223,0.436969,-2.232199,1.637095,0.202885,-0.391645,0.281759,-0.423195,-0.861114,-0.030996,0.136895,0.228988,-1.748199,-4.099098,-39.164116,,,,,,,
1512178766.225288,0.327480,0.465569,-2.250641,1.605288,0.136380,-0.276136,0.287422,-0.448931,-0.846079,-0.008888,0.168795,0.198572,-1.829422,-5.524223,-38.789146,,,,,,,
1512178766.245277,0.335964,0.494136,-2.266645,1.555908,0.017447,-0.132283,0.290243,-0.474271,-0.831159,-0.008169,0.193097,0.207334,-1.309906,-6.723442,-38.944160,,,,,,,
1512178766.265266,0.341269,0.522389,-2.279774,1.489948,-0.080085,-0.015242,0.290047,-0.498952,-0.816652,-0.043037,0.212010,0.237810,-1.391464,-8.223564,-38.569221,,,,,,,
1512178766.285286,0.344597,0.548572,-2.290641,1.293070,-0.106112,0.026586,0.288249,-0.521469,-0.803108,-0.085643,0.218017,0.275169,-1.394394,-8.898567,-38.344536,,,,,,,
1512178766.305275,0.346301,0.569211,-2.298673,0.943983,-0.119521,0.055596,0.285903,-0.538968,-0.792321,-0.098632,0.208371,0.279687,-1.325317,-10.248466,-38.045784,,,,,,,
1512178766.325264,0.346047,0.583320,-2.303018,0.598901,-0.126545,0.100677,0.283095,-0.550798,-0.785162,-0.092528,0.192933,0.250372,-1.477829,-10.848701,-37.669792,,,,,,,
1512178766.345283,0.344115,0.592671,-2.304478,0.378648,-0.098120,0.141294,0.279827,-0.558578,-0.780825,-0.081005,0.203232,0.215975,-1.630524,-11.448921,-37.668785,,,,,,,
1512178766.365272,0.342409,0.599462,-2.303609,0.263070,-0.025719,0.171853,0.277214,-0.564198,-0.777710,-0.058876,0.209935,0.180770,-1.630798,-11.523933,-37.518837,,,,,,,
1512178766.385261,0.340237,0.604014,-2.300674,0.100001,-0.026090,0.234520,0.274664,-0.567951,-0.775881,-0.034857,0.189380,0.147097,-1.631836,-11.748924,-37.593925,,,,,,,
1512178766.405281,0.334639,0.605182,-2.294193,-0.130433,-0.122719,0.304403,0.270099,-0.568912,-0.776779,-0.026675,0.180133,0.135376,-1.406433,-11.673592,-37.445808,,,,,,,
1512178766.425270,0.325420,0.601507,-2.284512,-0.409429,-0.214024,0.345884,0.263593,-0.565885,-0.781212,-0.042310,0.170301,0.120690,-2.004410,-11.224480,-37.440498,,,,,,,
1512178766.445259,0.313642,0.593295,-2.272936,-0.617067,-0.261309,0.328852,0.255799,-0.559096,-0.788656,-0.064378,0.177183,0.120627,-1.778351,-10.999153,-37.367317,,,,,,,
1512178766.465278,0.302927,0.582141,-2.261596,-0.695945,-0.161969,0.268355,0.249179,-0.549814,-0.797254,-0.076739,0.174921,0.142576,-2.226440,-10.549812,-37.588280,,,,,,,
1512178766.485267,0.297457,0.569637,-2.251988,-0.750740,0.109447,0.177890,0.246810,-0.539326,-0.805116,-0.072707,0.141728,0.154314,-1.924194,-10.024361,-37.815590,,,,,,,
1512178766.505256,0.298305,0.555140,-2.244101,-0.805400,0.347775,0.078787,0.249765,-0.527063,-0.812295,-0.017541,0.125268,0.106637,-1.621750,-9.498909,-37.667885,,,,,,,
1512178766.525245,0.304883,0.540183,-2.238951,-0.769124,0.532868,-0.043708,0.257440,-0.514293,-0.818063,0.045630,0.092448,0.055780,-1.242554,-8.523338,-38.045631,,,,,,,
1512178766.545265,0.315068,0.525076,-2.235461,-0.781154,0.638680,-0.085091,0.268136,-0.501279,-0.822692,0.097587,0.036176,0.014816,-0.265106,-7.996880,-37.903679,,,,,,,
1512178766.565254,0.326221,0.508156,-2.231100,-0.939293,0.695002,-0.060536,0.279972,-0.486567,-0.827567,0.134243,0.001857,-0.026086,0.036209,-7.696419,-37.981087,,,,,,,
1512178766.585243,0.338464,0.486867,-2.224027,-1.227402,0.859019,-0.035354,0.293457,-0.467859,-0.833661,0.142121,-0.011557,-0.077624,0.864838,-6.870186,-38.137718,,,,,,,
1512178766.605262,0.353371,0.459511,-2.214359,-1.560679,1.014496,-0.052436,0.310165,-0.443510,-0.840891,0.204346,0.003049,-0.196219,1.845886,-5.518715,-38.220375,,,,,,,
1512178766.625251,0.365852,0.428050,-2.202016,-1.697164,0.761021,0.002274,0.325469,-0.415098,-0.849567,0.295762,0.043317,-0.376461,2.600006,-4.617577,-38.076332,,,,,,,
1512178766.645240,0.369403,0.398660,-2.189108,-1.481877,0.233573,0.044066,0.332745,-0.388183,-0.859415,0.321094,0.091354,-0.461706,3.355408,-3.416451,-38.082161,,,,,,,
1512178766.665260,0.364269,0.376601,-2.179482,-0.999855,-0.205721,0.013278,0.331299,-0.367762,-0.868903,0.275665,0.128076,-0.386636,3.509354,-2.516212,-38.308022,,,,,,,
1512178766.685249,0.358004,0.363258,-2.175008,-0.531767,-0.198460,-0.056672,0.327540,-0.355321,-0.875479,0.217977,0.127554,-0.205652,3.137009,-1.916771,-38.379555,,,,,,,
1512178766.705238,0.356810,0.357954,-2.174730,-0.098487,0.052189,-0.072978,0.327148,-0.350359,-0.877624,0.185380,0.083086,-0.037980,3.213806,-1.541649,-38.155022,,,,,,,
