timestamp(unix),attitude_roll(radians),attitude_pitch(radians),attitude_yaw(radians),rotation_rate_x(radians/s),rotation_rate_y(radians/s),rotation_rate_z(radians/s),gravity_x(G),gravity_y(G),gravity_z(G),user_acc_x(G),user_acc_y(G),user_acc_z(G),magnetic_field_x(microteslas),magnetic_field_y(microteslas),magnetic_field_z(microteslas),latitude(degree),longitude(degree),altitude(meter),speed(m/s),course(degree),timestamp(unix),User Mark
1512178904.723906,-0.064922,0.492637,2.047654,-0.014147,0.114611,0.314391,-0.057162,-0.472951,-0.879232,0.100955,-0.017848,0.004598,-11.500443,-38.838737,-30.998589,,,,,,,
1512178904.743895,-0.066315,0.491024,2.056133,-0.074449,0.132480,0.416990,-0.058437,-0.471529,-0.879912,0.099803,0.008547,0.003325,-11.726608,-39.064064,-31.296791,,,,,,,
1512178904.763884,-0.068245,0.488484,2.066038,-0.105147,0.116310,0.467660,-0.060217,-0.469287,-0.880990,0.107428,0.028079,-0.012763,-12.403671,-39.515083,-31.366264,,,,,,,
1512178904.783904,-0.070795,0.486189,2.076668,-0.067320,0.100280,0.500133,-0.062539,-0.467260,-0.881905,0.128610,0.027746,-0.001563,-12.927246,-39.140877,-31.886620,,,,,,,
1512178904.803893,-0.073923,0.484684,2.088419,-0.036374,0.102342,0.563488,-0.065349,-0.465928,-0.882406,0.137279,0.013200,0.014852,-13.078339,-39.441093,-31.360481,,,,,,,
1512178904.823882,-0.077477,0.482761,2.101848,-0.072863,0.122425,0.644050,-0.068554,-0.464226,-0.883060,0.143703,0.013176,0.027972,-13.825790,-38.842216,-31.653831,,,,,,,
1512178904.843901,-0.081284,0.479227,2.116986,-0.147592,0.136054,0.715506,-0.072048,-0.461093,-0.884422,0.160671,0.022067,0.008384,-13.973434,-38.317436,-31.652321,,,,,,,
1512178904.863890,-0.085801,0.474600,2.133397,-0.168021,0.125191,0.789795,-0.076224,-0.456982,-0.886204,0.163352,0.026776,-0.003735,-14.726959,-39.068565,-31.946281,,,,,,,
1512178904.883879,-0.090882,0.470289,2.151365,-0.126430,0.136880,0.854403,-0.080904,-0.453144,-0.887758,0.168810,0.043003,-0.021864,-15.551178,-38.919807,-31.714211,,,,,,,
1512178904.903868,-0.096795,0.466782,2.170662,-0.085720,0.128291,0.906132,-0.086305,-0.450015,-0.888841,0.162034,0.062274,-0.007064,-15.845474,-37.645241,-31.786079,,,,,,,
1512178904.923888,-0.101831,0.464093,2.190984,-0.012598,0.194575,0.936208,-0.090903,-0.447612,-0.889595,0.163275,0.077739,-0.026542,-16.142426,-36.970695,-31.783211,,,,,,,
1512178904.943877,-0.106441,0.463162,2.211735,0.091803,0.220362,0.942075,-0.095047,-0.446779,-0.889581,0.159683,0.087404,-0.030570,-16.969910,-37.496941,-32.001442,,,,,,,
1512178904.963866,-0.110946,0.464160,2.232559,0.188039,0.226950,0.924301,-0.099004,-0.447672,-0.888700,0.158559,0.079188,-0.002306,-17.190674,-36.597267,-31.624107,,,,,,,
1512178904.983885,-0.115721,0.466367,2.253386,0.226567,0.202461,0.914114,-0.103132,-0.449644,-0.887234,0.153944,0.056425,0.026730,-17.789658,-36.373161,-31.618904,,,,,,,
1512178905.003874,-0.120559,0.467839,2.273815,0.158635,0.213077,0.897178,-0.107344,-0.450959,-0.886066,0.162824,0.032807,0.040699,-18.241058,-36.673851,-31.690224,,,,,,,
1512178905.023844,-0.124559,0.467848,2.293569,0.092867,0.251460,0.878231,-0.110887,-0.450967,-0.885626,0.181123,0.000436,0.016577,-18.462234,-35.849174,-31.462929,,,,,,,
1512178905.043864,-0.128265,0.466806,2.313824,0.059944,0.263050,0.936430,-0.114228,-0.450036,-0.885675,0.190140,-0.031394,-0.017417,-18.910095,-35.399849,-31.233894,,,,,,,
1512178905.063853,-0.132413,0.465485,2.335796,0.077777,0.285346,1.019920,-0.117980,-0.448856,-0.885782,0.177565,-0.023022,-0.034613,-19.886292,-35.626305,-31.600716,,,,,,,
1512178905.083842,-0.135976,0.464730,2.359242,0.115525,0.371844,1.062344,-0.121180,-0.448182,-0.885691,0.143611,0.006318,-0.044500,-20.410614,-35.477104,-31.596184,,,,,,,
1512178905.103831,-0.138143,0.464275,2.382551,0.118336,0.407178,1.023064,-0.123128,-0.447775,-0.885628,0.111409,0.024267,-0.074546,-20.861221,-35.552773,-32.117393,,,,,,,
1512178905.123850,-0.140008,0.463769,2.404214,0.094183,0.360318,0.934069,-0.124811,-0.447322,-0.885621,0.098474,0.027751,-0.091338,-21.227478,-33.678322,-31.513344,,,,,,,
1512178905.143839,-0.142008,0.462309,2.424000,0.023668,0.329338,0.876435,-0.126674,-0.446016,-0.886016,0.095806,0.028902,-0.097352,-21.227890,-33.753319,-31.663368,,,,,,,
1512178905.163828,-0.143257,0.460454,2.443051,0.052740,0.376419,0.862098,-0.127898,-0.444355,-0.886674,0.088180,0.035999,-0.091948,-21.299896,-33.078423,-31.737434,,,,,,,
1512178905.183848,-0.143158,0.460314,2.462373,0.162614,0.460974,0.861852,-0.127820,-0.444229,-0.886748,0.075711,0.043152,-0.079148,-21.376175,-33.378548,-31.586922,,,,,,,
1512178905.203837,-0.141605,0.462091,2.481745,0.230160,0.533752,0.841761,-0.126331,-0.445821,-0.886163,0.064258,0.041234,-0.050178,-21.752335,-33.604103,-31.883827,,,,,,,
1512178905.223826,-0.138167,0.463886,2.500522,0.191185,0.619200,0.818043,-0.123173,-0.447427,-0.885798,0.068302,0.035027,-0.042654,-21.972870,-32.629448,-31.731483,,,,,,,
1512178905.243815,-0.133374,0.465111,2.518970,0.176389,0.659776,0.811571,-0.118853,-0.448522,-0.885834,0.076754,0.030050,-0.048508,-21.521179,-32.253761,-31.735130,,,,,,,
1512178905.263835,-0.128273,0.467027,2.537693,0.239071,0.688688,0.826440,-0.114222,-0.450234,-0.885575,0.058543,0.028054,-0.037536,-21.745209,-32.029091,-31.808113,,,,,,,
1512178905.283824,-0.123360,0.470982,2.556679,0.343783,0.665378,0.810819,-0.109651,-0.453761,-0.884351,0.026536,0.031200,0.001234,-21.893143,-31.579323,-31.731636,,,,,,,
1512178905.303813,-0.117688,0.475809,2.575116,0.332587,0.724174,0.782080,-0.104374,-0.458057,-0.882774,0.001408,0.025425,0.023429,-21.669876,-31.953987,-31.808708,,,,,,,
1512178905.323832,-0.111508,0.480209,2.593364,0.300463,0.727307,0.790151,-0.098691,-0.461964,-0.881390,-0.005816,0.021260,0.027371,-21.517166,-31.353752,-31.809715,,,,,,,
1512178905.343821,-0.105737,0.483732,2.612587,0.243885,0.744177,0.860818,-0.093431,-0.465086,-0.880321,-0.019362,0.032179,0.025936,-21.746216,-32.254097,-31.808220,,,,,,,
1512178905.363810,-0.100457,0.485845,2.633056,0.171525,0.747156,0.917346,-0.088682,-0.466956,-0.879823,-0.038423,0.050162,0.019883,-21.515930,-31.053749,-32.034569,,,,,,,
1512178905.383830,-0.095309,0.486972,2.654716,0.148279,0.770515,0.970393,-0.084102,-0.467952,-0.879743,-0.039784,0.061458,0.000623,-21.891266,-31.129326,-32.031410,,,,,,,
1512178905.403819,-0.091144,0.488663,2.677782,0.204693,0.740560,1.039336,-0.080365,-0.469445,-0.879296,-0.043536,0.073205,-0.000052,-21.514328,-30.678749,-32.184395,,,,,,,
1512178905.423808,-0.087831,0.491368,2.702419,0.240110,0.750127,1.089987,-0.077340,-0.471832,-0.878290,-0.061194,0.081879,0.015771,-22.112640,-30.304649,-32.179131,,,,,,,
1512178905.443797,-0.085323,0.493274,2.727420,0.145036,0.693350,1.099072,-0.075060,-0.473512,-0.877583,-0.067975,0.073778,0.022770,-22.414703,-30.755104,-32.251778,,,,,,,
1512178905.463816,-0.083656,0.492765,2.752473,0.036042,0.671789,1.113408,-0.073618,-0.473064,-0.877947,-0.059836,0.083156,0.001620,-22.185272,-29.779762,-32.178246,,,,,,,
1512178905.483805,-0.082955,0.491439,2.777743,0.017529,0.643942,1.135429,-0.073054,-0.471895,-0.878623,-0.034933,0.078844,-0.005090,-22.482346,-29.105202,-32.400383,,,,,,,
1512178905.503794,-0.082470,0.489503,2.803738,-0.006500,0.635293,1.170232,-0.072703,-0.470188,-0.879567,-0.026799,0.068149,-0.016689,-22.481827,-28.955208,-32.700310,,,,,,,
1512178905.523814,-0.082478,0.488108,2.830457,0.055979,0.640685,1.196745,-0.072764,-0.468955,-0.880219,-0.038381,0.046821,0.012971,-22.855133,-28.580757,-32.696953,,,,,,,
1512178905.543803,-0.080513,0.487719,2.857515,0.081658,0.798807,1.197663,-0.071049,-0.468612,-0.880543,-0.038525,0.040114,0.022571,-22.779617,-28.430656,-32.997520,,,,,,,
1512178905.563792,-0.076258,0.486641,2.884428,0.000552,0.853150,1.206275,-0.067340,-0.467660,-0.881340,-0.018582,0.012902,-0.007469,-22.925674,-27.530861,-33.220833,,,,,,,
1512178905.583811,-0.073022,0.483232,2.912241,-0.120003,0.789804,1.272532,-0.064603,-0.464643,-0.883138,-0.011538,0.003355,-0.023310,-23.074173,-27.156090,-33.594383,,,,,,,
1512178905.603800,-0.071269,0.478019,2.941119,-0.189036,0.752225,1.320443,-0.063227,-0.460021,-0.885654,-0.022497,0.019011,-0.032605,-23.520844,-26.406761,-33.665199,,,,,,,
1512178905.623789,-0.069528,0.472472,2.970369,-0.168850,0.766131,1.325047,-0.061861,-0.455089,-0.888295,-0.028181,0.032191,-0.050716,-23.518326,-25.806755,-34.039925,,,,,,,
1512178905.643778,-0.067322,0.468261,2.999542,-0.085550,0.781229,1.316712,-0.060030,-0.451335,-0.890333,-0.029356,0.039455,-0.060580,-23.963409,-24.682426,-34.335594,,,,,,,
1512178905.663798,-0.065353,0.465996,3.028400,0.002185,0.722655,1.294325,-0.058343,-0.449312,-0.891468,-0.033606,0.033007,-0.050976,-24.261459,-24.232872,-34.482826,,,,,,,
1512178905.683787,-0.064723,0.464324,3.056955,-0.012570,0.647883,1.279991,-0.057830,-0.447818,-0.892252,-0.042054,0.032657,-0.025472,-23.961578,-24.232430,-34.710381,,,,,,,
1512178905.703776,-0.065004,0.461721,3.084864,-0.072984,0.593363,1.256540,-0.058156,-0.445490,-0.893396,-0.043773,0.035166,-0.003165,-24.107300,-23.257637,-34.933647,,,,,,,
1512178905.723795,-0.065911,0.457966,3.112226,-0.117539,0.568754,1.241950,-0.059076,-0.442124,-0.895006,-0.044424,0.027573,0.022051,-24.481064,-22.958199,-35.155327,,,,,,,
1512178905.743784,-0.066386,0.454150,3.138922,-0.102012,0.565650,1.205921,-0.059613,-0.438698,-0.896655,-0.036334,0.027093,0.023089,-24.628510,-22.358421,-35.453773,,,,,,,
1512178905.763773,-0.066189,0.450905,-3.118332,-0.076967,0.589244,1.174381,-0.059530,-0.435780,-0.898082,-0.019953,0.007328,0.033275,-24.553619,-22.358315,-35.679405,,,,,,,
1512178905.783793,-0.066447,0.447603,-3.092877,-0.097008,0.506998,1.157815,-0.059857,-0.432806,-0.899498,-0.009922,-0.010538,0.037498,-24.848938,-21.308754,-35.751366,,,,,,,
1512178905.803782,-0.068782,0.443898,-3.067751,-0.116312,0.387330,1.159253,-0.062067,-0.429463,-0.900949,-0.008108,-0.021999,0.065240,-24.769958,-20.408638,-35.901588,,,,,,,
1512178905.823771,-0.072952,0.439122,-3.042702,-0.187706,0.299638,1.152581,-0.065972,-0.425145,-0.902718,-0.020973,-0.032954,0.080132,-24.917603,-19.883858,-35.900078,,,,,,,
1512178905.843760,-0.078320,0.432594,-3.018596,-0.276557,0.218409,1.106236,-0.071033,-0.419227,-0.905098,-0.025494,-0.027962,0.102837,-25.213669,-18.984306,-36.122108,,,,,,,
1512178905.863780,-0.083394,0.424384,-2.996236,-0.345630,0.214188,1.028466,-0.075908,-0.411759,-0.908126,-0.029012,-0.038329,0.096465,-25.809952,-18.160194,-36.116631,,,,,,,
1512178905.883769,-0.088143,0.415920,-2.975500,-0.322372,0.181219,0.974321,-0.080524,-0.404032,-0.911194,-0.033245,-0.067480,0.074524,-25.581696,-17.409843,-36.343193,,,,,,,
1512178905.903758,-0.093183,0.408863,-2.955812,-0.239487,0.131239,0.923109,-0.085379,-0.397566,-0.913593,-0.029932,-0.087129,0.081989,-26.178650,-16.735741,-36.337776,,,,,,,
1512178905.923777,-0.097881,0.402643,-2.937439,-0.229199,0.147351,0.880667,-0.089909,-0.391851,-0.915625,-0.029705,-0.120218,0.095602,-26.322998,-15.460960,-36.485924,,,,,,,
1512178905.943766,-0.102286,0.395550,-2.919304,-0.294399,0.125878,0.891380,-0.094223,-0.385316,-0.917962,-0.032547,-0.149627,0.073449,-26.847321,-15.311760,-36.481392,,,,,,,
1512178905.963755,-0.107951,0.387502,-2.900887,-0.309592,0.052122,0.903695,-0.099753,-0.377877,-0.920466,-0.045969,-0.139503,0.070796,-26.921646,-15.161858,-36.480675,,,,,,,
1512178905.983744,-0.113186,0.380229,-2.882848,-0.252455,0.107824,0.867403,-0.104878,-0.371133,-0.922638,-0.058559,-0.117408,0.051056,-27.516663,-14.037758,-36.625053,,,,,,,
1512178906.003764,-0.116240,0.374623,-2.866360,-0.176257,0.196786,0.777139,-0.107935,-0.365922,-0.924365,-0.090216,-0.079574,0.009433,-27.737686,-13.138084,-36.772728,,,,,,,
1512178906.023730,-0.116609,0.370663,-2.852024,-0.067456,0.281593,0.647884,-0.108444,-0.362234,-0.925757,-0.067597,-0.067560,-0.016809,-27.585434,-12.612862,-36.998772,,,,,,,
1512178906.043719,-0.118056,0.372692,-2.838504,0.260792,0.172199,0.584032,-0.109697,-0.364124,-0.924868,-0.048781,-0.120236,-0.047712,-27.736115,-12.763084,-36.997566,,,,,,,
1512178906.063738,-0.116854,0.378186,-2.826126,0.346538,0.376391,0.565729,-0.108350,-0.369236,-0.922998,0.002301,-0.100354,-0.083060,-28.108688,-12.238640,-36.919136,,,,,,,
1512178906.083727,-0.112775,0.385234,-2.812371,0.475892,0.533514,0.616122,-0.104288,-0.375776,-0.920824,-0.007483,-0.088991,-0.061949,-27.810135,-12.538200,-37.071815,,,,,,,
1512178906.103716,-0.111334,0.397015,-2.794872,0.824274,0.275029,0.875057,-0.102463,-0.386667,-0.916510,0.021164,-0.012381,-0.085657,-27.513245,-13.212746,-37.224678,,,,,,,
1512178906.123736,-0.117409,0.415935,-2.772873,1.170420,0.068311,0.884684,-0.107152,-0.404045,-0.908441,0.005818,-0.093635,-0.086142,-27.961578,-12.913414,-36.620720,,,,,,,
1512178906.143725,-0.125341,0.438502,-2.752116,1.237241,0.059009,0.774747,-0.113185,-0.424584,-0.898286,0.000316,-0.113304,-0.026397,-28.188904,-13.438759,-36.544044,,,,,,,
1512178906.163714,-0.129676,0.457986,-2.733650,0.920273,0.300134,0.679316,-0.115986,-0.442143,-0.889414,-0.028194,-0.133465,0.005350,-28.190445,-13.813759,-36.244225,,,,,,,
1512178906.183703,-0.125158,0.466070,-2.719246,0.193389,0.706238,0.559325,-0.111517,-0.449379,-0.886353,-0.009256,-0.078819,-0.016265,-28.115219,-13.738655,-36.469826,,,,,,,
1512178906.203722,-0.116343,0.461517,-2.705998,-0.292787,0.713782,0.693030,-0.103936,-0.445307,-0.889325,0.087762,0.007304,-0.128909,-27.889053,-13.438316,-36.846596,,,,,,,
1512178906.223711,-0.112337,0.453078,-2.689455,-0.310722,0.454912,0.862437,-0.100791,-0.437735,-0.893437,0.111151,0.073874,-0.190517,-27.734863,-12.463081,-37.222420,,,,,,,
1512178906.243700,-0.116931,0.447069,-2.669771,-0.133404,0.079001,0.952182,-0.105199,-0.432324,-0.895561,0.099721,0.145642,-0.127404,-27.883972,-12.238304,-37.446037,,,,,,,
1512178906.263720,-0.126019,0.443296,-2.649640,-0.049786,-0.053265,0.916684,-0.113538,-0.428919,-0.896179,0.037778,0.179591,-0.060379,-28.180923,-11.563744,-37.443169,,,,,,,
1512178906.283709,-0.134501,0.440593,-2.631815,-0.017422,0.014380,0.768143,-0.121289,-0.426476,-0.896330,-0.032641,0.188241,-0.034167,-28.628448,-11.039421,-37.214104,,,,,,,
1512178906.303698,-0.137899,0.439725,-2.618637,0.091469,0.166748,0.508001,-0.124385,-0.425690,-0.896279,-0.020177,0.208024,-0.057182,-28.926758,-10.664864,-37.211388,,,,,,,
1512178906.323718,-0.137383,0.442299,-2.610350,0.224925,0.222897,0.304379,-0.123772,-0.428019,-0.895254,0.050652,0.172129,-0.074411,-28.777771,-10.889641,-37.212761,,,,,,,
1512178906.343707,-0.135708,0.446373,-2.604174,0.287373,0.199568,0.265758,-0.122036,-0.431696,-0.893726,0.098995,0.118479,-0.064282,-29.305328,-11.415443,-37.583534,,,,,,,
1512178906.363696,-0.135672,0.451138,-2.596872,0.326651,0.156758,0.338672,-0.121724,-0.435990,-0.891682,0.102864,0.079498,-0.035381,-28.853821,-11.114754,-37.287239,,,,,,,
1512178906.383685,-0.137915,0.456430,-2.586879,0.403157,0.076483,0.479154,-0.123405,-0.440747,-0.889108,0.099632,0.074398,-0.003714,-29.302094,-10.740440,-37.208229,,,,,,,
1512178906.403704,-0.142575,0.462913,-2.574353,0.465797,0.009133,0.556586,-0.127138,-0.446557,-0.885677,0.079881,0.043191,0.047725,-29.528336,-11.040764,-36.981468,,,,,,,
1512178906.423693,-0.148590,0.469523,-2.559740,0.439769,0.037749,0.649054,-0.132023,-0.452461,-0.881957,0.028568,0.043327,0.084258,-29.753296,-11.041115,-36.904549,,,,,,,
1512178906.443682,-0.154999,0.475939,-2.544642,0.430550,-0.009215,0.624238,-0.137222,-0.458174,-0.878207,0.010436,0.052397,0.186587,-30.053680,-11.116554,-36.977043,,,,,,,
1512178906.463702,-0.157396,0.479580,-2.531273,0.163875,0.334539,0.521360,-0.139064,-0.461407,-0.876222,0.000331,0.055462,0.153718,-30.353485,-11.117012,-36.599495,,,,,,,
1512178906.483691,-0.156361,0.478780,-2.522508,-0.043643,0.244799,0.365595,-0.138214,-0.460697,-0.876730,0.041519,0.015842,0.116842,-30.125519,-10.441673,-36.751091,,,,,,,
1512178906.503680,-0.155616,0.476127,-2.514701,-0.077308,0.193410,0.401177,-0.137751,-0.458341,-0.878037,0.070230,-0.022952,0.060837,-30.350189,-10.367012,-36.749138,,,,,,,
1512178906.523669,-0.157530,0.473494,-2.505398,-0.052976,0.090755,0.471529,-0.139620,-0.455999,-0.878960,0.084093,-0.014735,0.042962,-30.274582,-10.216896,-36.899712,,,,,,,
1512178906.543688,-0.161550,0.470939,-2.494997,-0.058934,0.014839,0.506361,-0.143339,-0.453724,-0.879539,0.078000,-0.014828,0.047050,-30.725037,-10.292564,-37.120918,,,,,,,
1512178906.563677,-0.167676,0.466577,-2.484536,-0.200856,-0.092205,0.509262,-0.149053,-0.449832,-0.880588,0.020635,-0.019223,0.123813,-30.871811,-9.617790,-36.744331,,,,,,,
1512178906.583666,-0.172915,0.457264,-2.476666,-0.544334,-0.070071,0.393491,-0.154378,-0.441495,-0.883883,0.021505,0.013547,0.177035,-31.244446,-9.093346,-36.740898,,,,,,,
1512178906.603686,-0.174500,0.439814,-2.473990,-0.979686,0.043886,0.229805,-0.157093,-0.425771,-0.891090,0.016865,-0.047908,0.125602,-31.691483,-8.419014,-36.886772,,,,,,,
1512178906.623675,-0.171496,0.420566,-2.474242,-0.844289,0.162779,0.170348,-0.155785,-0.408277,-0.899467,0.059960,-0.090975,0.037956,-31.613449,-7.743904,-36.887093,,,,,,,
1512178906.643664,-0.169150,0.408338,-2.471535,-0.420452,0.247624,0.266332,-0.154503,-0.397084,-0.904684,0.093453,-0.126963,0.017629,-31.686127,-7.219002,-36.961220,,,,,,,
1512178906.663683,-0.167835,0.406226,-2.466397,0.115432,0.154409,0.282300,-0.153454,-0.395146,-0.905711,0.065533,-0.118679,0.022623,-31.908875,-6.694344,-37.184044,,,,,,,
1512178906.683672,-0.166315,0.410962,-2.460359,0.320023,0.223199,0.226871,-0.151766,-0.399491,-0.904087,0.025209,-0.086410,0.059162,-31.759964,-6.919121,-37.335426,,,,,,,
1512178906.703661,-0.163536,0.417282,-2.456831,0.316219,0.200001,0.067890,-0.148838,-0.405277,-0.901997,-0.009457,-0.094082,0.060444,-31.910858,-7.144341,-37.109261,,,,,,,
1512178906.723650,-0.161078,0.422827,-2.457175,0.218493,0.067708,-0.088562,-0.146258,-0.410340,-0.900128,-0.013318,-0.118270,0.048275,-31.986908,-7.369453,-37.183723,,,,,,,
1512178906.743670,-0.158918,0.426568,-2.460386,0.099031,0.047354,-0.150062,-0.144069,-0.413749,-0.898919,0.010036,-0.121637,0.034799,-31.989349,-7.894463,-37.333961,,,,,,,
1512178906.763659,-0.156359,0.428290,-2.463427,0.020404,0.075975,-0.099931,-0.141657,-0.415315,-0.898580,0.033533,-0.114744,-0.033808,-32.291336,-8.344917,-37.256630,,,,,,,
1512178906.783648,-0.155123,0.428757,-2.465078,-0.006421,0.023451,-0.026943,-0.140516,-0.415740,-0.898563,0.028975,-0.088776,-0.097897,-32.214844,-8.044807,-36.957130,,,,,,,
1512178906.803667,-0.155846,0.429417,-2.465372,0.043970,-0.072697,0.015026,-0.141123,-0.416341,-0.898189,-0.000143,-0.060527,-0.131825,-32.366226,-8.345024,-37.030998,,,,,,,
1512178906.823656,-0.158414,0.431617,-2.466064,0.123101,-0.157866,-0.068342,-0.143285,-0.418340,-0.896918,-0.050197,-0.035487,-0.099054,-32.363037,-7.670021,-36.730690,,,,,,,
1512178906.843645,-0.159439,0.435158,-2.469737,0.155673,-0.068842,-0.229603,-0.143968,-0.421554,-0.895302,-0.082640,-0.048524,-0.054222,-32.515747,-8.270256,-36.729683,,,,,,,
1512178906.863665,-0.156557,0.439024,-2.476695,0.122792,0.059560,-0.361820,-0.141132,-0.425056,-0.894097,-0.086682,-0.084893,-0.023109,-32.819000,-9.020699,-36.502480,,,,,,,
1512178906.883654,-0.149453,0.440439,-2.485755,-0.077887,0.240922,-0.402477,-0.134687,-0.426337,-0.894481,-0.072741,-0.093332,-0.031911,-32.743561,-8.945595,-36.278084,,,,,,,
1512178906.903643,-0.138818,0.436356,-2.495577,-0.370400,0.375011,-0.369999,-0.125407,-0.422640,-0.897579,-0.041463,-0.067030,-0.099735,-32.447037,-9.695152,-36.505989,,,,,,,
1512178906.923632,-0.128349,0.427360,-2.504876,-0.571870,0.288055,-0.311394,-0.116485,-0.414469,-0.902578,-0.042832,-0.026983,-0.143748,-32.445694,-9.395149,-36.505852,,,,,,,
1512178906.943652,-0.120765,0.414289,-2.513665,-0.765309,0.179826,-0.286853,-0.110280,-0.402539,-0.908736,-0.035426,0.054806,-0.138948,-31.995544,-9.319481,-36.884636,,,,,,,
1512178906.963641,-0.113811,0.398152,-2.523404,-0.882159,0.174359,-0.312017,-0.104683,-0.387716,-0.915815,-0.017479,0.125005,-0.161074,-31.468399,-8.793678,-37.338844,,,,,,,
1512178906.983630,-0.106811,0.381355,-2.533250,-0.871879,0.179804,-0.352355,-0.098949,-0.372179,-0.922872,0.000606,0.178102,-0.167674,-31.765671,-8.194130,-37.261024,,,,,,,
1512178907.003649,-0.101905,0.367810,-2.544262,-0.591124,-0.053512,-0.452511,-0.094925,-0.359572,-0.928276,-0.027527,0.187072,-0.117805,-31.539993,-8.043785,-37.262871,,,,,,,
1512178907.023604,-0.102400,0.362908,-2.556541,-0.120703,-0.330333,-0.547933,-0.095563,-0.354995,-0.929971,-0.076464,0.165786,0.001688,-31.917648,-8.644356,-37.184944,,,,,,,
1512178907.043593,-0.104377,0.366535,-2.569753,0.233815,-0.281537,-0.647105,-0.097267,-0.358383,-0.928494,-0.129433,0.110458,0.133221,-32.220917,-9.394814,-36.957756,,,,,,,
1512178907.063582,-0.103005,0.373296,-2.584178,0.251695,-0.116924,-0.688916,-0.095742,-0.364686,-0.926195,-0.160148,0.050676,0.193941,-31.922791,-9.844368,-36.660515,,,,,,,
1512178907.083602,-0.098108,0.377332,-2.598797,0.046459,0.049324,-0.646533,-0.091060,-0.368441,-0.925181,-0.175450,-0.001691,0.188044,-31.999329,-10.219475,-36.360054,,,,,,,
1512178907.103591,-0.090951,0.375990,-2.612159,-0.223804,0.145915,-0.543506,-0.084481,-0.367194,-0.926300,-0.129264,0.010260,0.102096,-31.776459,-10.669136,-36.587166,,,,,,,
1512178907.123580,-0.085315,0.369812,-2.623189,-0.405349,0.040669,-0.400453,-0.079451,-0.361440,-0.929004,-0.077699,0.037283,0.006122,-31.626465,-10.668922,-36.588448,,,,,,,
1512178907.143599,-0.084219,0.361595,-2.630788,-0.441429,-0.135988,-0.225693,-0.078680,-0.353767,-0.932019,-0.074884,0.043098,-0.018299,-31.851501,-10.669258,-36.661522,,,,,,,
1512178907.163588,-0.086884,0.353217,-2.635124,-0.418060,-0.225937,-0.095608,-0.081418,-0.345918,-0.934726,-0.091342,0.074708,0.010211,-32.000793,-10.519478,-36.585182,,,,,,,
1512178907.183577,-0.090968,0.345316,-2.637917,-0.407887,-0.234519,-0.065637,-0.085480,-0.338494,-0.937078,-0.118026,0.095483,0.045003,-32.076279,-10.669594,-36.209618,,,,,,,
1512178907.203597,-0.094630,0.337105,-2.641111,-0.415939,-0.224864,-0.094506,-0.089170,-0.330756,-0.939494,-0.129107,0.098883,0.071559,-32.152298,-10.894707,-36.209084,,,,,,,
1512178907.223586,-0.097299,0.329319,-2.645504,-0.396544,-0.163801,-0.168637,-0.091925,-0.323399,-0.941787,-0.124338,0.093205,0.086059,-32.374146,-10.220039,-35.981865,,,,,,,
1512178907.243575,-0.099023,0.322864,-2.651189,-0.298387,-0.168856,-0.238659,-0.093753,-0.317284,-0.943685,-0.115689,0.081978,0.088552,-32.001236,-10.669487,-36.135262,,,,,,,
1512178907.263564,-0.100561,0.318212,-2.658502,-0.247833,-0.176072,-0.330698,-0.095351,-0.312869,-0.944998,-0.099839,0.066318,0.098593,-32.225830,-10.594810,-35.983315,,,,,,,
1512178907.283583,-0.101454,0.314250,-2.667787,-0.221853,-0.166245,-0.418770,-0.096321,-0.309104,-0.946138,-0.080971,0.023734,0.110674,-32.527100,-10.895271,-35.830894,,,,,,,
1512178907.303572,-0.101175,0.311840,-2.678128,-0.127364,-0.107272,-0.456639,-0.096131,-0.306810,-0.946904,-0.060714,-0.021544,0.130711,-32.227661,-11.044823,-35.608513,,,,,,,
1512178907.323561,-0.099136,0.311494,-2.688179,-0.027567,-0.004635,-0.427121,-0.094211,-0.306482,-0.947203,-0.038845,-0.053840,0.138884,-32.078674,-11.269600,-35.609901,,,,,,,
1512178907.343581,-0.096128,0.312158,-2.697023,0.000245,0.031611,-0.365823,-0.091341,-0.307113,-0.947280,-0.028288,-0.083665,0.122573,-31.555740,-11.718819,-35.689568,,,,,,,
1512178907.363570,-0.093790,0.312754,-2.704093,0.002848,0.010050,-0.266720,-0.089109,-0.307680,-0.947308,-0.031267,-0.110640,0.109387,-31.482727,-12.168709,-35.615410,,,,,,,
1512178907.383559,-0.092892,0.312861,-2.709058,-0.030827,-0.041477,-0.167180,-0.088256,-0.307782,-0.947355,-0.047425,-0.121479,0.090665,-31.783401,-12.319160,-35.612938,,,,,,,
1512178907.403548,-0.093401,0.311703,-2.712259,-0.096291,-0.074859,-0.076558,-0.088771,-0.306680,-0.947664,-0.050267,-0.128592,0.056337,-31.483932,-12.468712,-35.315544,,,,,,,
1512178907.423568,-0.094890,0.308883,-2.713309,-0.179276,-0.086973,0.041594,-0.090263,-0.303995,-0.948388,-0.066978,-0.134070,0.004647,-31.787155,-13.144157,-35.688316,,,,,,,
1512178907.443557,-0.096716,0.304687,-2.712457,-0.243403,-0.025265,0.119770,-0.092118,-0.299994,-0.949483,-0.053344,-0.084024,-0.033458,-31.635086,-12.693932,-35.614372,,,,,,,
1512178907.463546,-0.096644,0.299733,-2.710472,-0.282466,0.105961,0.166563,-0.092191,-0.295265,-0.950957,-0.033160,-0.047341,-0.089326,-31.331451,-11.868477,-35.766548,,,,,,,
1512178907.483565,-0.094936,0.294160,-2.707730,-0.285168,0.147551,0.203984,-0.090722,-0.289936,-0.952736,-0.013343,-0.028316,-0.156593,-30.957382,-12.092918,-35.619835,,,,,,,
1512178907.503554,-0.094105,0.289047,-2.704143,-0.206752,0.071782,0.229378,-0.090068,-0.285039,-0.954275,-0.009770,0.014928,-0.178782,-30.957718,-12.167915,-35.619881,,,,,,,
1512178907.523543,-0.094623,0.286194,-2.701147,-0.078775,0.017635,0.158550,-0.090639,-0.282303,-0.955034,-0.043150,0.015686,-0.126189,-31.256454,-11.868370,-35.767189,,,,,,,
1512178907.543563,-0.093790,0.285088,-2.699685,-0.055098,0.127840,0.085718,-0.089872,-0.281242,-0.955419,-0.065355,-0.012200,-0.046061,-30.581528,-11.867348,-35.922920,,,,,,,
1512178907.563552,-0.087831,0.279988,-2.698891,-0.421151,0.436983,0.125200,-0.084302,-0.276344,-0.957354,-0.065844,-0.047813,-0.056013,-30.430511,-11.642128,-35.924095,,,,,,,
1512178907.583541,-0.077397,0.262530,-2.696350,-1.132842,0.603255,0.300962,-0.074670,-0.259525,-0.962845,0.005136,-0.003537,-0.238159,-29.904160,-11.266335,-36.603386,,,,,,,
1512178907.603530,-0.070673,0.232827,-2.690196,-1.582414,0.236805,0.523442,-0.068709,-0.230729,-0.970589,0.070875,0.082948,-0.429329,-29.524277,-10.140755,-36.981056,,,,,,,
1512178907.623549,-0.074820,0.200735,-2.681805,-1.510501,-0.270503,0.533378,-0.073250,-0.199390,-0.977179,0.071586,0.196750,-0.400171,-29.442719,-8.640648,-37.355980,,,,,,,
1512178907.643538,-0.083884,0.174933,-2.676487,-1.055583,-0.471202,0.282350,-0.082507,-0.174042,-0.981276,0.046847,0.255844,-0.235018,-29.662659,-7.515968,-37.353554,,,,,,,
1512178907.663527,-0.095267,0.163838,-2.678351,-0.234668,-0.632469,-0.181782,-0.093849,-0.163106,-0.982135,0.034340,0.204610,-0.044858,-30.031769,-6.241524,-37.049782,,,,,,,
1512178907.683547,-0.105496,0.168853,-2.686235,0.428931,-0.478142,-0.463729,-0.103803,-0.168052,-0.980298,0.066877,0.081947,0.138333,-30.485413,-7.067207,-36.896339,,,,,,,
1512178907.703536,-0.109904,0.182404,-2.695938,0.697504,-0.194567,-0.510022,-0.107864,-0.181394,-0.977477,0.095641,-0.010454,0.261672,-30.262924,-7.666878,-36.523537,,,,,,,
1512178907.723525,-0.108740,0.196731,-2.703975,0.623002,0.096671,-0.373631,-0.106433,-0.195464,-0.974918,0.091693,-0.085313,0.299137,-30.340515,-8.266991,-36.298164,,,,,,,
1512178907.743544,-0.103626,0.206815,-2.708403,0.388047,0.266771,-0.146176,-0.101237,-0.205344,-0.973440,0.102778,-0.094583,0.253561,-30.116898,-8.566658,-36.375221,,,,,,,
1512178907.763533,-0.097838,0.211815,-2.708442,0.181510,0.302300,0.098285,-0.095499,-0.210235,-0.972975,0.091013,-0.083909,0.185790,-29.745346,-9.316093,-36.528755,,,,,,,
1512178907.783522,-0.093769,0.213565,-2.704311,0.081161,0.204542,0.294772,-0.091505,-0.211945,-0.972988,0.065259,-0.058822,0.110470,-29.294067,-9.015419,-36.682442,,,,,,,
1512178907.803511,-0.093964,0.214096,-2.697428,0.045178,-0.006151,0.397993,-0.091683,-0.212464,-0.972858,0.035455,-0.033919,0.108921,-29.220230,-9.240303,-36.983177,,,,,,,
1512178907.823531,-0.096947,0.213006,-2.689259,-0.052849,-0.060894,0.457148,-0.094608,-0.211399,-0.972810,0.008228,-0.026058,0.135942,-29.067078,-8.565086,-36.759148,,,,,,,
1512178907.843520,-0.099369,0.209822,-2.680422,-0.145004,0.017950,0.490203,-0.097030,-0.208286,-0.973243,-0.009919,-0.004758,0.125602,-29.141739,-8.490196,-36.758476,,,,,,,
1512178907.863509,-0.099267,0.205708,-2.671658,-0.153051,0.146166,0.467078,-0.097015,-0.204261,-0.974097,-0.019837,0.030402,0.071311,-29.215164,-8.115303,-36.982658,,,,,,,
1512178907.883528,-0.097875,0.202666,-2.664049,-0.084642,0.144284,0.391307,-0.095719,-0.201282,-0.974845,-0.012069,0.045871,0.021080,-28.988144,-7.664955,-36.984367,,,,,,,
1512178907.903517,-0.097807,0.201412,-2.658232,0.002388,0.026063,0.279152,-0.095677,-0.200053,-0.975102,-0.019298,0.050761,0.012959,-28.836609,-7.289726,-37.285469,,,,,,,
1512178907.923507,-0.099324,0.202342,-2.654956,0.101797,-0.064281,0.129966,-0.097138,-0.200965,-0.974770,-0.008773,0.041602,0.041497,-28.758163,-6.539619,-37.135750,,,,,,,
1512178907.943496,-0.101044,0.205062,-2.654288,0.160209,-0.068238,0.013531,-0.098758,-0.203628,-0.974055,-0.004391,-0.012681,0.068995,-28.534622,-6.839272,-37.362801,,,,,,,
1512178907.963515,-0.101800,0.209106,-2.654892,0.227055,-0.016774,-0.029028,-0.099411,-0.207585,-0.973153,0.003723,-0.054408,0.092980,-28.159836,-6.913719,-37.141029,,,,,,,
1512178907.983504,-0.101817,0.214282,-2.655883,0.260381,-0.000671,-0.045548,-0.099317,-0.212646,-0.972069,-0.013904,-0.090165,0.107643,-28.388367,-7.664055,-37.439461,,,,,,,
1512178908.003493,-0.101262,0.218722,-2.657594,0.191014,0.044074,-0.038935,-0.098681,-0.216982,-0.971175,-0.022398,-0.098249,0.095153,-28.161835,-7.363716,-37.066246,,,,,,,
1512178908.023506,-0.100215,0.221912,-2.658812,0.135863,0.036552,-0.055748,-0.097594,-0.220095,-0.970584,-0.046251,-0.094510,0.037463,-28.086609,-7.288612,-37.291847,,,,,,,
1512178908.043495,-0.100384,0.224088,-2.661374,0.063570,-0.074492,-0.138204,-0.097710,-0.222218,-0.970089,-0.067986,-0.089336,-0.015751,-28.087234,-7.438606,-37.216911,,,,,,,
1512178908.063484,-0.102633,0.225271,-2.666253,-0.009351,-0.201509,-0.248444,-0.099864,-0.223371,-0.969604,-0.088750,-0.108127,-0.046585,-28.238556,-7.738838,-37.140770,,,,,,,
1512178908.083503,-0.106358,0.225487,-2.672959,-0.077547,-0.263430,-0.317874,-0.103471,-0.223582,-0.969178,-0.121810,-0.126669,-0.071243,-28.240433,-8.188835,-36.840981,,,,,,,
1512178908.103492,-0.109402,0.224629,-2.681453,-0.132453,-0.193897,-0.411175,-0.106441,-0.222744,-0.969049,-0.129216,-0.120090,-0.110495,-28.462692,-7.589165,-36.763802,,,,,,,
1512178908.123481,-0.110291,0.222688,-2.692223,-0.188178,-0.118989,-0.518324,-0.107350,-0.220852,-0.969381,-0.107723,-0.126423,-0.180475,-28.313370,-7.738945,-36.765144,,,,,,,
1512178908.143470,-0.110062,0.219710,-2.704636,-0.205496,-0.148834,-0.569855,-0.107199,-0.217946,-0.970056,-0.083505,-0.144954,-0.257621,-28.314301,-7.963951,-36.615242,,,,,,,
1512178908.163490,-0.111427,0.217773,-2.717164,-0.132014,-0.202129,-0.566839,-0.108570,-0.216056,-0.970326,-0.096203,-0.156167,-0.245403,-28.315094,-8.113945,-36.840309,,,,,,,
1512178908.183479,-0.112193,0.216994,-2.730182,-0.099002,-0.152823,-0.626955,-0.109332,-0.215295,-0.970410,-0.125318,-0.163611,-0.219746,-28.541626,-8.489296,-36.538582,,,,,,,
1512178908.203468,-0.111165,0.216390,-2.744916,-0.114552,-0.062948,-0.714286,-0.108349,-0.214705,-0.970650,-0.141620,-0.176240,-0.190299,-28.614639,-8.039406,-36.612724,,,,,,,
1512178908.223487,-0.106858,0.215806,-2.761141,-0.104880,0.124122,-0.774259,-0.104180,-0.214135,-0.971233,-0.105933,-0.140159,-0.198766,-28.467712,-8.714180,-36.689308,,,,,,,
1512178908.243476,-0.099300,0.216334,-2.777873,-0.007517,0.222579,-0.790628,-0.096826,-0.214650,-0.971880,-0.041587,-0.054072,-0.236311,-28.169815,-9.163734,-36.842064,,,,,,,
1512178908.263465,-0.092452,0.220886,-2.793999,0.267233,0.115084,-0.778494,-0.090078,-0.219095,-0.971537,-0.016520,0.041772,-0.185125,-28.322250,-9.688957,-36.991035,,,,,,,
1512178908.283454,-0.087461,0.231163,-2.810436,0.539062,0.064355,-0.845094,-0.085026,-0.229110,-0.969680,-0.043575,0.057479,-0.040940,-27.950516,-10.438408,-36.769569,,,,,,,
1512178908.303474,-0.081629,0.245781,-2.828157,0.709726,0.116025,-0.912800,-0.079088,-0.243314,-0.966718,-0.066023,0.049757,0.032285,-27.728577,-11.113075,-36.771797,,,,,,,
1512178908.323463,-0.073140,0.261632,-2.846748,0.713523,0.250685,-0.942125,-0.070588,-0.258658,-0.963387,-0.073211,0.036673,0.165565,-27.507324,-11.937737,-36.849083,,,,,,,
1512178908.343452,-0.062238,0.275419,-2.865895,0.553398,0.320913,-0.925009,-0.059854,-0.271950,-0.960448,-0.051475,0.028237,0.176024,-26.837006,-12.986732,-36.780312,,,,,,,
1512178908.363471,-0.051219,0.283978,-2.883497,0.281245,0.282814,-0.779841,-0.049146,-0.280177,-0.958690,-0.021670,0.027155,0.108409,-26.163773,-13.360725,-36.936226,,,,,,,
1512178908.383460,-0.044938,0.288208,-2.897763,0.141640,0.004516,-0.602669,-0.043070,-0.284235,-0.957787,-0.011144,0.065027,0.057640,-26.167511,-14.185738,-37.011604,,,,,,,
1512178908.403449,-0.045547,0.291768,-2.909332,0.179332,-0.291496,-0.510404,-0.043607,-0.287646,-0.956744,-0.040957,0.105410,0.093920,-26.242142,-14.110847,-36.935936,,,,,,,
1512178908.423469,-0.049768,0.297131,-2.920492,0.280971,-0.372468,-0.535862,-0.047568,-0.292778,-0.954996,-0.065759,0.128075,0.186732,-26.170059,-14.785728,-36.711876,,,,,,,
1512178908.443458,-0.051633,0.304626,-2.932759,0.385614,-0.182042,-0.601913,-0.049234,-0.299936,-0.952688,-0.067938,0.107492,0.245458,-26.395966,-15.011070,-36.485069,,,,,,,
1512178908.463447,-0.047928,0.314466,-2.945424,0.511420,0.102261,-0.589509,-0.045560,-0.309309,-0.949870,-0.050387,0.076872,0.242426,-25.946793,-15.235405,-36.114006,,,,,,,
1512178908.483436,-0.040829,0.325929,-2.956717,0.551571,0.200426,-0.496899,-0.038669,-0.320189,-0.946564,-0.028088,0.067137,0.197175,-26.327011,-16.360970,-36.411339,,,,,,,
1512178908.503456,-0.035298,0.335679,-2.965915,0.402544,0.080338,-0.387543,-0.033321,-0.329410,-0.943599,-0.022892,0.059620,0.159038,-25.879959,-17.035301,-36.265465,,,,,,,
1512178908.523445,-0.033358,0.341519,-2.973186,0.216508,-0.068603,-0.296942,-0.031426,-0.334918,-0.941723,-0.005882,0.063266,0.132610,-25.431686,-17.409630,-36.344460,,,,,,,
1512178908.543434,-0.034453,0.344651,-2.978738,0.122174,-0.173611,-0.205928,-0.032420,-0.337868,-0.940635,0.022823,0.054588,0.105399,-25.433304,-17.784630,-36.194649,,,,,,,
1512178908.563453,-0.038084,0.346870,-2.981740,0.102704,-0.251903,-0.063631,-0.035808,-0.339956,-0.939760,0.032512,0.031576,0.092408,-25.657135,-17.559975,-35.892632,,,,,,,
1512178908.583442,-0.043640,0.348715,-2.981538,0.084326,-0.260759,0.081057,-0.041000,-0.341690,-0.938918,0.022125,0.023789,0.090819,-25.882477,-17.635307,-35.890739,,,,,,,
1512178908.603431,-0.049420,0.349728,-2.978765,0.035649,-0.215119,0.190314,-0.046410,-0.342642,-0.938319,0.005486,0.013312,0.066233,-26.182449,-17.635750,-35.813194,,,,,,,
1512178908.623420,-0.054089,0.348593,-2.974281,-0.100854,-0.099040,0.263363,-0.050811,-0.341576,-0.938480,-0.001603,0.010201,0.005069,-26.631805,-17.486427,-35.884300,,,,,,,
1512178908.643440,-0.057164,0.344264,-2.968709,-0.258374,-0.040631,0.315654,-0.053780,-0.337504,-0.939786,0.024041,0.023570,-0.121356,-26.554962,-17.111320,-35.584770,,,,,,,
1512178908.663429,-0.061651,0.336720,-2.961912,-0.407081,-0.160671,0.406898,-0.058152,-0.330393,-0.942050,0.058030,0.024378,-0.238186,-26.628922,-16.886421,-35.509026,,,,,,,
1512178908.683418,-0.070490,0.327472,-2.953273,-0.425477,-0.361668,0.477354,-0.066689,-0.321651,-0.944507,0.061455,0.050853,-0.269131,-26.851746,-16.361763,-35.881874,,,,,,,
1512178908.703437,-0.080942,0.319955,-2.945101,-0.278049,-0.374088,0.394166,-0.076750,-0.314524,-0.946142,0.065306,0.065592,-0.229563,-27.297546,-15.462425,-35.577629,,,,,,,
1512178908.723426,-0.088573,0.316480,-2.939064,-0.075925,-0.202683,0.298546,-0.084064,-0.311224,-0.946611,0.065265,-0.003596,-0.143828,-28.198547,-15.688774,-35.570076,,,,,,,
1512178908.743415,-0.090851,0.315029,-2.933028,-0.065642,0.114514,0.337111,-0.086261,-0.309844,-0.946866,0.070072,-0.045869,-0.090487,-27.896637,-15.238335,-35.797432,,,,,,,
1512178908.763435,-0.088096,0.309576,-2.925198,-0.374921,0.319912,0.483658,-0.083800,-0.304655,-0.948769,0.114195,-0.029650,-0.139701,-27.896561,-15.238335,-35.647423,,,,,,,
1512178908.783424,-0.086958,0.295316,-2.914140,-0.825006,0.114814,0.681110,-0.083089,-0.291043,-0.953095,0.166722,0.045040,-0.287841,-28.042542,-14.338539,-35.720741,,,,,,,
1512178908.803413,-0.093959,0.274932,-2.900897,-0.972843,-0.320343,0.768068,-0.090298,-0.271481,-0.958198,0.185238,0.132245,-0.324547,-28.188416,-13.363762,-36.244011,,,,,,,
1512178908.823402,-0.107802,0.257931,-2.888545,-0.613919,-0.604760,0.645418,-0.104034,-0.255081,-0.961307,0.174133,0.172149,-0.214581,-28.710266,-12.689552,-36.014244,,,,,,,
1512178908.843421,-0.121074,0.252481,-2.878430,0.032712,-0.407982,0.489166,-0.116950,-0.249807,-0.961207,0.131674,0.114248,0.011607,-29.532578,-12.090782,-36.006950,,,,,,,
1512178908.863410,-0.124018,0.257907,-2.869291,0.455694,0.225200,0.404748,-0.119609,-0.255058,-0.959499,0.158229,0.058128,0.153896,-30.130432,-11.641670,-35.776649,,,,,,,
1512178908.883399,-0.115208,0.266203,-2.859624,0.416504,0.738800,0.479527,-0.110904,-0.263070,-0.958381,0.220874,0.016915,0.143852,-30.129730,-11.491676,-35.701576,,,,,,,
1512178908.903419,-0.102614,0.268878,-2.847281,0.057098,0.757077,0.683331,-0.098754,-0.265649,-0.958998,0.267394,0.010355,0.023116,-29.005661,-11.639992,-36.236198,,,,,,,
1512178908.923408,-0.097570,0.264895,-2.830841,-0.192385,0.265929,0.920005,-0.094017,-0.261808,-0.960530,0.248848,0.028410,-0.044231,-28.928040,-11.039864,-36.386559,,,,,,,
1512178908.943397,-0.104325,0.258571,-2.810968,-0.204373,-0.242795,1.039589,-0.100674,-0.255700,-0.961500,0.173688,0.063729,0.043928,-29.150452,-10.440208,-36.609367,,,,,,,
1512178908.963416,-0.116508,0.254381,-2.791093,-0.012315,-0.353439,0.958832,-0.112504,-0.251646,-0.961258,0.111924,0.076521,0.200363,-29.673386,-9.990990,-36.529701,,,,,,,
1512178908.983406,-0.124873,0.255787,-2.773191,0.292782,-0.058962,0.832088,-0.120496,-0.253007,-0.959931,0.079786,0.055604,0.304811,-30.123795,-10.066658,-36.675911,,,,,,,
1512178909.003395,-0.125885,0.262845,-2.756288,0.535929,0.291884,0.779265,-0.121240,-0.259829,-0.958014,0.062952,0.017458,0.322271,-30.046326,-9.541542,-36.451302,,,,,,,
1512178909.023360,-0.122768,0.272418,-2.739151,0.581570,0.426507,0.797449,-0.117944,-0.269061,-0.955874,0.052438,-0.008649,0.299990,-29.969742,-9.166435,-36.676765,,,,,,,
1512178909.043380,-0.119678,0.280789,-2.721655,0.466155,0.362212,0.811545,-0.114717,-0.277114,-0.953964,0.039720,-0.015351,0.249939,-29.971588,-9.541435,-36.976952,,,,,,,
1512178909.063369,-0.119552,0.285877,-2.705117,0.283798,0.178212,0.806130,-0.114427,-0.281999,-0.952567,0.036607,-0.020583,0.194892,-29.818024,-8.716209,-37.277840,,,,,,,
1512178909.083358,-0.123609,0.287818,-2.688583,0.150481,-0.049501,0.799144,-0.118223,-0.283861,-0.951549,0.038068,-0.034193,0.140957,-29.967316,-8.566429,-37.201485,,,,,,,
1512178909.103378,-0.133186,0.287362,-2.671948,0.030221,-0.353125,0.836857,-0.127348,-0.283424,-0.950502,0.026655,-0.055276,0.097429,-30.563293,-7.742317,-36.596016,,,,,,,
1512178909.123367,-0.148750,0.283123,-2.654710,-0.169202,-0.635547,0.891616,-0.142302,-0.279356,-0.949584,-0.023393,-0.058764,0.043350,-31.085220,-7.068108,-36.516243,,,,,,,
1512178909.143356,-0.168681,0.274404,-2.638026,-0.367307,-0.785362,0.873300,-0.161601,-0.270974,-0.948925,-0.091329,-0.023689,0.007763,-31.533768,-6.768776,-36.287270,,,,,,,
1512178909.163345,-0.184062,0.265230,-2.623533,-0.237550,-0.381073,0.717745,-0.176625,-0.262131,-0.948731,-0.211803,-0.010009,-0.058593,-32.130280,-6.019676,-36.056831,,,,,,,
1512178909.183364,-0.186866,0.264038,-2.613222,0.213934,0.216317,0.390556,-0.179342,-0.260980,-0.948539,-0.248819,0.023325,-0.186990,-31.906326,-6.244331,-36.133858,,,,,,,
1512178909.203352,-0.180088,0.271664,-2.608896,0.490932,0.456734,0.024414,-0.172547,-0.268335,-0.947747,-0.226104,0.009515,-0.298896,-31.905731,-6.094337,-36.283775,,,,,,,
1512178909.223341,-0.171688,0.281456,-2.611174,0.426447,0.326904,-0.273336,-0.164123,-0.277754,-0.946528,-0.182419,-0.041917,-0.341024,-31.532715,-6.543770,-36.212181,,,,,,,
1512178909.243361,-0.165663,0.290096,-2.619172,0.344989,0.132850,-0.513985,-0.158016,-0.286044,-0.945098,-0.156361,-0.083035,-0.292100,-31.609100,-6.843895,-36.286674,,,,,,,
1512178909.263350,-0.160517,0.299007,-2.631953,0.348444,0.063839,-0.727389,-0.152737,-0.294571,-0.943345,-0.143436,-0.138611,-0.223266,-31.462143,-7.518669,-36.288261,,,,,,,
1512178909.283340,-0.154420,0.308040,-2.648108,0.300148,0.082135,-0.836766,-0.146567,-0.303191,-0.941591,-0.144463,-0.206880,-0.127867,-31.240067,-8.118340,-36.740456,,,,,,,
1512178909.303359,-0.145585,0.312555,-2.665295,-0.067151,0.289786,-0.791258,-0.138042,-0.307491,-0.941485,-0.123951,-0.228596,-0.065443,-31.319824,-9.168465,-36.815300,,,,,,,
1512178909.323348,-0.130635,0.306219,-2.681570,-0.588363,0.600632,-0.651676,-0.124204,-0.301455,-0.945356,-0.037432,-0.106290,-0.204958,-30.567947,-8.717323,-37.121468,,,,,,,
1512178909.343337,-0.114457,0.295987,-2.696318,-0.505114,0.581416,-0.594036,-0.109241,-0.291684,-0.950256,0.031955,0.061414,-0.287842,-29.818176,-8.716209,-37.577827,,,,,,,
1512178909.363326,-0.100611,0.294037,-2.709584,0.068671,0.446672,-0.616043,-0.096131,-0.289818,-0.952242,0.046967,0.164849,-0.232420,-29.444000,-8.865639,-37.881096,,,,,,,
1512178909.383346,-0.089394,0.302485,-2.723818,0.476856,0.320440,-0.743823,-0.085222,-0.297893,-0.950788,0.012407,0.153194,-0.074252,-29.372787,-9.690544,-38.032112,,,,,,,
1512178909.403335,-0.079043,0.314464,-2.739906,0.542852,0.254432,-0.805995,-0.075089,-0.309306,-0.947993,-0.000076,0.106883,0.062144,-28.926575,-10.514870,-38.186317,,,,,,,
1512178909.423324,-0.070050,0.325133,-2.755629,0.420925,0.183577,-0.720591,-0.066326,-0.319435,-0.945284,-0.006931,0.075798,0.142947,-28.327988,-10.813972,-38.341545,,,,,,,
1512178909.443343,-0.063200,0.331545,-2.769056,0.181830,0.108152,-0.577202,-0.059718,-0.325504,-0.943653,-0.013707,0.069339,0.168094,-28.330582,-11.413979,-38.116829,,,,,,,
1512178909.463331,-0.058045,0.332646,-2.780069,-0.045078,0.073392,-0.459079,-0.054833,-0.326545,-0.943590,0.004189,0.100486,0.144075,-27.956329,-11.563408,-38.270088,,,,,,,
1512178909.483320,-0.054371,0.331979,-2.788672,-0.029029,0.036851,-0.335311,-0.051377,-0.325915,-0.944002,0.004807,0.109698,0.116320,-27.734833,-12.313087,-38.497337,,,,,,,
1512178909.503309,-0.052122,0.333957,-2.794965,0.164750,0.012426,-0.256898,-0.049220,-0.327784,-0.943470,0.001124,0.125666,0.135257,-28.110825,-12.538643,-38.494255,,,,,,,
1512178909.523329,-0.049746,0.340238,-2.800221,0.374498,0.065049,-0.238753,-0.046875,-0.333712,-0.941509,-0.013885,0.126818,0.180584,-27.811752,-12.763191,-38.271919,,,,,,,
1512178909.543319,-0.046222,0.349255,-2.805283,0.457628,0.111101,-0.235257,-0.043416,-0.342198,-0.938624,-0.015254,0.114018,0.201091,-27.662613,-12.912971,-38.648262,,,,,,,
1512178909.563308,-0.043013,0.357912,-2.809811,0.389665,0.064976,-0.188427,-0.040275,-0.350320,-0.935764,-0.008004,0.095773,0.204929,-27.664520,-13.362968,-38.423470,,,,,,,
1512178909.583328,-0.041833,0.364005,-2.813012,0.238008,-0.017660,-0.110957,-0.039081,-0.356020,-0.933661,-0.002377,0.089754,0.203406,-27.442337,-13.962639,-38.650658,,,,,,,
1512178909.603317,-0.041849,0.367136,-2.814750,0.115322,-0.014778,-0.040231,-0.039049,-0.358944,-0.932542,0.005464,0.091030,0.182435,-27.517822,-14.112755,-38.275093,,,,,,,
1512178909.623306,-0.041685,0.368987,-2.815280,0.091990,0.014978,0.018167,-0.038869,-0.360671,-0.931883,0.023503,0.088988,0.138227,-27.593536,-14.262871,-38.349525,,,,,,,
1512178909.643325,-0.042083,0.371023,-2.814044,0.113983,0.000950,0.105853,-0.039208,-0.362569,-0.931132,0.044625,0.084691,0.085673,-28.045700,-14.713554,-38.645897,,,,,,,
1512178909.663314,-0.044348,0.373536,-2.810741,0.144150,-0.073992,0.211566,-0.041277,-0.364909,-0.930128,0.046556,0.063915,0.062955,-27.593948,-14.337868,-38.499550,,,,,,,
1512178909.683303,-0.048604,0.376222,-2.805260,0.136225,-0.107296,0.303018,-0.045187,-0.367409,-0.928961,0.038717,0.054925,0.066214,-27.970612,-14.713432,-38.496544,,,,,,,
1512178909.703292,-0.053260,0.376736,-2.798134,-0.029209,-0.082059,0.381733,-0.049502,-0.367887,-0.928552,0.032580,0.039365,0.032739,-28.045959,-14.788551,-38.495934,,,,,,,
1512178909.723312,-0.058294,0.372881,-2.789630,-0.252113,-0.100701,0.450929,-0.054257,-0.364300,-0.929700,0.033581,0.031140,-0.054111,-28.267776,-14.113884,-38.193718,,,,,,,
1512178909.743301,-0.064873,0.364856,-2.780414,-0.434032,-0.185442,0.488508,-0.060560,-0.356815,-0.932210,0.046583,0.031666,-0.123332,-28.419418,-14.414101,-38.792580,,,,,,,
1512178909.763289,-0.072547,0.354259,-2.770679,-0.513622,-0.219831,0.528809,-0.067983,-0.346895,-0.935437,0.088765,0.030947,-0.177997,-28.864014,-13.289772,-38.113228,,,,,,,
1512178909.783309,-0.080104,0.343564,-2.760351,-0.470311,-0.154657,0.556316,-0.075342,-0.336845,-0.938541,0.109292,0.010017,-0.206845,-28.936691,-12.764885,-38.187355,,,,,,,
1512178909.803298,-0.085402,0.335555,-2.749731,-0.262289,-0.053916,0.553287,-0.080541,-0.329293,-0.940787,0.102269,0.000298,-0.217218,-29.308731,-12.090446,-38.333855,,,,,,,
1512178909.823287,-0.089368,0.332442,-2.739106,-0.047412,0.019114,0.520407,-0.084362,-0.326352,-0.941476,0.074841,-0.025791,-0.148627,-29.682877,-11.866005,-38.630562,,,,,,,
1512178909.843276,-0.090622,0.329293,-2.728898,-0.208552,0.168382,0.537781,-0.085635,-0.323374,-0.942388,0.063251,-0.070150,-0.102183,-29.604874,-11.190880,-38.705894,,,,,,,
1512178909.863296,-0.090177,0.317459,-2.717274,-0.770664,0.217430,0.687584,-0.085555,-0.312153,-0.946172,0.115234,-0.028408,-0.174220,-29.831375,-11.491234,-39.004112,,,,,,,
1512178909.883285,-0.092602,0.293804,-2.703696,-1.264471,-0.036745,0.818133,-0.088507,-0.289595,-0.953048,0.173209,0.054228,-0.341446,-29.823868,-9.841209,-38.853355,,,,,,,
1512178909.903274,-0.103192,0.267482,-2.688842,-1.146249,-0.469283,0.868446,-0.099346,-0.264304,-0.959309,0.183910,0.129752,-0.346477,-29.818954,-8.716209,-39.152824,,,,,,,
1512178909.923293,-0.117672,0.249503,-2.674158,-0.575671,-0.504574,0.787039,-0.113766,-0.246922,-0.962334,0.135937,0.150960,-0.187782,-30.562393,-7.292320,-38.845802,,,,,,,
1512178909.943282,-0.125913,0.244679,-2.661383,0.068565,-0.044948,0.595423,-0.121840,-0.242245,-0.962534,0.108656,0.127422,0.004969,-31.160706,-6.918221,-38.840523,,,,,,,
1512178909.963271,-0.122086,0.249651,-2.650993,0.404045,0.523066,0.448746,-0.118008,-0.247066,-0.961786,0.142575,0.078136,0.086344,-31.233948,-6.543327,-38.689720,,,,,,,
1512178909.983291,-0.111043,0.256218,-2.641555,0.321931,0.713060,0.459945,-0.107198,-0.253424,-0.961397,0.202809,0.026510,0.065798,-31.009628,-6.692986,-38.691704,,,,,,,
1512178910.003280,-0.102137,0.257915,-2.629896,0.041232,0.483639,0.662964,-0.098587,-0.255065,-0.961885,0.233093,0.003646,0.026445,-30.035217,-6.766533,-39.225014,,,,,,,
1512178910.023254,-0.102178,0.255109,-2.614186,-0.088247,0.037601,0.864217,-0.098699,-0.252350,-0.962589,0.192877,0.029114,0.064548,-30.034027,-6.466530,-39.524879,,,,,,,
1512178910.043243,-0.109711,0.252425,-2.596112,0.014155,-0.217638,0.912786,-0.106021,-0.249753,-0.962488,0.126895,0.061276,0.185114,-30.030991,-5.791527,-39.524559,,,,,,,
1512178910.063263,-0.118074,0.253495,-2.578508,0.245865,-0.135937,0.829009,-0.114035,-0.250789,-0.961302,0.083502,0.057780,0.309996,-30.553925,-5.342308,-39.444893,,,,,,,
1512178910.083252,-0.121472,0.259739,-2.561872,0.502968,0.174350,0.767715,-0.117109,-0.256828,-0.959336,0.052091,0.025520,0.380738,-30.329117,-5.341972,-39.821800,,,,,,,
1512178910.103241,-0.118543,0.269960,-2.546138,0.644443,0.461979,0.736655,-0.113982,-0.266693,-0.957018,0.034850,-0.002442,0.377901,-30.101746,-4.816628,-39.823479,,,,,,,
1512178910.123260,-0.112457,0.280434,-2.529731,0.563080,0.537650,0.761326,-0.107836,-0.276773,-0.954865,0.019824,-0.031958,0.305650,-29.426895,-4.815620,-40.129219,,,,,,,
1512178910.143249,-0.108438,0.286659,-2.513058,0.287233,0.366234,0.801506,-0.103809,-0.282749,-0.953560,0.021885,-0.041058,0.194328,-29.802353,-4.891182,-40.351067,,,,,,,
1512178910.163238,-0.109614,0.287103,-2.496007,0.029133,0.082655,0.859679,-0.104917,-0.283175,-0.953312,0.017011,-0.049115,0.077305,-29.951035,-4.591408,-40.424644,,,,,,,
1512178910.183227,-0.115769,0.285026,-2.478170,0.009095,-0.096917,0.902473,-0.110850,-0.281182,-0.953231,0.012614,-0.047248,0.003264,-29.726028,-4.591072,-40.426552,,,,,,,
1512178910.203247,-0.123090,0.285043,-2.459938,0.180037,-0.094478,0.879370,-0.117825,-0.281199,-0.952389,-0.013873,-0.041738,-0.056065,-30.098297,-3.991631,-40.348091,,,,,,,
1512178910.223236,-0.130113,0.288689,-2.442301,0.344138,-0.103720,0.818819,-0.124377,-0.284696,-0.950515,-0.047330,-0.038394,-0.103867,-30.096939,-3.691628,-40.347954,,,,,,,
1512178910.243225,-0.137335,0.294151,-2.425955,0.381746,-0.123794,0.735075,-0.131023,-0.289928,-0.948037,-0.080632,-0.055638,-0.106772,-30.322250,-3.766960,-40.271080,,,,,,,
1512178910.263244,-0.144639,0.298675,-2.411631,0.269371,-0.156873,0.630991,-0.137754,-0.294254,-0.945747,-0.130404,-0.075314,-0.095375,-30.697205,-3.767525,-40.192894,,,,,,,
1512178910.283233,-0.151597,0.299224,-2.400692,-0.003159,-0.198645,0.476582,-0.144307,-0.294779,-0.944606,-0.145732,-0.066656,-0.131932,-30.995865,-3.467964,-40.190208,,,,,,,
1512178910.303222,-0.158805,0.294474,-2.394618,-0.279103,-0.306542,0.267526,-0.151331,-0.290237,-0.944914,-0.157904,-0.054475,-0.183779,-31.146652,-3.693199,-39.739037,,,,,,,
1512178910.323242,-0.165985,0.287624,-2.394415,-0.328657,-0.355172,-0.026526,-0.158436,-0.283675,-0.945741,-0.165172,-0.044892,-0.200453,-31.442749,-2.868645,-39.361107,,,,,,,
1512178910.343231,-0.170209,0.283886,-2.401255,-0.155975,-0.249474,-0.408506,-0.162608,-0.280088,-0.946102,-0.143178,-0.053194,-0.170338,-31.442673,-2.868645,-39.211098,,,,,,,
1512178910.363220,-0.169509,0.286162,-2.414072,0.108847,-0.064791,-0.684398,-0.161839,-0.282272,-0.945585,-0.113476,-0.106552,-0.104937,-32.046387,-3.694542,-39.206383,,,,,,,
1512178910.383209,-0.164083,0.292464,-2.429966,0.211485,0.120436,-0.822988,-0.156411,-0.288312,-0.944675,-0.097678,-0.157488,-0.057125,-31.824768,-4.444221,-39.208641,,,,,,,
1512178910.403228,-0.154719,0.297878,-2.447674,0.057501,0.275146,-0.851332,-0.147316,-0.293492,-0.944542,-0.115028,-0.209666,-0.056495,-31.677872,-5.118996,-39.360222,,,,,,,
1512178910.423217,-0.141604,0.297315,-2.466060,-0.284836,0.470071,-0.833224,-0.134939,-0.292954,-0.946557,-0.058695,-0.136642,-0.166542,-31.154266,-5.418205,-39.439827,,,,,,,
1512178910.443206,-0.126930,0.291579,-2.484835,-0.421784,0.423875,-0.805519,-0.121246,-0.287465,-0.950086,0.013550,-0.056224,-0.317645,-30.780685,-5.717644,-39.593147,,,,,,,
1512178910.463226,-0.117370,0.287656,-2.501723,-0.171867,0.131397,-0.718698,-0.112290,-0.283706,-0.952314,0.026596,0.012481,-0.306933,-30.332108,-6.016975,-39.747124,,,,,,,
1512178910.483215,-0.112297,0.290855,-2.516679,0.227596,0.045453,-0.704683,-0.107355,-0.286771,-0.951965,-0.017081,0.058256,-0.137101,-30.109131,-6.466637,-39.749245,,,,,,,
1512178910.503204,-0.104788,0.300069,-2.531863,0.445163,0.255270,-0.764765,-0.099922,-0.295586,-0.950076,-0.024208,0.079384,-0.000379,-30.114197,-7.591652,-39.749763,,,,,,,
1512178910.523193,-0.092686,0.311246,-2.547493,0.501687,0.425186,-0.758025,-0.088106,-0.306245,-0.947867,-0.002500,0.076554,0.036902,-29.364990,-7.740532,-39.981194,,,,,,,
1512178910.543212,-0.080369,0.322015,-2.561793,0.450747,0.357591,-0.645996,-0.076156,-0.316479,-0.945538,0.032287,0.078305,0.022869,-28.845459,-8.939751,-40.136223,,,,,,,
1512178910.563201,-0.072615,0.330716,-2.573380,0.366994,0.109337,-0.492429,-0.068619,-0.324720,-0.943318,0.063080,0.097822,0.016407,-28.472778,-9.464180,-40.064644,,,,,,,
1512178910.583191,-0.071550,0.338987,-2.581778,0.417655,-0.177148,-0.345573,-0.067420,-0.332532,-0.940679,0.058601,0.120618,0.067800,-28.323761,-9.688972,-39.991020,,,,,,,
1512178910.603210,-0.074614,0.349325,-2.588094,0.542556,-0.256108,-0.296068,-0.070043,-0.342264,-0.936990,0.049199,0.141778,0.163567,-28.701950,-10.439537,-39.613182,,,,,,,
1512178910.623199,-0.076670,0.362248,-2.593901,0.679004,-0.148017,-0.289447,-0.071624,-0.354377,-0.932356,0.056305,0.136634,0.228407,-28.404572,-11.039085,-39.466011,,,,,,,
1512178910.643188,-0.075319,0.377746,-2.598858,0.793421,0.069961,-0.235863,-0.069943,-0.368826,-0.926863,0.056713,0.123648,0.262846,-28.631256,-11.489418,-38.789314,,,,,,,
1512178910.663208,-0.071379,0.393286,-2.601728,0.718949,0.184967,-0.109678,-0.065874,-0.383226,-0.921303,0.065279,0.112459,0.245033,-28.409286,-12.164085,-38.791542,,,,,,,
1512178910.683197,-0.068285,0.404360,-2.601399,0.436618,0.145721,0.071588,-0.062729,-0.393431,-0.917212,0.060395,0.096434,0.196295,-28.186737,-12.688759,-38.943687,,,,,,,
1512178910.703186,-0.068919,0.408227,-2.598121,0.069671,-0.020677,0.206413,-0.063206,-0.396982,-0.915647,0.067493,0.124079,0.126921,-28.336990,-12.763985,-38.792458,,,,,,,
1512178910.723175,-0.073157,0.405722,-2.593653,-0.194577,-0.157908,0.256476,-0.067158,-0.394682,-0.916360,0.089085,0.142729,0.057549,-28.188644,-13.138756,-38.718895,,,,,,,
1512178910.743194,-0.079263,0.400384,-2.588287,-0.239339,-0.206171,0.317489,-0.072918,-0.389772,-0.918020,0.119884,0.138719,0.000189,-28.561951,-12.764320,-38.715538,,,,,,,
1512178910.763183,-0.086865,0.397130,-2.581388,-0.061369,-0.245553,0.383894,-0.080004,-0.386773,-0.918698,0.131670,0.133828,-0.019275,-28.637405,-12.914436,-38.264977,,,,,,,
1512178910.783172,-0.095018,0.397464,-2.572777,0.123204,-0.213333,0.442119,-0.087479,-0.387081,-0.917887,0.120545,0.114788,0.001993,-28.633652,-12.089424,-38.189583,,,,,,,
1512178910.803192,-0.102012,0.400423,-2.563110,0.218941,-0.093589,0.459911,-0.093780,-0.389808,-0.916109,0.105621,0.099067,0.049532,-29.082199,-11.790092,-37.960625,,,,,,,
1512178910.823181,-0.105978,0.402935,-2.553251,0.119731,0.054721,0.471785,-0.097308,-0.392120,-0.914753,0.101260,0.076293,0.023670,-29.158279,-12.015221,-38.110100,,,,,,,
1512178910.843170,-0.109241,0.400759,-2.543252,-0.176383,0.006103,0.518494,-0.100385,-0.390117,-0.915277,0.113828,0.060893,-0.069205,-29.233551,-12.090324,-37.959496,,,,,,,
1512178910.863159,-0.115926,0.392322,-2.532742,-0.430272,-0.226208,0.582236,-0.106879,-0.382335,-0.917822,0.126914,0.054698,-0.115030,-29.532578,-11.865776,-38.031837,,,,,,,
1512178910.883178,-0.125317,0.380273,-2.522314,-0.518095,-0.338545,0.600825,-0.116061,-0.371174,-0.921281,0.128985,0.060292,-0.173033,-29.601349,-10.515877,-37.730583,,,,,,,
1512178910.903167,-0.135157,0.368776,-2.512217,-0.436423,-0.323385,0.562620,-0.125687,-0.360474,-0.924262,0.126664,0.064759,-0.186532,-29.973907,-9.991432,-37.577141,,,,,,,
1512178910.923156,-0.142983,0.362201,-2.502512,-0.125315,-0.154048,0.516543,-0.133251,-0.354333,-0.925577,0.102688,0.030099,-0.113425,-30.122040,-9.616661,-37.200691,,,,,,,
1512178910.943176,-0.145177,0.360847,-2.492190,0.078173,0.190174,0.540943,-0.135351,-0.353067,-0.925756,0.086095,-0.007956,-0.053431,-30.120575,-9.316658,-36.975563,,,,,,,
1512178910.963165,-0.142328,0.359676,-2.480268,-0.036016,0.424845,0.625394,-0.132772,-0.351971,-0.926546,0.090657,-0.030949,-0.071561,-30.271362,-9.466881,-37.199348,,,,,,,
1512178910.983154,-0.138765,0.353076,-2.467200,-0.355222,0.368630,0.714385,-0.129787,-0.345786,-0.929294,0.131893,-0.025643,-0.156018,-29.817047,-8.491203,-37.352730,,,,,,,
1512178911.003173,-0.140041,0.341426,-2.452673,-0.518353,0.087213,0.831507,-0.131526,-0.334831,-0.933054,0.167232,-0.008431,-0.182623,-29.512772,-7.515755,-37.579826,,,,,,,
1512178911.023126,-0.146094,0.329198,-2.435216,-0.440198,-0.021958,0.999630,-0.137758,-0.323284,-0.936221,0.162264,-0.006275,-0.101911,-29.735489,-6.991081,-37.727669,,,,,,,
1512178911.043115,-0.151930,0.319159,-2.414244,-0.292994,0.123288,1.131263,-0.143703,-0.313768,-0.938562,0.139370,0.025163,-0.000601,-29.880981,-6.016304,-37.500954,,,,,,,
1512178911.063104,-0.153148,0.309689,-2.391777,-0.339089,0.406231,1.160363,-0.145293,-0.304762,-0.941281,0.119109,0.057066,0.026196,-29.652679,-5.265953,-37.652519,,,,,,,
1512178911.083124,-0.149323,0.297467,-2.370395,-0.492816,0.531065,1.114861,-0.142235,-0.293099,-0.945443,0.149178,0.077767,-0.018028,-29.801071,-4.891182,-37.801064,,,,,,,
1512178911.103113,-0.145125,0.283589,-2.349818,-0.550444,0.454067,1.114825,-0.138840,-0.279803,-0.949965,0.175339,0.094622,-0.050020,-29.495560,-3.615715,-38.253029,,,,,,,
1512178911.123102,-0.144339,0.270086,-2.329442,-0.493602,0.249120,1.084019,-0.138624,-0.266815,-0.953726,0.167540,0.112533,-0.013941,-28.889481,-2.264809,-38.257500,,,,,,,
1512178911.143122,-0.146703,0.259772,-2.310520,-0.268718,0.082024,0.950242,-0.141273,-0.256860,-0.956068,0.133979,0.106744,0.060651,-28.660873,-1.439476,-38.484032,,,,,,,
1512178911.163111,-0.149734,0.257549,-2.294853,0.197080,0.086310,0.759781,-0.144255,-0.254712,-0.956197,0.125654,0.088650,0.178228,-28.657837,-0.764473,-38.483727,,,,,,,
1512178911.183100,-0.149842,0.264996,-2.280358,0.618285,0.269872,0.633268,-0.144071,-0.261906,-0.954279,0.111784,0.037449,0.291941,-28.582840,-0.764351,-38.484367,,,,,,,
1512178911.203089,-0.145694,0.278230,-2.265872,0.826353,0.482760,0.631691,-0.139596,-0.274655,-0.951356,0.086404,-0.005146,0.350709,-27.908554,-0.913338,-38.565163,,,,,,,
1512178911.223108,-0.138550,0.292581,-2.250367,0.775494,0.640668,0.684805,-0.132238,-0.288425,-0.948327,0.052206,-0.033825,0.335504,-27.384384,-1.062553,-38.869698,,,,,,,
1512178911.243097,-0.130598,0.303125,-2.234716,0.529941,0.606075,0.705649,-0.124290,-0.298504,-0.946281,0.023002,-0.042789,0.242973,-27.011948,-1.586998,-39.248116,,,,,,,
1512178911.263086,-0.125697,0.309037,-2.219667,0.312331,0.389967,0.702808,-0.119428,-0.304141,-0.945111,0.012418,-0.060758,0.123319,-26.636414,-1.436424,-39.551247,,,,,,,
1512178911.283106,-0.127049,0.311097,-2.204592,0.119149,0.028502,0.763782,-0.120625,-0.306104,-0.944325,0.010350,-0.105624,0.019871,-26.784393,-0.986656,-39.549767,,,,,,,
1512178911.303095,-0.137358,0.308459,-2.187356,-0.099169,-0.399427,0.923303,-0.130464,-0.303591,-0.943828,-0.027800,-0.128340,-0.013325,-27.079742,-0.012093,-39.021751,,,,,,,
1512178911.323084,-0.155217,0.300882,-2.167855,-0.331689,-0.682032,1.045811,-0.147649,-0.296363,-0.943594,-0.123500,-0.136147,-0.011698,-27.154022,0.137794,-38.946053,,,,,,,
1512178911.343103,-0.177022,0.286093,-2.148533,-0.725452,-0.874933,1.060759,-0.168941,-0.282206,-0.944361,-0.215855,-0.129735,-0.070913,-28.047607,1.486458,-38.262779,,,,,,,
1512178911.363092,-0.201147,0.263978,-2.132977,-1.042851,-1.017184,0.907485,-0.192872,-0.260923,-0.945896,-0.268813,-0.084826,-0.113598,-28.717209,2.610451,-37.581520,,,,,,,
1512178911.383081,-0.221677,0.239463,-2.123173,-1.079998,-0.781734,0.649777,-0.213592,-0.237181,-0.947694,-0.296433,-0.038698,-0.157042,-29.463150,3.434334,-36.899788,,,,,,,
1512178911.403070,-0.233037,0.219365,-2.119359,-0.808502,-0.350148,0.304480,-0.225399,-0.217610,-0.949653,-0.279911,0.013142,-0.211403,-29.608276,4.484108,-36.598015,,,,,,,
1512178911.423090,-0.234296,0.209248,-2.121986,-0.313444,0.068106,-0.152761,-0.227094,-0.207724,-0.951461,-0.253024,0.023596,-0.231339,-29.455917,5.009346,-36.599052,,,,,,,
1512178911.443079,-0.227318,0.212210,-2.131552,0.231854,0.366831,-0.623547,-0.220310,-0.210620,-0.952419,-0.248989,-0.064938,-0.169453,-29.232300,4.709679,-36.676094,,,,,,,
1512178911.463068,-0.212288,0.222009,-2.147152,0.293270,0.718913,-0.905006,-0.205526,-0.220190,-0.953559,-0.199153,-0.160303,-0.149895,-28.934479,4.260124,-36.978859,,,,,,,
1512178911.483087,-0.191667,0.226022,-2.166591,-0.200879,0.841052,-0.928795,-0.185651,-0.224103,-0.956719,-0.089923,-0.193057,-0.265067,-28.714996,3.060448,-37.206322,,,,,,,
1512178911.503076,-0.173201,0.218607,-2.186125,-0.683328,0.607146,-0.774556,-0.168234,-0.216870,-0.961595,0.009253,-0.088061,-0.396529,-27.740158,3.061913,-37.514610,,,,,,,
1512178911.523065,-0.162512,0.206216,-2.202740,-0.721501,0.201916,-0.613415,-0.158370,-0.204757,-0.965916,0.050261,0.058135,-0.442318,-27.438385,3.437370,-37.366982,,,,,,,
1512178911.543054,-0.160966,0.198180,-2.217541,-0.338314,-0.203315,-0.661508,-0.157135,-0.196885,-0.967753,0.023117,0.175004,-0.282888,-27.513351,3.437248,-37.291344,,,,,,,
1512178911.563074,-0.163248,0.201123,-2.235168,0.216704,-0.257420,-0.963880,-0.159248,-0.199769,-0.966816,-0.039468,0.160310,-0.024014,-28.037659,3.586464,-37.286812,,,,,,,
1512178911.583063,-0.159274,0.214693,-2.256872,0.658083,0.151782,-1.204453,-0.154960,-0.213047,-0.964675,-0.034081,0.094761,0.156310,-27.819061,2.161797,-37.214378,,,,,,,
1512178911.603052,-0.146241,0.235200,-2.279852,0.929449,0.537849,-1.221567,-0.141708,-0.233038,-0.962087,-0.014755,0.042074,0.241323,-27.675537,0.737007,-37.366325,,,,,,,
1512178911.623072,-0.127300,0.257119,-2.301286,0.920033,0.759767,-1.091937,-0.122783,-0.254295,-0.959301,-0.015965,0.014717,0.261639,-27.155045,-0.237206,-37.596230,,,,,,,
1512178911.643061,-0.106998,0.274850,-2.320356,0.663571,0.750502,-0.926181,-0.102786,-0.271402,-0.956962,-0.013166,0.021738,0.204124,-26.709274,-1.136543,-37.975471,,,,,,,
1512178911.663050,-0.090734,0.285012,-2.337333,0.291026,0.452682,-0.782304,-0.086954,-0.281169,-0.955711,0.006464,0.062556,0.099479,-26.113174,-1.960640,-38.355949,,,,,,,
1512178911.683069,-0.083376,0.289157,-2.352448,0.094735,-0.010369,-0.666290,-0.079822,-0.285145,-0.955155,0.016666,0.082294,0.049286,-25.590317,-2.409859,-38.585625,,,,,,,
1512178911.703058,-0.083814,0.292309,-2.365395,0.137676,-0.272210,-0.568504,-0.080165,-0.288164,-0.954220,0.014003,0.096193,0.084362,-25.668198,-3.084984,-38.285301,,,,,,,
1512178911.723047,-0.085950,0.297772,-2.376382,0.293041,-0.214455,-0.483965,-0.082067,-0.293391,-0.952464,0.018224,0.087855,0.138163,-26.044510,-3.385551,-38.207237,,,,,,,
1512178911.743036,-0.085385,0.306480,-2.384764,0.459487,-0.011498,-0.352918,-0.081308,-0.301704,-0.949928,0.023752,0.072487,0.139824,-26.198975,-4.360771,-38.356422,,,,,,,
1512178911.763056,-0.082965,0.316963,-2.389877,0.514578,0.065190,-0.199408,-0.078742,-0.311682,-0.946918,0.030753,0.080619,0.101657,-25.897858,-4.135323,-38.133873,,,,,,,
1512178911.783045,-0.082317,0.327180,-2.392154,0.489050,-0.040837,-0.078616,-0.077863,-0.321374,-0.943746,0.036298,0.090371,0.077153,-25.598221,-4.209877,-38.211449,,,,,,,
1512178911.803034,-0.085025,0.336222,-2.392201,0.427488,-0.174667,0.027698,-0.080168,-0.329923,-0.940598,0.036726,0.089368,0.085648,-25.600586,-4.734886,-38.211693,,,,,,,
1512178911.823053,-0.090267,0.343521,-2.390213,0.343706,-0.233744,0.127554,-0.084878,-0.336804,-0.937741,0.051263,0.088910,0.093411,-25.903137,-5.335335,-37.909431,,,,,,,
1512178911.843042,-0.096524,0.349484,-2.386019,0.312044,-0.220126,0.238012,-0.090548,-0.342413,-0.935176,0.058383,0.090613,0.092570,-25.678131,-5.334999,-37.911339,,,,,,,
1512178911.863031,-0.102765,0.355109,-2.379380,0.306980,-0.172294,0.353239,-0.096183,-0.347693,-0.932662,0.050666,0.091055,0.070830,-26.127197,-5.185661,-37.382439,,,,,,,
1512178911.883020,-0.109648,0.359276,-2.370575,0.212696,-0.190779,0.445622,-0.102441,-0.351597,-0.930530,0.027841,0.084034,0.041675,-26.277832,-5.335899,-37.306236,,,,,,,
1512178911.903040,-0.117628,0.360674,-2.360803,0.070330,-0.220964,0.480772,-0.109806,-0.352905,-0.929194,0.004765,0.089263,0.023310,-26.275818,-4.885887,-37.306038,,,,,,,
1512178911.923029,-0.124933,0.359294,-2.351450,-0.057294,-0.168791,0.464176,-0.116652,-0.351613,-0.928849,0.010863,0.082921,-0.007995,-26.277466,-5.260887,-37.231194,,,,,,,
1512178911.943018,-0.131125,0.355204,-2.342389,-0.212263,-0.128488,0.489788,-0.122587,-0.347782,-0.929527,0.035093,0.061664,-0.054299,-26.125854,-4.885658,-37.382301,,,,,,,
1512178911.963037,-0.137056,0.346691,-2.332802,-0.425503,-0.131082,0.555983,-0.128498,-0.339788,-0.931683,0.058246,0.053151,-0.126896,-26.198380,-4.360771,-37.156425,,,,,,,
1512178911.983026,-0.143969,0.335879,-2.322697,-0.437590,-0.197364,0.574767,-0.135455,-0.329599,-0.934354,0.051653,0.053750,-0.147800,-26.420258,-3.686104,-37.004204,,,,,,,
1512178912.003015,-0.150818,0.326982,-2.313403,-0.299810,-0.182038,0.495799,-0.142286,-0.321187,-0.936266,0.007887,0.025426,-0.104338,-26.342606,-3.085991,-37.079567,,,,,,,
1512178912.023026,-0.154540,0.319640,-2.305831,-0.325051,0.014619,0.419359,-0.146129,-0.314225,-0.938035,-0.015919,-0.013030,-0.014877,-26.565384,-2.636330,-36.702446,,,,,,,
1512178912.043015,-0.151934,0.307163,-2.299140,-0.726310,0.350407,0.461622,-0.144266,-0.302356,-0.942214,0.018152,-0.002560,-0.049805,-26.638397,-2.186440,-36.776604,,,,,,,
1512178912.063004,-0.145095,0.285090,-2.292552,-1.185710,0.415809,0.525554,-0.138750,-0.281244,-0.949553,0.108370,0.074411,-0.279741,-26.336899,-1.810982,-37.153969,,,,,,,
1512178912.082993,-0.143716,0.259325,-2.285724,-1.173344,-0.003987,0.530668,-0.138433,-0.256428,-0.956599,0.136694,0.141423,-0.379766,-26.031082,-0.535530,-37.005943,,,,,,,
1512178912.103012,-0.150052,0.240600,-2.280148,-0.665219,-0.351074,0.342799,-0.145184,-0.238286,-0.960282,0.112316,0.177876,-0.272491,-26.099564,0.889381,-36.779640,,,,,,,
1512178912.123001,-0.158257,0.235652,-2.278107,0.023731,-0.301414,0.069380,-0.153241,-0.233477,-0.960211,0.059659,0.107180,-0.015207,-26.471451,1.563820,-36.626137,,,,,,,
1512178912.142990,-0.156854,0.241431,-2.278788,0.379845,0.323289,-0.097054,-0.151681,-0.239092,-0.959077,0.091973,0.019198,0.130448,-26.399796,0.813927,-36.552132,,,,,,,
1512178912.163010,-0.143711,0.248321,-2.279440,0.269919,0.797211,-0.002119,-0.138824,-0.245776,-0.959334,0.177886,-0.033780,0.113433,-26.024567,0.889488,-36.780281,,,,,,,
1512178912.182999,-0.128032,0.249045,-2.276738,-0.081913,0.785472,0.257121,-0.123743,-0.246479,-0.961216,0.232447,-0.027157,0.024845,-25.425461,0.740379,-37.235435,,,,,,,
1512178912.202988,-0.118943,0.243048,-2.269382,-0.319710,0.371244,0.500631,-0.115175,-0.240662,-0.963751,0.231798,0.013504,-0.013834,-24.899139,1.041176,-37.314766,,,,,,,
1512178912.222977,-0.120562,0.234833,-2.259182,-0.343967,-0.129957,0.589149,-0.116969,-0.232681,-0.965494,0.176006,0.021163,0.053995,-24.895065,1.941185,-37.239342,,,,,,,
1512178912.242997,-0.128848,0.228175,-2.249686,-0.195861,-0.338957,0.519143,-0.125161,-0.226201,-0.966006,0.134255,0.027974,0.178439,-24.667099,2.616524,-37.390953,,,,,,,
1512178912.262986,-0.136076,0.226857,-2.241182,0.119407,-0.172696,0.415553,-0.132181,-0.224916,-0.965371,0.120950,-0.000441,0.280953,-24.817017,2.616295,-37.239677,,,,,,,
1512178912.282975,-0.137670,0.232459,-2.232447,0.461884,0.141880,0.414146,-0.133544,-0.230371,-0.963896,0.111571,-0.036093,0.313841,-25.115829,2.915855,-37.536995,,,,,,,
1512178912.302994,-0.134081,0.242686,-2.222447,0.607355,0.374879,0.460774,-0.129762,-0.240311,-0.961984,0.083620,-0.067825,0.284448,-24.443893,2.241859,-37.618034,,,,,,,
1512178912.322983,-0.128912,0.252344,-2.211501,0.496828,0.382094,0.503968,-0.124484,-0.249674,-0.960295,0.081179,-0.061880,0.193892,-23.769608,2.092873,-37.698845,,,,,,,
1512178912.342972,-0.127270,0.258319,-2.200145,0.292172,0.121042,0.554464,-0.122716,-0.255456,-0.959001,0.064595,-0.075614,0.095155,-23.694946,2.017982,-37.699516,,,,,,,
1512178912.362992,-0.131400,0.260370,-2.188191,0.129203,-0.120700,0.600306,-0.126606,-0.257438,-0.957965,0.051853,-0.073250,0.034427,-23.843674,2.317757,-37.848091,,,,,,,
1512178912.382981,-0.137745,0.261049,-2.175322,0.136788,-0.145371,0.655763,-0.132658,-0.258094,-0.956969,0.042906,-0.068505,-0.036943,-23.619415,2.168098,-38.000084,,,,,,,
1512178912.402970,-0.143762,0.263833,-2.161112,0.318364,-0.083231,0.702318,-0.138310,-0.260782,-0.955438,0.004323,-0.058874,-0.094687,-23.842575,2.542763,-37.698006,,,,,,,
1512178912.422959,-0.148602,0.271491,-2.146135,0.583527,-0.002626,0.658466,-0.142632,-0.268168,-0.952755,-0.055259,-0.037633,-0.095936,-23.542847,2.468208,-37.550591,,,,,,,
1512178912.442978,-0.151650,0.282512,-2.132965,0.635070,0.047953,0.509074,-0.145081,-0.278769,-0.949336,-0.117660,-0.044946,-0.081899,-23.543365,2.393211,-37.925621,,,,,,,
1512178912.462967,-0.153833,0.291667,-2.123984,0.439181,0.000006,0.297123,-0.146756,-0.287549,-0.946456,-0.152469,-0.056918,-0.088792,-23.470016,2.018318,-37.851418,,,,,,,
1512178912.482956,-0.155855,0.296694,-2.120349,0.176116,-0.065135,0.085205,-0.148443,-0.292360,-0.944717,-0.152491,-0.077940,-0.105210,-23.471329,1.718315,-37.776558,,,,,,,
1512178912.502976,-0.157561,0.296559,-2.121246,-0.112456,-0.117624,-0.067344,-0.150061,-0.292231,-0.944501,-0.132730,-0.085714,-0.158724,-23.548126,1.343193,-38.001106,,,,,,,
1512178912.522965,-0.159403,0.293000,-2.125872,-0.232323,-0.159133,-0.234462,-0.151964,-0.288825,-0.945244,-0.118788,-0.076073,-0.196510,-23.318893,2.243538,-37.627602,,,,,,,
1512178912.542954,-0.159737,0.290800,-2.134656,-0.114511,-0.107241,-0.459648,-0.152380,-0.286719,-0.945818,-0.114527,-0.076776,-0.176633,-23.392883,2.468437,-37.626854,,,,,,,
1512178912.562943,-0.156404,0.292652,-2.147412,0.058532,0.066482,-0.665482,-0.149145,-0.288493,-0.945795,-0.112071,-0.117162,-0.101599,-23.245209,1.943657,-37.553383,,,,,,,
1512178912.582962,-0.147864,0.296854,-2.162835,0.084810,0.295303,-0.761318,-0.140882,-0.292513,-0.945827,-0.114565,-0.169126,-0.062352,-23.397263,1.493431,-37.627312,,,,,,,
1512178912.602951,-0.134799,0.297145,-2.178791,-0.229179,0.488081,-0.717224,-0.128502,-0.292792,-0.947502,-0.103127,-0.155741,-0.119713,-23.398697,1.193428,-37.777443,,,,,,,
1512178912.622940,-0.120852,0.289730,-2.195136,-0.571732,0.414889,-0.698985,-0.115534,-0.285693,-0.951331,-0.023184,-0.039655,-0.250375,-22.949890,0.969093,-38.156380,,,,,,,
1512178912.642960,-0.112070,0.279783,-2.211289,-0.536014,0.090181,-0.682540,-0.107487,-0.276148,-0.955086,0.009189,0.033106,-0.262672,-22.572495,1.494667,-38.084328,,,,,,,
1512178912.662949,-0.109958,0.274764,-2.227163,-0.177257,-0.201860,-0.730593,-0.105620,-0.271319,-0.956677,0.007231,0.078448,-0.131672,-22.721405,1.719444,-37.932945,,,,,,,
1512178912.682938,-0.109831,0.277828,-2.243348,0.188166,-0.149939,-0.779491,-0.105407,-0.274267,-0.955859,-0.017365,0.054708,0.075076,-22.796738,1.644325,-37.932335,,,,,,,
1512178912.702958,-0.104944,0.284982,-2.259139,0.305228,0.142871,-0.753325,-0.100526,-0.281140,-0.954387,-0.017134,0.035947,0.170345,-22.724518,1.044441,-38.083260,,,,,,,
1512178912.722947,-0.095295,0.291716,-2.273197,0.225525,0.363624,-0.627915,-0.091131,-0.287596,-0.953406,-0.018808,0.019987,0.159232,-22.504471,-0.005241,-38.535652,,,,,,,
1512178912.742936,-0.084472,0.294971,-2.284172,0.054124,0.367278,-0.448090,-0.080728,-0.290713,-0.953399,-0.007117,0.049273,0.053176,-22.278976,0.070107,-38.237526,,,,,,,
1512178912.762925,-0.078229,0.295211,-2.291783,-0.041553,0.083736,-0.284157,-0.074769,-0.290942,-0.953815,0.009278,0.088076,-0.038556,-21.528000,0.296227,-38.318794,,,,,,,
1512178912.782944,-0.079743,0.294736,-2.296730,-0.024320,-0.272147,-0.182803,-0.076224,-0.290487,-0.953838,-0.001901,0.122519,-0.042332,-22.202133,0.520226,-38.612953,,,,,,,
1512178912.802933,-0.086774,0.296494,-2.301306,0.152126,-0.459800,-0.225677,-0.082884,-0.292169,-0.952768,0.000593,0.152552,0.035486,-22.279022,0.070107,-38.312523,,,,,,,
1512178912.822922,-0.093237,0.303702,-2.306467,0.456758,-0.313970,-0.266592,-0.088841,-0.299055,-0.950091,0.000584,0.116926,0.136889,-22.729919,-0.155571,-38.083809,,,,,,,
1512178912.842942,-0.094286,0.316909,-2.310596,0.738582,0.022828,-0.209101,-0.089458,-0.311631,-0.945983,0.018627,0.091294,0.190001,-22.955261,-0.230904,-38.081932,,,,,,,
1512178912.862931,-0.090512,0.333601,-2.312257,0.846545,0.221441,-0.087446,-0.085406,-0.327447,-0.941002,0.038393,0.083490,0.175133,-22.884384,-1.130806,-38.232979,,,,,,,
1512178912.882920,-0.086956,0.349175,-2.311067,0.719305,0.169675,0.061909,-0.081606,-0.342123,-0.936105,0.041460,0.083090,0.152780,-22.813690,-2.105690,-38.084068,,,,,,,
1512178912.902909,-0.087232,0.360304,-2.307750,0.478746,-0.023164,0.159027,-0.081527,-0.352559,-0.932231,0.032837,0.099416,0.133434,-22.439697,-2.330132,-38.087364,,,,,,,
1512178912.922928,-0.091489,0.366846,-2.303951,0.270698,-0.197602,0.160736,-0.085282,-0.358673,-0.929559,0.052629,0.133927,0.101343,-22.590790,-2.555367,-38.236183,,,,,,,
1512178912.942917,-0.098733,0.371284,-2.300790,0.245337,-0.358895,0.139554,-0.091856,-0.362812,-0.927324,0.069471,0.128361,0.081484,-23.040085,-2.406044,-38.157295,,,,,,,
1512178912.962906,-0.107632,0.377253,-2.297630,0.361467,-0.361931,0.143357,-0.099870,-0.368368,-0.924300,0.054796,0.082998,0.129897,-22.741013,-2.630592,-38.009941,,,,,,,
1512178912.982926,-0.114742,0.384767,-2.293031,0.395523,-0.192184,0.220132,-0.106120,-0.375343,-0.920791,0.038355,0.040810,0.161041,-22.965942,-2.630928,-37.858040,,,,,,,
1512178913.002915,-0.119373,0.389990,-2.286452,0.214550,-0.052766,0.340592,-0.110147,-0.380179,-0.918331,0.021967,0.018149,0.124599,-23.643463,-3.231941,-37.477577,,,,,,,
1512178913.022870,-0.123076,0.389285,-2.277978,-0.110329,-0.011831,0.455425,-0.113580,-0.379527,-0.918182,0.008478,-0.004003,0.036469,-23.042297,-2.931038,-37.857536,,,,,,,
1512178913.042889,-0.128108,0.381460,-2.268338,-0.453871,-0.100102,0.532226,-0.118575,-0.372276,-0.920516,-0.000078,0.015648,-0.079011,-23.639862,-2.406944,-37.702202,,,,,,,
1512178913.062878,-0.135405,0.368063,-2.259375,-0.674105,-0.242442,0.498691,-0.125951,-0.359809,-0.924486,-0.015040,0.039069,-0.176909,-23.562836,-1.956825,-37.702629,,,,,,,
1512178913.082867,-0.142655,0.353961,-2.253149,-0.602122,-0.239868,0.336640,-0.133358,-0.346616,-0.928479,0.014050,0.058729,-0.220996,-23.933975,-1.132378,-37.399055,,,,,,,
1512178913.102856,-0.147941,0.345146,-2.249953,-0.286128,-0.166449,0.183695,-0.138709,-0.338334,-0.930747,0.024452,-0.006026,-0.180246,-23.856613,-0.607262,-37.399452,,,,,,,
1512178913.122876,-0.150618,0.341607,-2.246731,-0.122518,-0.000710,0.226087,-0.141379,-0.335002,-0.931550,0.027457,-0.071630,-0.072356,-24.078491,0.067406,-37.247231,,,,,,,
1512178913.142865,-0.149353,0.333861,-2.240988,-0.536101,0.242873,0.428823,-0.140582,-0.327693,-0.934267,0.061984,-0.054509,-0.069289,-24.228302,0.142189,-37.545921,,,,,,,
1512178913.162854,-0.147630,0.313797,-2.232795,-1.141315,0.155084,0.599912,-0.139911,-0.308672,-0.940822,0.120120,0.055163,-0.262547,-23.849670,0.967751,-37.698723,,,,,,,
1512178913.182873,-0.152938,0.287557,-2.224395,-1.197011,-0.337422,0.592063,-0.146087,-0.283610,-0.947747,0.151596,0.143656,-0.368797,-24.072235,1.492424,-37.546577,,,,,,,
1512178913.202862,-0.167016,0.268713,-2.217969,-0.623583,-0.715353,0.385842,-0.160275,-0.265491,-0.950698,0.132657,0.150806,-0.240663,-24.140564,2.917320,-37.020287,,,,,,,
1512178913.222852,-0.180031,0.266119,-2.213716,0.226582,-0.409200,0.175353,-0.172757,-0.262989,-0.949206,0.089963,0.050877,0.036440,-24.511139,3.891762,-36.941643,,,,,,,
1512178913.242841,-0.178894,0.277911,-2.209583,0.791580,0.480571,0.089621,-0.171114,-0.274347,-0.946284,0.129579,0.001245,0.221614,-24.660416,4.041527,-36.865303,,,,,,,
1512178913.262860,-0.159569,0.293193,-2.203920,0.728285,1.336916,0.220679,-0.152112,-0.289010,-0.945164,0.188245,-0.042014,0.180241,-23.391190,2.843437,-37.626686,,,,,,,
1512178913.282849,-0.132985,0.302151,-2.195090,0.394467,1.445893,0.493397,-0.126587,-0.297575,-0.946269,0.222763,-0.018603,0.033504,-22.342804,2.545006,-38.160744,,,,,,,
1512178913.302838,-0.113046,0.306221,-2.181508,0.227591,1.039307,0.701709,-0.107558,-0.301458,-0.947394,0.194929,0.053685,0.002432,-21.667984,2.546028,-38.541481,,,,,,,
1512178913.322858,-0.102743,0.307564,-2.166739,0.088870,0.571255,0.687411,-0.097749,-0.302738,-0.948048,0.146059,0.091908,0.052464,-20.841156,2.997261,-38.923286,,,,,,,
1512178913.342847,-0.099631,0.304951,-2.154113,-0.161433,0.232440,0.593058,-0.094877,-0.300246,-0.949131,0.127454,0.076843,0.093953,-20.390503,3.147942,-39.002037,,,,,,,
1512178913.362836,-0.102155,0.299610,-2.143532,-0.203271,-0.064460,0.529586,-0.097434,-0.295148,-0.950471,0.121665,0.050855,0.147492,-20.388184,3.672935,-39.076790,,,,,,,
1512178913.382855,-0.108438,0.295844,-2.133192,-0.091573,-0.163649,0.539389,-0.103524,-0.291547,-0.950938,0.101143,0.008939,0.232722,-20.835892,4.197273,-39.222725,,,,,,,
1512178913.402844,-0.113525,0.293585,-2.121640,-0.032842,-0.022688,0.604693,-0.108434,-0.289385,-0.951051,0.075322,-0.013059,0.250840,-20.834778,4.422264,-38.997612,,,,,,,
1512178913.422833,-0.116658,0.291458,-2.108665,-0.037572,0.039198,0.635754,-0.111485,-0.287349,-0.951316,0.064381,-0.011388,0.225547,-20.382965,4.797951,-38.776283,,,,,,,
1512178913.442822,-0.119734,0.289540,-2.097430,-0.016711,0.003114,0.532523,-0.114476,-0.285512,-0.951514,0.013249,0.032384,0.129004,-20.455643,5.322838,-38.850410,,,,,,,
1512178913.462842,-0.123109,0.288093,-2.088617,-0.026272,-0.062865,0.397831,-0.117738,-0.284125,-0.951531,0.013169,0.025854,0.046380,-20.607071,5.022606,-38.999260,,,,,,,
1512178913.482831,-0.127451,0.286814,-2.081382,0.005179,-0.138587,0.361777,-0.121914,-0.282898,-0.951370,0.008618,-0.000107,-0.019470,-20.380722,5.322945,-39.001030,,,,,,,
1512178913.502820,-0.133414,0.288103,-2.074070,0.192861,-0.218399,0.354625,-0.127536,-0.284134,-0.950264,-0.031339,-0.020828,-0.035698,-20.982330,4.947044,-38.846107,,,,,,,
1512178913.522839,-0.139905,0.293240,-2.066571,0.351277,-0.199924,0.316473,-0.133497,-0.289055,-0.947959,-0.099520,-0.042610,-0.018274,-20.830505,5.322273,-38.547218,,,,,,,
1512178913.542828,-0.144746,0.299563,-2.060961,0.334490,-0.129165,0.174692,-0.137818,-0.295103,-0.945474,-0.163940,-0.047640,-0.004813,-20.679855,5.472496,-38.623421,,,,,,,
1512178913.562817,-0.146949,0.303734,-2.059940,0.130418,-0.075612,-0.053014,-0.139718,-0.299086,-0.943942,-0.185553,-0.061480,-0.013562,-20.606964,5.022606,-38.774269,,,,,,,
1512178913.582806,-0.146224,0.303171,-2.064413,-0.159156,-0.004068,-0.268043,-0.139059,-0.298548,-0.944209,-0.158854,-0.092077,-0.079152,-20.607300,4.947609,-38.774300,,,,,,,
1512178913.602826,-0.144735,0.299342,-2.073061,-0.281472,-0.065914,-0.417146,-0.137816,-0.294891,-0.945540,-0.121446,-0.130859,-0.164445,-20.756851,5.022392,-38.547997,,,,,,,
1512178913.622815,-0.144713,0.295361,-2.083731,-0.243290,-0.207808,-0.476786,-0.137964,-0.291085,-0.946697,-0.106756,-0.160453,-0.187947,-21.056168,5.171944,-38.545372,,,,,,,
1512178913.642804,-0.146668,0.293416,-2.094759,-0.138343,-0.249246,-0.507390,-0.139896,-0.289224,-0.946984,-0.163601,-0.197958,-0.105339,-21.504822,5.471260,-38.541405,,,,,,,
1512178913.662823,-0.145868,0.291233,-2.107062,-0.267102,-0.023922,-0.575636,-0.139231,-0.287133,-0.947718,-0.221624,-0.228156,-0.019583,-21.731430,5.095924,-38.389671,,,,,,,
1512178913.682812,-0.136544,0.280879,-2.121383,-0.857080,0.447355,-0.588936,-0.130786,-0.277201,-0.951869,-0.200543,-0.205740,-0.145223,-21.880768,5.245705,-38.388329,,,,,,,
1512178913.702801,-0.120065,0.258873,-2.135364,-1.293323,0.701674,-0.434466,-0.115785,-0.255992,-0.959720,-0.094114,-0.114431,-0.382260,-21.279114,5.621605,-38.468254,,,,,,,
1512178913.722821,-0.102656,0.234162,-2.144420,-1.190225,0.749475,-0.219595,-0.099679,-0.232028,-0.967588,0.003427,0.013720,-0.463701,-20.224091,6.748192,-38.551659,,,,,,,
1512178913.742810,-0.089789,0.219622,-2.151666,-0.430602,0.441086,-0.335458,-0.087515,-0.217860,-0.972048,0.024114,0.179591,-0.336683,-20.296387,7.348076,-38.550743,,,,,,,
1512178913.762799,-0.082832,0.223649,-2.163415,0.477561,0.103572,-0.732842,-0.080677,-0.221790,-0.971751,-0.024350,0.221637,-0.183888,-20.371872,7.272972,-38.850136,,,,,,,
1512178913.782788,-0.077133,0.241349,-2.182736,0.935894,0.076193,-1.117539,-0.074823,-0.239013,-0.968129,-0.056112,0.123458,-0.020274,-20.376968,6.147957,-38.925652,,,,,,,
1512178913.802808,-0.069751,0.263391,-2.206052,1.039350,0.078626,-1.184256,-0.067291,-0.260356,-0.963165,-0.047944,0.024410,0.100021,-20.832413,4.947273,-38.997383,,,,,,,
1512178913.822797,-0.061665,0.284792,-2.227251,0.958187,0.160341,-0.978335,-0.059144,-0.280957,-0.957896,-0.033843,-0.021762,0.156627,-20.838226,3.672264,-39.147972,,,,,,,
1512178913.842786,-0.051988,0.302407,-2.243051,0.761391,0.323942,-0.672525,-0.049607,-0.297819,-0.953333,-0.003677,0.002241,0.138330,-20.994598,2.322029,-39.747307,,,,,,,
1512178913.862805,-0.041976,0.316126,-2.253409,0.623981,0.317888,-0.421885,-0.039884,-0.310887,-0.949610,0.013975,0.048222,0.065195,-20.394180,2.397926,-39.602379,,,,,,,
1512178913.882794,-0.037044,0.328826,-2.260427,0.639972,0.016459,-0.306498,-0.035051,-0.322933,-0.945773,0.012071,0.098354,0.059023,-20.398270,1.497932,-39.677803,,,,,,,
1512178913.902783,-0.038719,0.342667,-2.266419,0.703423,-0.278305,-0.290617,-0.036459,-0.336000,-0.941156,0.006231,0.119020,0.128824,-20.398758,1.422920,-39.977837,,,,,,,
1512178913.922772,-0.043990,0.356860,-2.272088,0.687979,-0.363832,-0.262350,-0.041205,-0.349334,-0.936092,0.013358,0.113052,0.223384,-20.779465,0.147362,-39.900230,,,,,,,
1512178913.942792,-0.047954,0.370642,-2.276337,0.680371,-0.186689,-0.180826,-0.044681,-0.362214,-0.931024,0.027332,0.107957,0.281060,-21.455704,-0.153664,-39.669640,,,,,,,
1512178913.962781,-0.047763,0.384133,-2.278336,0.654068,0.072606,-0.059840,-0.044266,-0.374756,-0.926066,0.032608,0.110275,0.271541,-21.535873,-1.278786,-39.894508,,,,,,,
1512178913.982770,-0.045376,0.395712,-2.277472,0.523991,0.154396,0.075018,-0.041855,-0.385465,-0.921773,0.036469,0.126951,0.223515,-21.233444,-0.753334,-39.746819,,,,,,,
1512178914.002789,-0.044577,0.403310,-2.274486,0.294267,0.057723,0.166230,-0.040987,-0.392465,-0.918853,0.031328,0.152124,0.180862,-21.086807,-1.503105,-39.748436,,,,,,,
1512178914.022778,-0.046996,0.405307,-2.270838,-0.008829,-0.113676,0.178300,-0.043172,-0.394301,-0.917967,0.025915,0.164809,0.134321,-21.163834,-1.953224,-39.748009,,,,,,,
1512178914.042766,-0.053847,0.401013,-2.267732,-0.315859,-0.373690,0.166553,-0.049551,-0.390351,-0.919332,0.026388,0.159501,0.092244,-21.163910,-1.953224,-39.898018,,,,,,,
1512178914.062786,-0.063250,0.392837,-2.265449,-0.418684,-0.407955,0.129765,-0.058394,-0.382811,-0.921979,0.020094,0.146574,0.096342,-21.535507,-1.203773,-39.819481,,,,,,,
1512178914.082775,-0.069329,0.385521,-2.264091,-0.308013,-0.166295,0.088499,-0.064189,-0.376042,-0.924376,0.002849,0.109593,0.077147,-21.982315,-0.529457,-39.515343,,,,,,,
1512178914.102764,-0.069279,0.381433,-2.263551,-0.145818,0.126759,0.028972,-0.064249,-0.372251,-0.925906,0.005716,0.110105,0.022707,-22.207275,-0.529793,-39.438438,,,,,,,
1512178914.122753,-0.064068,0.379152,-2.264835,-0.129144,0.300021,-0.069330,-0.059477,-0.370133,-0.927073,0.036238,0.089173,-0.050619,-21.983398,-0.754448,-39.665443,,,,,,,
1512178914.142772,-0.057463,0.374515,-2.267173,-0.313600,0.261287,-0.068937,-0.053450,-0.365821,-0.929149,0.087874,0.038337,-0.151936,-21.832993,-0.679222,-39.516685,,,,,,,
1512178914.162761,-0.053866,0.366174,-2.268463,-0.464313,0.099595,0.011467,-0.050271,-0.358046,-0.932350,0.107903,-0.004641,-0.213448,-21.606445,-0.303886,-39.818428,,,,,,,
1512178914.182750,-0.054331,0.357293,-2.267898,-0.404077,-0.064990,0.100250,-0.050875,-0.349740,-0.935465,0.079394,-0.037193,-0.186468,-21.681305,-0.228996,-40.192757,,,,,,,
1512178914.202770,-0.056268,0.349977,-2.265738,-0.358021,0.009746,0.155547,-0.052830,-0.342876,-0.937894,0.029545,-0.074924,-0.062884,-21.453156,0.446342,-39.969368,,,,,,,
1512178914.222759,-0.052569,0.339809,-2.261980,-0.629326,0.432105,0.272483,-0.049540,-0.333307,-0.941516,0.048701,-0.064535,-0.029660,-21.077362,0.596901,-39.747475,,,,,,,
1512178914.242748,-0.041103,0.320137,-2.254320,-1.169225,0.790791,0.513236,-0.039003,-0.314697,-0.948391,0.132723,-0.015366,-0.246968,-21.072632,1.646919,-39.746986,,,,,,,
1512178914.262737,-0.032443,0.292770,-2.243421,-1.384325,0.411060,0.609007,-0.031057,-0.288605,-0.956944,0.191030,0.078492,-0.446407,-20.395416,2.172935,-40.052483,,,,,,,
1512178914.282757,-0.035525,0.268542,-2.232020,-1.004908,-0.226021,0.584573,-0.034245,-0.265326,-0.963550,0.202488,0.120123,-0.440792,-20.389679,3.447945,-40.051903,,,,,,,
1512178914.302746,-0.047354,0.256758,-2.222387,-0.303829,-0.510989,0.464746,-0.045785,-0.253946,-0.966134,0.144464,0.069040,-0.208960,-20.233124,4.873177,-39.752510,,,,,,,
1512178914.322735,-0.055037,0.257380,-2.213720,0.227142,-0.041152,0.417569,-0.053198,-0.254548,-0.965596,0.116186,0.008179,0.036336,-20.830429,5.472282,-39.747139,,,,,,,
1512178914.342754,-0.048979,0.263221,-2.205618,0.304405,0.646886,0.421085,-0.047273,-0.260192,-0.964399,0.186235,-0.007646,0.056760,-20.232864,4.948174,-39.902473,,,,,,,
1512178914.362743,-0.036728,0.265802,-2.195315,0.041737,0.718812,0.579572,-0.035430,-0.262683,-0.964231,0.262832,-0.006253,-0.051119,-19.856277,5.323738,-40.130486,,,,,,,
1512178914.382732,-0.032637,0.263480,-2.180912,-0.151001,0.157275,0.796562,-0.031505,-0.260442,-0.964975,0.258098,0.034230,-0.062506,-19.253998,5.849648,-40.285347,,,,,,,
1512178914.402752,-0.042015,0.259401,-2.163540,-0.162369,-0.433604,0.876433,-0.040597,-0.256502,-0.965691,0.176538,0.062517,0.092949,-19.775925,6.523857,-40.205574,,,,,,,
1512178914.422741,-0.057019,0.257241,-2.146964,0.012957,-0.532488,0.776284,-0.055113,-0.254414,-0.965524,0.101897,0.068394,0.278192,-19.623444,7.049095,-39.981606,,,,,,,
1512178914.442730,-0.067824,0.260454,-2.133169,0.328317,-0.199466,0.610377,-0.065487,-0.257520,-0.964051,0.059841,0.036450,0.407594,-20.074570,6.748405,-39.527916,,,,,,,
1512178914.462719,-0.068565,0.270179,-2.121577,0.629867,0.302170,0.514149,-0.066026,-0.266904,-0.961459,0.047700,-0.009127,0.423479,-19.551514,6.374199,-40.057564,,,,,,,
1512178914.482738,-0.061246,0.283980,-2.110478,0.757147,0.608955,0.503200,-0.058756,-0.280178,-0.958148,0.040293,-0.028614,0.351443,-19.553284,5.999199,-40.207726,,,,,,,
1512178914.502727,-0.052092,0.297787,-2.099677,0.670942,0.577869,0.493316,-0.049776,-0.293405,-0.954691,0.044756,-0.036841,0.251963,-18.880081,5.625206,-40.438637,,,,,,,
1512178914.522716,-0.047316,0.307280,-2.088649,0.383147,0.293190,0.541458,-0.045083,-0.302467,-0.952093,0.017617,-0.072212,0.157354,-18.654556,5.775536,-40.740486,,,,,,,
1512178914.542736,-0.048975,0.310337,-2.076705,0.069581,0.013790,0.600971,-0.046617,-0.305379,-0.951089,0.002199,-0.066431,0.085946,-18.428207,6.075874,-40.742256,,,,,,,
1512178914.562725,-0.054180,0.309090,-2.063287,-0.052558,-0.073107,0.699112,-0.051587,-0.304192,-0.951213,-0.032718,-0.074501,0.001399,-18.654221,5.850548,-40.740456,,,,,,,
1512178914.582714,-0.061181,0.307716,-2.048090,-0.000337,-0.139379,0.761469,-0.058270,-0.302882,-0.951245,-0.085818,-0.051259,-0.074741,-18.878311,6.075203,-40.963432,,,,,,,
1512178914.602703,-0.071369,0.306810,-2.032884,-0.023312,-0.388228,0.719758,-0.067978,-0.302020,-0.950875,-0.163040,-0.062528,-0.128379,-18.499863,6.825768,-40.816261,,,,,,,
1512178914.622722,-0.087795,0.302192,-2.019854,-0.305273,-0.759092,0.604581,-0.083709,-0.297613,-0.951010,-0.242982,-0.083353,-0.135386,-19.024338,6.899986,-40.436775,,,,,,,
1512178914.642711,-0.106565,0.290772,-2.010959,-0.624240,-0.725045,0.425243,-0.101899,-0.286692,-0.952588,-0.302383,-0.052893,-0.114764,-19.545074,7.799202,-39.981895,,,,,,,
1512178914.662700,-0.116028,0.278445,-2.007265,-0.515845,-0.231889,0.147091,-0.111308,-0.274861,-0.955019,-0.314412,0.010762,-0.242384,-19.994965,7.798531,-39.753075,,,,,,,
1512178914.682720,-0.116007,0.273485,-2.010062,-0.076569,0.017353,-0.232658,-0.111445,-0.270088,-0.956364,-0.262838,0.047462,-0.401393,-20.217926,8.248192,-39.750954,,,,,,,
1512178914.702709,-0.115848,0.279763,-2.020268,0.435725,-0.242709,-0.668554,-0.111096,-0.276128,-0.954679,-0.197758,0.038396,-0.393542,-20.070938,7.573418,-39.677544,,,,,,,
1512178914.722698,-0.118777,0.293156,-2.037672,0.594503,-0.435162,-0.997402,-0.113442,-0.288975,-0.950592,-0.183006,-0.089992,-0.231522,-20.977081,6.222054,-39.820518,,,,,,,
1512178914.742717,-0.120776,0.306159,-2.059849,0.459567,-0.379519,-1.151610,-0.114880,-0.301398,-0.946553,-0.155033,-0.184838,-0.086971,-21.277573,6.071602,-39.443031,,,,,,,
1512178914.762706,-0.117841,0.314412,-2.082835,0.145063,-0.054359,-1.069750,-0.111805,-0.309258,-0.944383,-0.104427,-0.223228,-0.026747,-21.727951,5.995934,-39.514244,,,,,,,
1512178914.782695,-0.108170,0.313096,-2.103568,-0.356526,0.250030,-0.892596,-0.102710,-0.308005,-0.945824,0.002384,-0.115411,-0.164573,-21.355316,5.471489,-39.517677,,,,,,,
1512178914.802684,-0.099105,0.305565,-2.121994,-0.451294,0.104381,-0.777209,-0.094360,-0.300832,-0.948998,0.065139,0.022191,-0.257973,-21.883011,4.870705,-39.513481,,,,,,,
1512178914.822704,-0.095520,0.303093,-2.138796,-0.002561,-0.165168,-0.785503,-0.091028,-0.298474,-0.950067,0.061517,0.105038,-0.178107,-21.955948,5.320595,-39.437645,,,,,,,
1512178914.842693,-0.094735,0.310345,-2.156564,0.417288,-0.209161,-0.907506,-0.090074,-0.305388,-0.947958,0.022524,0.105803,0.010123,-22.482300,5.019798,-39.433327,,,,,,,
1512178914.862682,-0.091143,0.322840,-2.176010,0.582793,-0.054938,-0.980259,-0.086314,-0.317261,-0.944402,0.019603,0.089692,0.159002,-22.263000,3.745125,-39.360817,,,,,,,
1512178914.882702,-0.082449,0.335877,-2.195599,0.550269,0.240811,-0.932794,-0.077754,-0.329597,-0.940914,0.020061,0.071876,0.204815,-22.341080,3.070015,-39.435493,,,,,,,
1512178914.902691,-0.069324,0.347519,-2.213125,0.502248,0.429525,-0.792117,-0.065127,-0.340566,-0.937962,0.020053,0.084600,0.189641,-22.271286,1.945122,-39.736656,,,,,,,
1512178914.922680,-0.054422,0.357977,-2.227575,0.470068,0.525332,-0.645129,-0.050947,-0.350380,-0.935221,0.023115,0.146035,0.141459,-22.500336,1.044777,-39.735146,,,,,,,
1512178914.942669,-0.040552,0.368073,-2.240173,0.490004,0.419447,-0.567391,-0.037825,-0.359818,-0.932256,0.014098,0.187287,0.107915,-21.977249,0.670555,-40.189796,,,,,,,
1512178914.962688,-0.030878,0.378719,-2.251725,0.517967,0.190822,-0.528335,-0.028686,-0.369730,-0.928696,-0.006227,0.207850,0.133423,-21.754959,0.070885,-40.191978,,,,,,,
1512178914.982677,-0.025336,0.388119,-2.263015,0.401345,0.022906,-0.510352,-0.023449,-0.378448,-0.925325,-0.012043,0.207153,0.183855,-21.756073,-0.154106,-40.417091,,,,,,,
1512178915.002666,-0.021842,0.394740,-2.273618,0.281010,-0.032935,-0.456857,-0.020161,-0.384569,-0.922876,-0.024532,0.172639,0.226511,-21.534531,-0.903786,-40.569344,,,,,,,
1512178915.022686,-0.018432,0.399387,-2.282916,0.182980,0.026608,-0.391974,-0.016981,-0.388854,-0.921143,-0.021014,0.167876,0.233872,-21.686661,-1.429008,-40.118309,,,,,,,
1512178915.042651,-0.014263,0.401533,-2.291188,0.053366,0.064788,-0.352141,-0.013128,-0.390830,-0.920369,-0.006800,0.176536,0.199300,-21.539444,-2.028786,-40.269859,,,,,,,
1512178915.062640,-0.009981,0.401899,-2.298919,0.013532,0.073225,-0.328170,-0.009186,-0.391167,-0.920274,0.015228,0.173394,0.141648,-21.389252,-1.953560,-40.571098,,,,,,,
1512178915.082659,-0.005741,0.403400,-2.305803,0.118155,0.093565,-0.272217,-0.005280,-0.392547,-0.919717,0.051087,0.148529,0.109048,-21.538879,-1.878792,-40.494789,,,,,,,
1512178915.102648,-0.001268,0.407495,-2.310975,0.260697,0.156644,-0.184643,-0.001164,-0.396311,-0.918115,0.092091,0.121149,0.090814,-21.540298,-2.178795,-40.644936,,,,,,,
1512178915.122637,0.002753,0.414211,-2.313429,0.372194,0.153298,-0.029529,0.002520,-0.402468,-0.915430,0.096723,0.059298,0.057719,-21.393036,-2.778572,-40.721489,,,,,,,
1512178915.142626,0.003622,0.421885,-2.311966,0.363788,0.022606,0.150056,0.003304,-0.409480,-0.912313,0.057380,0.019222,0.043691,-21.542969,-2.778801,-40.570213,,,,,,,
1512178915.162646,-0.000009,0.426488,-2.307712,0.125548,-0.150976,0.237683,-0.000008,-0.413676,-0.910424,0.045312,0.007532,0.044702,-21.094681,-3.153114,-40.649208,,,,,,,
1512178915.182635,-0.007348,0.425017,-2.301901,-0.214658,-0.279808,0.304801,-0.006694,-0.412336,-0.911007,0.038326,-0.046710,0.017224,-21.618866,-3.003914,-40.344673,,,,,,,
1512178915.202624,-0.018770,0.415650,-2.294088,-0.611504,-0.486848,0.440115,-0.017171,-0.403785,-0.914693,0.045018,-0.072198,-0.033488,-21.693222,-2.854012,-40.418968,,,,,,,
1512178915.222643,-0.034662,0.397965,-2.283797,-1.013327,-0.653264,0.556310,-0.031946,-0.387543,-0.921298,0.063486,-0.055267,-0.109830,-22.289398,-2.029915,-40.188484,,,,,,,
1512178915.242632,-0.053809,0.374238,-2.272477,-1.241817,-0.826812,0.634484,-0.050061,-0.365563,-0.929439,0.043927,-0.059562,-0.155842,-22.961212,-1.355919,-39.882439,,,,,,,
1512178915.262621,-0.074393,0.348487,-2.261591,-1.265604,-0.838512,0.589323,-0.069857,-0.341476,-0.937291,0.020007,-0.023652,-0.145427,-23.329498,0.068535,-39.278587,,,,,,,
1512178915.282610,-0.090824,0.325084,-2.254386,-1.071970,-0.600634,0.365886,-0.085949,-0.319389,-0.943718,-0.012669,-0.019509,-0.107338,-24.674026,1.266518,-39.116570,,,,,,,
1512178915.302630,-0.098722,0.306652,-2.252576,-0.825302,-0.214116,0.101091,-0.093964,-0.301868,-0.948708,-0.009582,-0.031429,-0.098518,-24.671936,1.641518,-38.291405,,,,,,,
1512178915.322619,-0.099311,0.289718,-2.254376,-0.918232,0.002802,-0.006105,-0.095016,-0.285682,-0.953603,0.101424,0.010611,-0.209682,-24.592316,2.691628,-38.516548,,,,,,,
1512178915.342608,-0.100126,0.267606,-2.255799,-1.209396,-0.146382,0.123479,-0.096401,-0.264423,-0.959576,0.255932,0.065647,-0.398944,-24.587189,3.816643,-38.366035,,,,,,,
1512178915.362628,-0.109466,0.243535,-2.253317,-1.084401,-0.611292,0.343281,-0.106024,-0.241135,-0.964683,0.292669,0.100891,-0.464196,-24.884369,4.416191,-38.138206,,,,,,,
1512178915.382617,-0.127828,0.228957,-2.246898,-0.396472,-0.918064,0.438534,-0.124153,-0.226962,-0.965958,0.242516,0.122073,-0.287857,-26.002060,5.914528,-37.002968,,,,,,,
1512178915.402606,-0.145057,0.229437,-2.238745,0.332055,-0.575111,0.430026,-0.140761,-0.227429,-0.963568,0.165144,0.067547,-0.010508,-26.678116,5.613503,-36.397362,,,,,,,
1512178915.422625,-0.149486,0.239044,-2.228037,0.617206,0.201762,0.500822,-0.144695,-0.236774,-0.960730,0.148128,0.009418,0.114828,-26.302170,5.839073,-36.550453,,,,,,,
1512178915.442614,-0.141730,0.246718,-2.213884,0.347991,0.718926,0.754575,-0.136979,-0.244223,-0.959996,0.180252,-0.024652,0.045735,-26.002106,5.914528,-37.077965,,,,,,,
1512178915.462603,-0.132809,0.245556,-2.194359,-0.074419,0.593713,1.087026,-0.128447,-0.243096,-0.961460,0.195967,0.027764,-0.073391,-25.027023,5.990990,-37.611198,,,,,,,
1512178915.482592,-0.133002,0.238456,-2.170845,-0.232953,0.065484,1.236403,-0.128858,-0.236203,-0.963122,0.167325,0.095532,-0.071836,-25.248123,6.815651,-37.233910,,,,,,,
1512178915.502612,-0.143353,0.231702,-2.147302,-0.111431,-0.382805,1.150253,-0.139044,-0.229634,-0.963294,0.116217,0.134877,0.077216,-25.319702,7.565544,-37.157936,,,,,,,
1512178915.522601,-0.156581,0.229565,-2.127220,0.142964,-0.393700,0.915105,-0.151851,-0.227554,-0.961853,0.068202,0.103896,0.274978,-25.542160,8.090202,-36.780785,,,,,,,
1512178915.542590,-0.163953,0.233024,-2.110633,0.392584,-0.008399,0.730304,-0.158808,-0.230920,-0.959925,0.049296,0.050089,0.387034,-25.467651,8.015327,-37.081444,,,,,,,
1512178915.562609,-0.162379,0.240833,-2.096035,0.554598,0.399043,0.622132,-0.157001,-0.238511,-0.958365,0.053928,0.009279,0.413519,-25.093063,7.940880,-37.234673,,,,,,,
1512178915.582598,-0.154273,0.250532,-2.082538,0.583065,0.655520,0.589323,-0.148864,-0.247919,-0.957275,0.054565,-0.036123,0.382522,-24.418961,7.791893,-37.690483,,,,,,,
1512178915.602587,-0.143506,0.259189,-2.068545,0.494593,0.735369,0.657615,-0.138237,-0.256297,-0.956662,0.036965,-0.067311,0.298932,-24.195908,7.417229,-38.217552,,,,,,,
1512178915.622576,-0.134035,0.265532,-2.053686,0.364859,0.625066,0.696926,-0.128950,-0.262423,-0.956298,0.015608,-0.038023,0.210967,-23.368286,8.018471,-38.374290,,,,,,,
1512178915.642596,-0.127876,0.269100,-2.039544,0.210761,0.417676,0.657726,-0.122938,-0.265864,-0.956139,-0.008883,-0.038717,0.113091,-22.843018,8.094261,-38.528725,,,,,,,
1512178915.662585,-0.126336,0.269886,-2.026352,0.077522,0.161132,0.644243,-0.121439,-0.266622,-0.956120,-0.064276,-0.062159,0.019871,-22.542374,8.244713,-38.606194,,,,,,,
1512178915.682574,-0.129395,0.269575,-2.014063,0.068763,-0.054540,0.582598,-0.124374,-0.266321,-0.955826,-0.118927,-0.055807,-0.023941,-22.692337,8.244484,-38.529930,,,,,,,
1512178915.702593,-0.134126,0.269925,-2.004067,0.084882,-0.096971,0.443029,-0.128882,-0.266659,-0.955135,-0.178781,-0.090870,-0.038380,-22.692001,8.319481,-38.529900,,,,,,,
1512178915.722582,-0.137156,0.270079,-1.996736,0.029105,-0.013527,0.339105,-0.131770,-0.266807,-0.954699,-0.228017,-0.136299,-0.071119,-22.765991,8.544380,-38.529152,,,,,,,
1512178915.742571,-0.137632,0.268006,-1.991911,-0.138316,0.085798,0.217626,-0.132300,-0.264809,-0.955182,-0.250894,-0.127662,-0.133593,-22.539520,8.844719,-38.305931,,,,,,,
1512178915.762591,-0.135926,0.262460,-1.990635,-0.332728,0.089041,0.047449,-0.130867,-0.259457,-0.956847,-0.241279,-0.082706,-0.233720,-22.163467,9.070274,-38.234001,,,,,,,
1512178915.782580,-0.134973,0.254566,-1.994320,-0.439687,-0.055914,-0.196599,-0.130227,-0.251825,-0.958971,-0.230918,-0.057196,-0.298597,-22.314072,8.920052,-38.082802,,,,,,,
1512178915.802569,-0.135828,0.247619,-2.003885,-0.360003,-0.196176,-0.510421,-0.131281,-0.245096,-0.960569,-0.224890,-0.059118,-0.272555,-22.689758,8.769493,-38.079689,,,,,,,
1512178915.822558,-0.135354,0.244441,-2.019643,-0.199076,-0.116257,-0.826561,-0.130930,-0.242013,-0.961398,-0.230520,-0.119055,-0.179105,-22.762573,9.219383,-37.778847,,,,,,,
1512178915.842577,-0.129632,0.243326,-2.040021,-0.205662,0.173546,-0.995153,-0.125461,-0.240932,-0.962399,-0.217114,-0.180852,-0.104099,-23.064529,8.768929,-37.626503,,,,,,,
1512178915.862566,-0.115984,0.239122,-2.061451,-0.433118,0.580094,-0.952261,-0.112431,-0.236849,-0.965019,-0.161113,-0.160047,-0.168053,-23.214981,8.693703,-37.850258,,,,,,,
1512178915.882556,-0.095708,0.228514,-2.081535,-0.719866,0.867926,-0.873321,-0.093078,-0.226531,-0.969546,-0.056153,-0.005342,-0.329129,-22.465271,8.619820,-37.781670,,,,,,,
1512178915.902575,-0.075068,0.216346,-2.100778,-0.596730,0.735603,-0.848547,-0.073249,-0.214662,-0.973938,0.016090,0.113923,-0.420517,-22.540085,8.694710,-38.081001,,,,,,,
1512178915.922564,-0.062171,0.212194,-2.119718,-0.039364,0.273005,-0.925236,-0.060738,-0.210605,-0.975683,0.008888,0.191654,-0.339900,-22.167831,8.095268,-38.159462,,,,,,,
1512178915.942553,-0.056947,0.220496,-2.141310,0.574766,-0.072797,-1.141415,-0.055538,-0.218714,-0.974207,-0.056233,0.191523,-0.106573,-22.773071,6.969368,-38.529884,,,,,,,
1512178915.962542,-0.052116,0.237979,-2.167680,0.897732,0.013653,-1.392287,-0.050624,-0.235739,-0.970497,-0.086354,0.149573,0.119896,-22.624649,6.594582,-38.306328,,,,,,,
1512178915.982562,-0.041491,0.258178,-2.197474,0.939896,0.263850,-1.480354,-0.040104,-0.255319,-0.966025,-0.085536,0.130411,0.188605,-22.556183,5.169685,-38.532616,,,,,,,
1512178916.002551,-0.026670,0.275750,-2.226787,0.738641,0.400026,-1.359137,-0.025659,-0.272269,-0.961879,-0.051398,0.017691,0.231807,-22.711349,4.044456,-38.756859,,,,,,,
1512178916.022540,-0.012238,0.286533,-2.252310,0.376395,0.323158,-1.116257,-0.011738,-0.282628,-0.959158,-0.016887,0.023412,0.155080,-22.717209,2.769447,-38.982445,,,,,,,
1512178916.042526,-0.004018,0.290688,-2.273054,0.124046,-0.020560,-0.892972,-0.003850,-0.286611,-0.958039,-0.004268,0.070531,0.087129,-22.194870,2.170235,-38.912193,,,,,,,
1512178916.062515,-0.004268,0.292752,-2.290148,0.114994,-0.366959,-0.749327,-0.004087,-0.288588,-0.957445,-0.042697,0.096816,0.110795,-22.499329,1.194771,-39.060081,,,,,,,
1512178916.082505,-0.008689,0.296547,-2.305805,0.235037,-0.440526,-0.727589,-0.008309,-0.292220,-0.956315,-0.072074,0.120726,0.186128,-22.725266,0.969429,-38.908287,,,,,,,
1512178916.102525,-0.010763,0.302989,-2.321961,0.355159,-0.242655,-0.761405,-0.010273,-0.298374,-0.954394,-0.071316,0.126011,0.230456,-23.176880,0.593758,-38.754631,,,,,,,
1512178916.122514,-0.007033,0.311717,-2.338393,0.473525,0.046986,-0.749086,-0.006694,-0.306693,-0.951785,-0.056737,0.101706,0.205447,-23.104126,0.068871,-38.530510,,,,,,,
1512178916.142503,-0.000238,0.322184,-2.353314,0.533561,0.118423,-0.637099,-0.000226,-0.316639,-0.948546,-0.024493,0.080616,0.143340,-23.334641,-1.131477,-38.754158,,,,,,,
1512178916.162492,0.003975,0.331331,-2.365128,0.390022,-0.037006,-0.473413,0.003758,-0.325302,-0.945603,-0.001851,0.076690,0.104996,-23.262939,-1.881371,-38.605141,,,,,,,
1512178916.182511,0.003458,0.336430,-2.373657,0.176302,-0.221364,-0.322574,0.003265,-0.330119,-0.943934,0.025620,0.083079,0.076243,-23.189636,-2.256264,-38.605949,,,,,,,
1512178916.202500,-0.000722,0.337998,-2.379342,0.033471,-0.333987,-0.200308,-0.000681,-0.331599,-0.943420,0.048441,0.092723,0.037552,-23.264374,-2.181374,-38.755272,,,,,,,
1512178916.222489,-0.007815,0.338265,-2.382706,0.017685,-0.447460,-0.088995,-0.007372,-0.331851,-0.943303,0.069246,0.075503,0.007436,-23.266922,-2.781380,-38.455559,,,,,,,
1512178916.242508,-0.018456,0.338675,-2.383173,0.011929,-0.569534,0.060814,-0.017406,-0.332237,-0.943035,0.073376,0.039497,0.012615,-23.640717,-2.556938,-38.077263,,,,,,,
1512178916.262497,-0.031468,0.337740,-2.380335,-0.085531,-0.591356,0.216035,-0.029685,-0.331356,-0.943039,0.072440,0.032451,0.032135,-24.092667,-3.007622,-37.923653,,,,,,,
1512178916.282486,-0.044417,0.334438,-2.375048,-0.196789,-0.517997,0.308495,-0.041943,-0.328238,-0.943663,0.073971,0.042029,0.032118,-24.467072,-2.858177,-38.070396,,,,,,,
1512178916.302475,-0.054634,0.328352,-2.368515,-0.334256,-0.337820,0.378556,-0.051690,-0.322483,-0.945163,0.091790,0.048115,-0.016171,-24.840607,-2.633736,-37.167107,,,,,,,
1512178916.322495,-0.061657,0.318655,-2.361134,-0.506561,-0.228151,0.424413,-0.058516,-0.313289,-0.947853,0.138426,0.058590,-0.146049,-24.912308,-1.883842,-37.316124,,,,,,,
1512178916.342484,-0.068973,0.307513,-2.353641,-0.498236,-0.332836,0.431632,-0.065685,-0.302689,-0.950823,0.170223,0.039002,-0.238172,-25.135178,-1.434181,-37.088997,,,,,,,
1512178916.362473,-0.080029,0.299913,-2.345341,-0.256973,-0.450048,0.469898,-0.076375,-0.295437,-0.952305,0.153646,-0.013844,-0.173382,-25.434006,-1.209633,-36.786354,,,,,,,
1512178916.382493,-0.091546,0.294593,-2.335592,-0.257118,-0.393579,0.546851,-0.087480,-0.290350,-0.952913,0.136415,-0.057977,-0.087782,-25.506424,-0.609734,-37.010429,,,,,,,
1512178916.402482,-0.100774,0.283149,-2.322734,-0.715091,-0.182189,0.789342,-0.096598,-0.279381,-0.955309,0.145334,-0.050392,-0.089262,-25.654129,-0.159966,-36.483955,,,,,,,
1512178916.422471,-0.108051,0.259826,-2.307183,-1.253618,-0.205720,0.927507,-0.104221,-0.256912,-0.960799,0.209018,0.098007,-0.264818,-26.025345,0.664482,-36.330376,,,,,,,
1512178916.442491,-0.121232,0.231631,-2.291840,-1.273890,-0.627653,0.907621,-0.117706,-0.229566,-0.966150,0.205520,0.181348,-0.316565,-26.165222,2.839272,-35.653114,,,,,,,
1512178916.462480,-0.139715,0.209789,-2.279471,-0.784644,-0.807039,0.709402,-0.136207,-0.208254,-0.968544,0.170768,0.214541,-0.183418,-26.611206,3.663612,-35.048912,,,,,,,
1512178916.482469,-0.153770,0.201066,-2.269858,-0.114144,-0.393221,0.474298,-0.150079,-0.199714,-0.968293,0.150003,0.160712,0.042710,-26.984344,4.038048,-34.670555,,,,,,,
1512178916.502458,-0.152825,0.203022,-2.261769,0.274964,0.462100,0.385896,-0.149105,-0.201630,-0.968046,0.189556,0.090180,0.134825,-26.609192,4.113609,-35.048698,,,,,,,
1512178916.522476,-0.138376,0.208020,-2.252255,0.312632,0.963959,0.519318,-0.134961,-0.206523,-0.969089,0.239743,0.040827,0.092731,-25.860458,3.889732,-35.580162,,,,,,,
1512178916.542465,-0.121678,0.211243,-2.238433,0.202963,0.949406,0.768199,-0.118680,-0.209675,-0.970542,0.228498,0.053822,0.066993,-25.033508,4.340965,-35.736977,,,,,,,
1512178916.562454,-0.109680,0.211599,-2.221520,0.071037,0.665935,0.867643,-0.107019,-0.210023,-0.971822,0.175836,0.088487,0.086430,-24.583435,4.416649,-36.265770,,,,,,,
1512178916.582474,-0.104131,0.210691,-2.205092,0.042074,0.337024,0.797852,-0.101644,-0.209136,-0.972590,0.123220,0.079558,0.162913,-24.131897,4.792320,-36.569420,,,,,,,
1512178916.602463,-0.102674,0.210560,-2.190693,0.093762,0.197369,0.694705,-0.100230,-0.209008,-0.972764,0.083918,0.040596,0.251817,-23.832123,4.717781,-36.346992,,,,,,,
1512178916.622452,-0.101034,0.212618,-2.177590,0.224756,0.261769,0.641394,-0.098591,-0.211019,-0.972497,0.070301,-0.001017,0.319253,-23.531250,4.943230,-36.649452,,,,,,,
1512178916.642442,-0.096782,0.216839,-2.164404,0.293852,0.415658,0.661054,-0.094368,-0.215144,-0.972012,0.047600,-0.054494,0.317654,-22.930573,5.094124,-36.654472,,,,,,,
1512178916.662461,-0.090135,0.221491,-2.150304,0.296376,0.523460,0.707307,-0.087815,-0.219684,-0.971611,0.033707,-0.074444,0.257194,-22.329758,5.320030,-37.034477,,,,,,,
1512178916.682450,-0.083415,0.225552,-2.135545,0.238197,0.480576,0.742561,-0.081208,-0.223644,-0.971282,0.017380,-0.085621,0.160964,-22.182602,4.720253,-37.336021,,,,,,,
1512178916.702439,-0.079536,0.227720,-2.120371,0.131095,0.282752,0.762707,-0.077401,-0.225757,-0.971104,-0.008552,-0.084668,0.045964,-21.731628,4.945930,-37.414742,,,,,,,
1512178916.722459,-0.080680,0.228012,-2.105224,0.047866,0.033750,0.755305,-0.078507,-0.226041,-0.970949,-0.017135,-0.076357,-0.037871,-21.279068,5.546608,-37.718285,,,,,,,
1512178916.742448,-0.086569,0.228090,-2.090345,0.099911,-0.210787,0.755209,-0.084221,-0.226117,-0.970452,-0.040977,-0.094500,-0.080512,-21.429260,5.471382,-37.417046,,,,,,,
1512178916.762437,-0.095955,0.230415,-2.074813,0.238055,-0.311030,0.777117,-0.093276,-0.228382,-0.969093,-0.105729,-0.116040,-0.053124,-21.277130,5.921608,-37.193108,,,,,,,
1512178916.782455,-0.106146,0.234365,-2.059419,0.267606,-0.324781,0.729523,-0.103051,-0.232225,-0.967188,-0.178993,-0.128767,0.003549,-21.580948,5.096153,-37.415947,,,,,,,
1512178916.802444,-0.114991,0.236199,-2.046267,0.084250,-0.252174,0.603456,-0.111552,-0.234009,-0.965814,-0.226537,-0.133743,0.049020,-21.728851,5.545937,-37.264458,,,,,,,
1512178916.822433,-0.120980,0.232930,-2.036793,-0.227481,-0.131624,0.442650,-0.117426,-0.230829,-0.965882,-0.246740,-0.115911,0.032380,-21.501114,6.146278,-37.191093,,,,,,,
1512178916.842422,-0.123732,0.223814,-2.032121,-0.520091,-0.064334,0.217969,-0.120338,-0.221950,-0.967604,-0.239830,-0.054524,-0.054873,-21.200027,6.371727,-37.043556,,,,,,,
1512178916.862442,-0.125597,0.211791,-2.034172,-0.636840,-0.140715,-0.140051,-0.122468,-0.210211,-0.969955,-0.235763,-0.008737,-0.116700,-21.047882,6.821953,-36.819618,,,,,,,
1512178916.882432,-0.125897,0.199538,-2.044383,-0.686821,-0.068447,-0.531767,-0.123073,-0.198216,-0.972401,-0.228718,-0.031352,-0.152660,-21.122849,6.821831,-36.743980,,,,,,,
1512178916.902421,-0.121388,0.186821,-2.061166,-0.758000,0.163759,-0.794242,-0.118983,-0.185736,-0.975369,-0.193837,-0.077036,-0.225116,-21.498108,6.746269,-36.590828,,,,,,,
1512178916.922440,-0.111476,0.172766,-2.081422,-0.837772,0.407442,-0.922476,-0.109589,-0.171908,-0.978998,-0.131301,-0.044706,-0.304296,-21.274796,6.446617,-37.267860,,,,,,,
1512178916.942430,-0.096906,0.157186,-2.102985,-0.914036,0.630612,-0.941996,-0.095561,-0.156539,-0.983038,-0.066365,-0.005661,-0.459436,-20.898224,6.747169,-36.820930,,,,,,,
1512178916.962419,-0.082204,0.139735,-2.123477,-0.964107,0.501173,-0.885604,-0.081311,-0.139281,-0.986909,0.008282,0.088866,-0.614013,-20.144028,7.648308,-36.526878,,,,,,,
1512178916.982408,-0.074951,0.124636,-2.143791,-0.690378,0.053092,-0.956754,-0.074300,-0.124314,-0.989457,0.048161,0.164643,-0.589156,-19.992935,7.873528,-36.378059,,,,,,,
1512178917.002427,-0.076016,0.120728,-2.166388,0.011939,-0.282998,-1.154565,-0.075390,-0.120435,-0.989854,0.019283,0.145902,-0.335951,-20.443573,7.722862,-36.299294,,,,,,,
1512178917.022416,-0.077267,0.132653,-2.191273,0.770034,-0.112810,-1.283710,-0.076512,-0.132264,-0.988257,-0.019085,0.051667,-0.016351,-21.045715,7.271950,-36.519402,,,,,,,
1512178917.042374,-0.070061,0.155936,-2.216130,1.197558,0.370630,-1.261973,-0.069154,-0.155305,-0.985443,-0.017516,-0.012206,0.180084,-20.903915,5.472160,-36.746513,,,,,,,
1512178917.062394,-0.054075,0.182274,-2.238710,1.230332,0.723936,-1.098226,-0.053153,-0.181266,-0.981997,-0.019525,-0.050576,0.236437,-20.608490,4.497612,-37.124504,,,,,,,
1512178917.082383,-0.034786,0.205503,-2.257884,1.037069,0.786234,-0.883336,-0.034047,-0.204060,-0.978366,-0.016810,-0.032131,0.224872,-20.164459,3.223274,-37.578926,,,,,,,
1512178917.102372,-0.017978,0.223538,-2.273686,0.794203,0.590043,-0.710571,-0.017529,-0.221681,-0.974962,-0.014545,0.010484,0.187456,-19.345612,1.874504,-37.736565,,,,,,,
1512178917.122391,-0.006903,0.237527,-2.286900,0.647855,0.297939,-0.577251,-0.006709,-0.235299,-0.971900,-0.023427,0.046396,0.153037,-18.901901,0.525169,-38.191002,,,,,,,
1512178917.142380,-0.002047,0.250250,-2.298000,0.640688,0.011455,-0.480276,-0.001984,-0.247646,-0.968848,-0.027603,0.074093,0.160239,-18.900970,0.750175,-38.340904,,,,,,,
1512178917.162369,-0.001747,0.263509,-2.307201,0.667870,-0.127546,-0.389750,-0.001687,-0.260470,-0.965481,-0.057746,0.082552,0.228008,-18.679047,0.075508,-38.418129,,,,,,,
1512178917.182358,-0.001307,0.276538,-2.314900,0.633840,-0.020905,-0.324842,-0.001258,-0.273027,-0.962006,-0.066720,0.093995,0.272614,-18.678925,0.075508,-38.193123,,,,,,,
1512178917.202378,0.002503,0.288264,-2.321367,0.559520,0.187167,-0.268695,0.002400,-0.284289,-0.958736,-0.055699,0.104601,0.249614,-18.682007,-0.599495,-38.268425,,,,,,,
1512178917.222367,0.009901,0.299325,-2.327188,0.558050,0.344129,-0.236186,0.009460,-0.294875,-0.955489,-0.014069,0.114882,0.187941,-18.383163,-0.824059,-38.571083,,,,,,,
1512178917.242356,0.019408,0.310479,-2.331719,0.565272,0.448660,-0.151498,0.018479,-0.305515,-0.952008,0.030121,0.125263,0.115170,-18.086655,-1.573601,-38.798988,,,,,,,
1512178917.262375,0.028670,0.321709,-2.334210,0.550490,0.403536,-0.033539,0.027195,-0.316189,-0.948306,0.063503,0.148327,0.052722,-17.640030,-2.322929,-38.803154,,,,,,,
1512178917.282364,0.034394,0.331650,-2.333934,0.457487,0.214054,0.101976,0.032513,-0.325604,-0.944947,0.075046,0.144436,0.015748,-17.189468,-2.172264,-39.031898,,,,,,,
1512178917.302353,0.034167,0.339919,-2.330790,0.381627,-0.046952,0.228963,0.032205,-0.333410,-0.942232,0.057883,0.135550,0.040010,-17.041870,-2.697044,-39.108421,,,,,,,
1512178917.322342,0.028749,0.346172,-2.325973,0.235894,-0.251278,0.263448,0.027040,-0.339299,-0.940290,0.032835,0.129582,0.084821,-16.965775,-2.471931,-38.958961,,,,,,,
1512178917.342362,0.020747,0.347450,-2.321196,-0.054668,-0.327493,0.232326,0.019506,-0.340501,-0.940042,0.027003,0.114625,0.098718,-17.192688,-2.922264,-38.732262,,,,,,,
1512178917.362351,0.013446,0.343422,-2.317273,-0.282153,-0.245524,0.196265,0.012661,-0.336712,-0.941523,0.036167,0.085079,0.061472,-17.266037,-2.547371,-38.806450,,,,,,,
1512178917.382340,0.008683,0.336227,-2.313236,-0.394353,-0.123962,0.218517,0.008197,-0.329928,-0.943971,0.073560,0.069994,-0.016189,-17.416748,-2.697594,-38.880241,,,,,,,
1512178917.402359,0.005361,0.327746,-2.308054,-0.445593,-0.051542,0.291588,0.005075,-0.321910,-0.946757,0.111456,0.036128,-0.101553,-17.563339,-1.947823,-38.803612,,,,,,,
1512178917.422348,0.001890,0.318286,-2.300848,-0.446750,-0.119104,0.422458,0.001795,-0.312939,-0.949771,0.108557,-0.005359,-0.170529,-17.338303,-1.947487,-38.730537,,,,,,,
1512178917.442337,-0.005519,0.309505,-2.291040,-0.424040,-0.278431,0.524575,-0.005256,-0.304587,-0.952470,0.057426,-0.013177,-0.109816,-17.483841,-0.972694,-38.578804,,,,,,,
1512178917.462357,-0.013675,0.298765,-2.280347,-0.617481,-0.229654,0.556055,-0.013069,-0.294340,-0.955611,0.042137,-0.010469,-0.031266,-17.709290,-1.048042,-38.801933,,,,,,,
1512178917.482346,-0.019201,0.279490,-2.267901,-1.166983,-0.080204,0.722383,-0.018455,-0.275866,-0.961019,0.093192,0.012362,-0.128596,-17.780167,-0.148140,-38.650871,,,,,,,
1512178917.502335,-0.027065,0.249107,-2.250928,-1.635574,-0.298196,0.941907,-0.026226,-0.246538,-0.968778,0.154034,0.102236,-0.326602,-17.917496,2.626656,-38.273323,,,,,,,
1512178917.522324,-0.043551,0.216619,-2.231375,-1.489874,-0.746747,1.005353,-0.042520,-0.214928,-0.975704,0.129586,0.197305,-0.339619,-18.210815,4.051201,-37.745110,,,,,,,
1512178917.542344,-0.062858,0.193507,-2.215189,-0.839140,-0.767616,0.719411,-0.061644,-0.192301,-0.979398,0.111907,0.237223,-0.196612,-18.506729,4.950768,-37.667152,,,,,,,
1512178917.562333,-0.073893,0.185879,-2.206128,-0.082013,-0.217733,0.344248,-0.072554,-0.184810,-0.980092,0.132338,0.144100,-0.018580,-19.032974,4.649971,-37.437828,,,,,,,
1512178917.582322,-0.069508,0.190343,-2.200135,0.402666,0.554390,0.276137,-0.068198,-0.189196,-0.979568,0.199927,0.030260,0.046158,-18.434174,4.425865,-37.818031,,,,,,,
1512178917.602341,-0.053724,0.200934,-2.191324,0.612583,1.027479,0.498298,-0.052618,-0.199585,-0.978467,0.245855,-0.039139,0.059064,-17.907471,4.801659,-37.822319,,,,,,,
1512178917.622330,-0.034237,0.211842,-2.176455,0.522071,1.129252,0.820357,-0.033465,-0.210261,-0.977072,0.238986,-0.026205,0.036444,-16.783417,4.653343,-38.356941,,,,,,,
1512178917.642319,-0.019085,0.218785,-2.156997,0.280938,0.831544,1.011981,-0.018628,-0.217044,-0.975984,0.181775,0.005450,0.030824,-15.809311,4.504814,-38.815300,,,,,,,
1512178917.662308,-0.013364,0.222321,-2.136185,0.164120,0.326080,1.024520,-0.013035,-0.220494,-0.975301,0.100269,0.034078,0.083532,-15.583252,4.730141,-38.742119,,,,,,,
1512178917.682328,-0.016306,0.225069,-2.117304,0.142846,-0.073156,0.873577,-0.015894,-0.223174,-0.974649,0.047586,0.035247,0.175516,-15.133301,4.730827,-38.820930,,,,,,,
1512178917.702317,-0.024230,0.227240,-2.101939,0.116474,-0.268368,0.717938,-0.023605,-0.225289,-0.974006,0.025985,-0.004173,0.275184,-15.282654,4.880608,-38.894600,,,,,,,
1512178917.722306,-0.031589,0.229271,-2.088063,0.132925,-0.127304,0.696277,-0.030757,-0.227267,-0.973347,0.021418,-0.061398,0.326862,-15.429321,5.630379,-38.967964,,,,,,,
1512178917.742325,-0.034051,0.232137,-2.073049,0.192649,0.158916,0.773830,-0.033131,-0.230057,-0.972613,-0.002315,-0.072219,0.296954,-15.054245,5.630943,-38.821159,,,,,,,
1512178917.762314,-0.032524,0.235460,-2.057252,0.171240,0.280633,0.784602,-0.031621,-0.233290,-0.971893,0.000081,-0.062089,0.185241,-14.605591,5.331612,-38.825127,,,,,,,
1512178917.782303,-0.034498,0.236192,-2.041511,-0.031626,-0.106361,0.785650,-0.033534,-0.234002,-0.971658,-0.002248,-0.088035,0.018792,-14.229691,5.557182,-39.053200,,,,,,,
1512178917.802323,-0.050217,0.229331,-2.025561,-0.494526,-0.894417,0.825237,-0.048882,-0.227326,-0.972591,-0.011054,-0.105651,-0.089787,-14.752563,6.006401,-38.823540,,,,,,,
1512178917.822312,-0.080173,0.213269,-2.010229,-0.846503,-1.539035,0.805104,-0.078273,-0.211656,-0.974205,-0.043736,-0.104811,-0.077919,-15.422867,6.980385,-38.217354,,,,,,,
1512178917.842301,-0.113691,0.196838,-1.996374,-0.621536,-1.398644,0.744885,-0.111255,-0.195569,-0.974359,-0.131268,-0.114871,0.006555,-16.543854,7.803703,-37.607414,,,,,,,
1512178917.862290,-0.133961,0.190799,-1.983724,0.061262,-0.534262,0.625593,-0.131137,-0.189643,-0.973056,-0.187543,-0.122582,0.012317,-17.065903,8.402931,-37.077675,,,,,,,
1512178917.882309,-0.135613,0.199051,-1.971643,0.698361,0.325798,0.498163,-0.132528,-0.197739,-0.971255,-0.221826,-0.133270,-0.093580,-16.842545,8.103264,-37.679710,,,,,,,
1512178917.902298,-0.127250,0.214631,-1.961961,0.863756,0.560366,0.306287,-0.123995,-0.212987,-0.969155,-0.235639,-0.101375,-0.212165,-16.395767,7.428932,-38.058846,,,,,,,
1512178917.922287,-0.119134,0.230040,-1.957675,0.740565,0.337514,0.008429,-0.115721,-0.228016,-0.966756,-0.226671,-0.066844,-0.290736,-16.027374,6.004478,-38.437691,,,,,,,
1512178917.942307,-0.116654,0.244203,-1.960955,0.665188,-0.037897,-0.352165,-0.112936,-0.241783,-0.963736,-0.243342,-0.102761,-0.244608,-15.875916,6.304710,-38.213829,,,,,,,
1512178917.962296,-0.116672,0.258472,-1.970351,0.655527,-0.119651,-0.610575,-0.112541,-0.255604,-0.960209,-0.269219,-0.159084,-0.125408,-15.877670,5.929710,-38.364006,,,,,,,
1512178917.982285,-0.113146,0.271811,-1.984502,0.490372,0.118676,-0.797632,-0.108759,-0.268476,-0.957127,-0.298132,-0.195833,-0.014232,-15.803345,5.779823,-38.364723,,,,,,,
1512178918.002274,-0.099137,0.275071,-2.001550,-0.220076,0.683754,-0.807025,-0.095254,-0.271615,-0.957681,-0.217246,-0.155616,-0.161918,-15.808517,4.654808,-38.590233,,,,,,,
1512178918.022294,-0.080291,0.266023,-2.018607,-0.608496,0.640267,-0.721121,-0.077383,-0.262896,-0.961716,-0.094919,-0.007138,-0.403625,-15.507843,4.805260,-38.592720,,,,,,,
1512178918.042272,-0.069053,0.256814,-2.033265,-0.380951,0.207832,-0.642576,-0.066735,-0.254001,-0.964899,-0.053947,0.157367,-0.436392,-15.205597,5.330711,-38.820015,,,,,,,
1512178918.062261,-0.066755,0.257682,-2.049004,0.230747,-0.226663,-0.845241,-0.064503,-0.254840,-0.964830,-0.070186,0.276995,-0.243865,-15.056122,5.180946,-38.521370,,,,,,,
1512178918.082280,-0.066912,0.268476,-2.070343,0.545972,-0.259760,-1.149945,-0.064467,-0.265262,-0.962019,-0.114107,0.237262,-0.022875,-15.356537,5.105492,-38.668846,,,,,,,
1512178918.102269,-0.063113,0.281160,-2.095631,0.545948,-0.074726,-1.268700,-0.060594,-0.277470,-0.958821,-0.101790,0.181599,0.080526,-15.735855,4.129921,-38.516121,,,,,,,
1512178918.122258,-0.055616,0.292969,-2.121357,0.501669,0.043696,-1.228420,-0.053219,-0.288796,-0.955910,-0.081806,0.161675,0.091393,-15.738998,3.454918,-38.741432,,,,,,,
1512178918.142278,-0.047805,0.303377,-2.145810,0.424640,0.016715,-1.148610,-0.045604,-0.298745,-0.953243,-0.045125,0.186288,0.091884,-16.193054,2.554237,-38.738014,,,,,,,
1512178918.162267,-0.042181,0.311481,-2.169159,0.308406,-0.126713,-1.087891,-0.040140,-0.306469,-0.951034,-0.003790,0.193325,0.090408,-15.973892,1.279564,-38.965523,,,,,,,
1512178918.182256,-0.040853,0.317184,-2.190779,0.214827,-0.358863,-0.984517,-0.038804,-0.311893,-0.949325,0.007432,0.175021,0.112731,-16.423782,1.278893,-38.736702,,,,,,,
1512178918.202245,-0.044474,0.321812,-2.210356,0.183261,-0.542831,-0.889670,-0.042177,-0.316286,-0.947726,-0.000075,0.171648,0.184756,-16.650848,0.828545,-38.809990,,,,,,,
1512178918.222264,-0.049621,0.326369,-2.228730,0.190164,-0.520455,-0.854310,-0.046983,-0.320606,-0.946047,-0.003112,0.157962,0.250155,-17.175705,0.827751,-38.505531,,,,,,,
1512178918.242253,-0.052550,0.330660,-2.246562,0.153563,-0.353929,-0.824411,-0.049680,-0.324668,-0.944523,0.014951,0.128562,0.264896,-17.778336,0.226860,-38.350700,,,,,,,
1512178918.262242,-0.052099,0.334129,-2.262915,0.127486,-0.172583,-0.721819,-0.049195,-0.327946,-0.943415,0.040757,0.100499,0.220804,-18.005661,-0.298485,-38.274025,,,,,,,
1512178918.282262,-0.050000,0.337430,-2.276174,0.140710,-0.085310,-0.549688,-0.047161,-0.331063,-0.942429,0.059566,0.092798,0.163132,-18.381638,-0.524055,-38.195946,,,,,,,
1512178918.302251,-0.049112,0.341062,-2.285704,0.171026,-0.129383,-0.386295,-0.046265,-0.334488,-0.941264,0.060654,0.102417,0.127909,-18.157684,-0.748711,-38.272957,,,,,,,
1512178918.322240,-0.051397,0.344016,-2.292392,0.086770,-0.289984,-0.262279,-0.048364,-0.337270,-0.940165,0.072214,0.117483,0.097513,-18.307724,-0.748940,-38.346687,,,,,,,
1512178918.342229,-0.058439,0.343915,-2.297285,-0.075490,-0.507211,-0.195026,-0.054985,-0.337176,-0.939835,0.069619,0.110750,0.110916,-18.458466,-0.899162,-38.495491,,,,,,,
1512178918.362248,-0.068095,0.341553,-2.301529,-0.147390,-0.540485,-0.167398,-0.064112,-0.334951,-0.940052,0.059168,0.075261,0.134388,-18.909225,-1.124840,-37.966774,,,,,,,
1512178918.382237,-0.075631,0.339066,-2.305271,-0.109217,-0.346061,-0.145915,-0.071257,-0.332606,-0.940370,0.050459,0.044154,0.120286,-19.133057,-0.900185,-37.664742,,,,,,,
1512178918.402226,-0.077321,0.339176,-2.308772,0.068143,-0.007152,-0.152825,-0.072843,-0.332710,-0.940212,0.058714,0.019066,0.052501,-19.582382,-0.750847,-37.660851,,,,,,,
1512178918.422246,-0.073553,0.342000,-2.311568,0.136849,0.218250,-0.106271,-0.069231,-0.335372,-0.939538,0.066392,-0.002366,-0.063239,-19.357422,-0.750511,-37.737770,,,,,,,
1512178918.442235,-0.069118,0.343680,-2.313485,0.028474,0.142164,-0.067597,-0.065024,-0.336954,-0.939273,0.079703,-0.004629,-0.172101,-19.359406,-1.200523,-37.662971,,,,,,,
1512178918.462224,-0.068347,0.341964,-2.315069,-0.166038,-0.053656,-0.047644,-0.064340,-0.335338,-0.939898,0.093927,-0.016835,-0.221677,-19.359711,-1.275520,-37.588005,,,,,,,
1512178918.482243,-0.070528,0.337326,-2.316785,-0.240694,-0.181941,-0.051301,-0.066498,-0.330965,-0.941297,0.115951,-0.051146,-0.242892,-19.583435,-0.975853,-37.735970,,,,,,,
1512178918.502232,-0.074607,0.334347,-2.317988,-0.090056,-0.205299,-0.007624,-0.070410,-0.328152,-0.941997,0.089698,-0.110797,-0.164326,-19.509033,-1.125740,-37.586662,,,,,,,
1512178918.522221,-0.075295,0.333253,-2.317095,-0.060825,0.139539,0.111265,-0.071085,-0.327119,-0.942306,0.077524,-0.145812,-0.056626,-19.583054,-0.900856,-37.660927,,,,,,,
1512178918.542211,-0.068148,0.328417,-2.312822,-0.377398,0.593687,0.324669,-0.064456,-0.322545,-0.944357,0.091540,-0.133541,-0.050073,-18.980469,-0.299950,-37.890739,,,,,,,
1512178918.562230,-0.057792,0.314132,-2.303810,-0.830568,0.634128,0.591155,-0.054933,-0.308991,-0.949477,0.215013,-0.000533,-0.329316,-18.604233,0.000618,-38.118797,,,,,,,
