timestamp(unix),attitude_roll(radians),attitude_pitch(radians),attitude_yaw(radians),rotation_rate_x(radians/s),rotation_rate_y(radians/s),rotation_rate_z(radians/s),gravity_x(G),gravity_y(G),gravity_z(G),user_acc_x(G),user_acc_y(G),user_acc_z(G),magnetic_field_x(microteslas),magnetic_field_y(microteslas),magnetic_field_z(microteslas),latitude(degree),longitude(degree),altitude(meter),speed(m/s),course(degree),timestamp(unix),User Mark
1512179097.190062,-0.099221,0.442833,1.742675,-0.015941,0.239750,0.403448,-0.089503,-0.428501,-0.899097,0.071849,0.012211,-0.023892,0.746598,-14.556465,17.975845,,,,,,,
1512179097.210082,-0.097056,0.443736,1.752192,0.116969,0.345650,0.429194,-0.087519,-0.429317,-0.898904,0.058985,0.046870,0.000146,0.671220,-14.631569,17.901459,,,,,,,
1512179097.230071,-0.093107,0.445880,1.761689,0.128966,0.390566,0.415668,-0.083883,-0.431252,-0.898324,0.060720,0.055398,-0.002052,0.295655,-14.782143,18.129562,,,,,,,
1512179097.250060,-0.088674,0.446869,1.770672,0.052223,0.402200,0.415664,-0.079862,-0.432144,-0.898262,0.101987,0.052169,0.001029,0.519486,-15.006798,17.827545,,,,,,,
1512179097.270049,-0.084857,0.446214,1.780916,-0.009053,0.396575,0.510700,-0.076456,-0.431553,-0.898842,0.147852,0.042637,-0.015633,0.746217,-14.631462,17.900818,,,,,,,
1512179097.290068,-0.083183,0.444409,1.793985,-0.041272,0.323611,0.650699,-0.075016,-0.429925,-0.899743,0.166386,0.045708,-0.030494,0.448884,-14.031914,17.828644,,,,,,,
1512179097.310057,-0.083638,0.442360,1.809865,-0.019807,0.313798,0.771443,-0.075499,-0.428074,-0.900585,0.174391,0.057972,-0.012211,0.073091,-14.182472,17.606750,,,,,,,
1512179097.330046,-0.084374,0.441026,1.827833,0.034371,0.338290,0.848000,-0.076210,-0.426868,-0.901097,0.194069,0.071902,-0.009425,0.073838,-14.032478,17.756821,,,,,,,
1512179097.350036,-0.085599,0.440641,1.847389,0.075759,0.331798,0.924269,-0.077328,-0.426519,-0.901167,0.196026,0.071523,-0.000093,-0.601241,-14.033485,17.612564,,,,,,,
1512179097.370055,-0.087591,0.440339,1.868664,0.070381,0.324179,0.991326,-0.079134,-0.426246,-0.901139,0.199632,0.076636,-0.006911,-1.050704,-13.959160,17.991425,,,,,,,
1512179097.390044,-0.090786,0.439678,1.891050,0.062236,0.287767,1.030524,-0.082038,-0.425648,-0.901162,0.193931,0.074803,-0.001654,-1.801238,-14.035286,17.622757,,,,,,,
1512179097.410033,-0.094296,0.438959,1.913837,0.072633,0.298438,1.047772,-0.085230,-0.424998,-0.901173,0.193644,0.056559,0.003376,-2.468093,-12.236290,17.704330,,,,,,,
1512179097.430022,-0.098518,0.437967,1.937658,0.038527,0.267281,1.110065,-0.089075,-0.424099,-0.901224,0.188654,0.040036,0.008143,-2.318328,-12.311058,17.928024,,,,,,,
1512179097.450042,-0.103485,0.435234,1.962989,-0.043779,0.278753,1.188868,-0.093670,-0.421622,-0.901920,0.169109,0.049003,0.008473,-2.690993,-11.786613,17.856445,,,,,,,
1512179097.470031,-0.108360,0.431493,1.989183,-0.059977,0.307540,1.202591,-0.098236,-0.418227,-0.903015,0.151184,0.063964,-0.018280,-3.516036,-11.787849,17.788467,,,,,,,
1512179097.490020,-0.112764,0.427975,2.014579,-0.037784,0.315152,1.149634,-0.102376,-0.415030,-0.904030,0.152379,0.061300,-0.031685,-3.663863,-11.263069,17.414978,,,,,,,
1512179097.510039,-0.116042,0.425144,2.039235,0.009694,0.381517,1.118573,-0.105475,-0.412452,-0.904853,0.148138,0.045524,-0.029290,-4.111770,-10.813759,17.569016,,,,,,,
1512179097.530028,-0.117337,0.423919,2.063645,0.102645,0.464998,1.110617,-0.106706,-0.411336,-0.905216,0.155671,0.028829,-0.041759,-4.561538,-10.739418,17.347870,,,,,,,
1512179097.550017,-0.118090,0.424029,2.088397,0.153531,0.466106,1.127347,-0.107382,-0.411436,-0.905091,0.145758,0.012846,-0.049865,-4.632049,-9.764534,17.573959,,,,,,,
1512179097.570006,-0.119336,0.424617,2.113355,0.162129,0.437291,1.122042,-0.108481,-0.411972,-0.904716,0.133124,0.015305,-0.044610,-5.229537,-9.165428,17.204346,,,,,,,
1512179097.590026,-0.121395,0.424829,2.137878,0.128422,0.387086,1.094727,-0.110332,-0.412165,-0.904404,0.113521,0.008113,-0.028717,-5.228744,-9.015419,17.429413,,,,,,,
1512179097.610015,-0.123340,0.424115,2.161489,0.075695,0.396692,1.060951,-0.112127,-0.411514,-0.904480,0.108389,0.011109,-0.021439,-5.904754,-9.241447,17.435043,,,,,,,
1512179097.630004,-0.124675,0.422534,2.184660,0.037275,0.412645,1.063646,-0.113416,-0.410073,-0.904973,0.092694,0.014581,-0.042155,-6.427016,-8.642220,17.514771,,,,,,,
1512179097.649993,-0.126009,0.420485,2.207807,0.034176,0.405175,1.057178,-0.114728,-0.408203,-0.905653,0.072446,0.026383,-0.050798,-6.123351,-7.816765,17.437607,,,,,,,
1512179097.670012,-0.126728,0.419099,2.230650,0.088902,0.453366,1.037884,-0.115450,-0.406937,-0.906131,0.066332,0.043168,-0.049924,-6.047072,-7.516655,17.287109,,,,,,,
1512179097.690001,-0.125637,0.419588,2.253486,0.195814,0.561446,1.024885,-0.114437,-0.407384,-0.906059,0.054928,0.045293,-0.040169,-6.344329,-6.917107,17.364944,,,,,,,
1512179097.709990,-0.122675,0.421799,2.275880,0.244447,0.620343,0.987415,-0.111642,-0.409402,-0.905497,0.053033,0.044366,-0.035359,-6.118621,-6.766762,17.438095,,,,,,,
1512179097.729979,-0.119145,0.423544,2.297485,0.172277,0.626680,0.968269,-0.108360,-0.410994,-0.905175,0.076866,-0.003633,-0.005851,-6.418441,-6.692207,17.140671,,,,,,,
1512179097.749999,-0.114837,0.423074,2.319657,0.046544,0.702201,1.032805,-0.104482,-0.410565,-0.905825,0.090322,-0.012348,-0.006406,-6.265365,-6.016975,17.214722,,,,,,,
1512179097.769988,-0.109781,0.420292,2.343085,-0.044109,0.741452,1.101989,-0.100026,-0.408027,-0.907474,0.093480,0.017676,-0.042340,-6.414351,-5.792198,17.216095,,,,,,,
1512179097.789977,-0.105241,0.417256,2.367531,-0.004049,0.697667,1.126936,-0.096034,-0.405253,-0.909146,0.061305,0.055217,-0.063952,-6.412810,-5.417198,16.916260,,,,,,,
1512179097.809966,-0.102604,0.415899,2.390901,0.067690,0.545203,1.035764,-0.093692,-0.404012,-0.909943,0.021625,0.068380,-0.076874,-6.185592,-4.891853,16.614594,,,,,,,
1512179097.829985,-0.102172,0.415864,2.412818,0.114331,0.437490,0.981694,-0.093301,-0.403981,-0.909997,-0.027228,0.054036,-0.031821,-6.410598,-4.892189,16.616516,,,,,,,
1512179097.849974,-0.101337,0.416171,2.434338,0.112389,0.524027,0.974505,-0.092528,-0.404261,-0.909951,-0.068101,0.059550,0.007440,-6.632476,-4.217537,16.768738,,,,,,,
1512179097.869963,-0.097716,0.416490,2.456631,0.129229,0.712954,1.061759,-0.089220,-0.404553,-0.910152,-0.073179,0.037610,0.012706,-6.406127,-3.917183,16.766953,,,,,,,
1512179097.889952,-0.091983,0.416665,2.480002,0.089907,0.764179,1.057104,-0.083995,-0.404713,-0.910578,-0.060384,0.099858,-0.019857,-5.879073,-3.466393,16.837708,,,,,,,
1512179097.909972,-0.086141,0.416587,2.503122,0.103006,0.737531,1.036945,-0.078677,-0.404641,-0.911085,-0.062238,0.109125,-0.038531,-5.953124,-3.241508,16.688446,,,,,,,
1512179097.929961,-0.081497,0.417893,2.525535,0.186607,0.657606,1.005896,-0.074401,-0.405836,-0.910913,-0.067994,0.094602,-0.005622,-5.954894,-3.616508,16.538284,,,,,,,
1512179097.949950,-0.077742,0.420800,2.547790,0.235633,0.639520,1.005476,-0.070889,-0.408491,-0.910005,-0.076221,0.056593,0.048372,-6.255263,-3.691963,16.465805,,,,,,,
1512179097.969970,-0.074897,0.422991,2.570733,0.139874,0.588005,1.057216,-0.068233,-0.410490,-0.909309,-0.070897,0.021208,0.068946,-6.103850,-3.391731,16.614655,,,,,,,
1512179097.989959,-0.073652,0.421602,2.595110,-0.078048,0.555443,1.146690,-0.067141,-0.409223,-0.909961,-0.057523,0.016996,0.080295,-5.724486,-2.416176,16.536926,,,,,,,
1512179098.009948,-0.073122,0.415456,2.620699,-0.291209,0.536838,1.207501,-0.066842,-0.403607,-0.912488,-0.041571,0.043728,0.039044,-6.173141,-2.116844,16.540878,,,,,,,
1512179098.029937,-0.073798,0.407420,2.646443,-0.301787,0.438565,1.197410,-0.067696,-0.396242,-0.915647,-0.035347,0.062074,0.008955,-6.621490,-1.742516,16.469879,,,,,,,
1512179098.049956,-0.075823,0.401216,2.671468,-0.168926,0.376896,1.153278,-0.069735,-0.390538,-0.917942,-0.037855,0.055074,0.037479,-6.768203,-0.992729,16.321503,,,,,,,
1512179098.069945,-0.077561,0.397385,2.696114,-0.082510,0.408015,1.151443,-0.071446,-0.387009,-0.919304,-0.049083,0.014145,0.057335,-6.390151,-0.317162,16.318634,,,,,,,
1512179098.089934,-0.078656,0.393590,2.720922,-0.126249,0.418627,1.154045,-0.072567,-0.383506,-0.920683,-0.054905,-0.000558,0.051039,-6.688201,0.132393,16.171387,,,,,,,
1512179098.109923,-0.079928,0.387729,2.745069,-0.253760,0.385373,1.127564,-0.073916,-0.378087,-0.922814,-0.046171,-0.014949,0.033792,-7.132689,1.406715,15.725800,,,,,,,
1512179098.129943,-0.081013,0.380204,2.768928,-0.285934,0.405593,1.139959,-0.075145,-0.371109,-0.925544,-0.029774,-0.014785,0.016562,-7.355071,2.006386,15.577988,,,,,,,
1512179098.149932,-0.081346,0.373801,2.793500,-0.180014,0.453740,1.184306,-0.075646,-0.365157,-0.927868,-0.017982,-0.009935,-0.002598,-7.351577,2.756386,15.803329,,,,,,,
1512179098.169921,-0.081312,0.369801,2.819282,-0.065566,0.469853,1.226530,-0.075732,-0.361430,-0.929318,-0.017423,-0.002202,-0.000400,-7.649642,3.205940,15.656097,,,,,,,
1512179098.189893,-0.082179,0.366884,2.845563,-0.050833,0.391879,1.233933,-0.076623,-0.358709,-0.930299,-0.015692,0.000921,0.008882,-7.873015,3.580605,15.508179,,,,,,,
1512179098.209913,-0.085145,0.362720,2.871697,-0.139337,0.281729,1.230136,-0.079509,-0.354818,-0.931548,-0.033238,-0.001597,0.038802,-8.169387,4.405174,15.361115,,,,,,,
1512179098.229902,-0.088424,0.357392,2.897305,-0.162346,0.304177,1.204295,-0.082729,-0.349832,-0.933152,-0.041829,-0.001288,0.063356,-8.318679,4.554939,15.437454,,,,,,,
1512179098.249890,-0.090332,0.352492,2.921913,-0.127326,0.342786,1.150565,-0.084663,-0.345238,-0.934689,-0.023095,-0.011970,0.066372,-8.464324,5.529732,15.364182,,,,,,,
1512179098.269879,-0.091215,0.348004,2.945903,-0.125076,0.387670,1.146493,-0.085628,-0.341022,-0.936147,0.002269,-0.040081,0.067693,-8.541167,5.154610,15.064636,,,,,,,
1512179098.289899,-0.091386,0.343004,2.970062,-0.155098,0.396144,1.156746,-0.085943,-0.336317,-0.937819,0.027609,-0.054948,0.042952,-8.459670,6.579735,15.214661,,,,,,,
1512179098.309888,-0.092332,0.337660,2.994276,-0.164829,0.326686,1.161694,-0.086995,-0.331280,-0.939514,0.025746,-0.072636,0.028762,-8.681716,7.254402,15.066895,,,,,,,
1512179098.329877,-0.093755,0.332464,3.018353,-0.136949,0.347041,1.152573,-0.088491,-0.326373,-0.941090,0.002691,-0.075925,0.057224,-8.904235,7.779060,15.294037,,,,,,,
1512179098.349866,-0.092933,0.328563,3.042229,-0.058689,0.476456,1.132838,-0.087835,-0.322683,-0.942423,-0.013620,-0.077204,0.061960,-8.679458,7.779396,14.842133,,,,,,,
1512179098.369885,-0.089977,0.326045,3.065443,-0.014233,0.535363,1.091048,-0.085122,-0.320299,-0.943484,-0.019217,-0.091002,0.045428,-8.527129,8.304634,14.766113,,,,,,,
1512179098.389874,-0.086561,0.323723,3.087880,-0.031829,0.519374,1.057687,-0.081963,-0.318099,-0.944508,-0.036003,-0.100984,0.029667,-8.375182,8.754845,14.615036,,,,,,,
1512179098.409863,-0.083632,0.321082,3.109280,-0.052236,0.456430,0.998536,-0.079266,-0.315593,-0.945578,-0.057483,-0.110539,0.016058,-8.519485,10.029640,14.541901,,,,,,,
1512179098.429883,-0.081329,0.318080,3.129214,-0.082007,0.418072,0.927613,-0.077165,-0.312744,-0.946698,-0.074355,-0.124604,0.010831,-8.294188,10.104973,14.465027,,,,,,,
1512179098.449872,-0.078180,0.315108,-3.135433,-0.065047,0.474823,0.871555,-0.074255,-0.309919,-0.947859,-0.073908,-0.141268,-0.015001,-7.993285,10.330421,14.237579,,,,,,,
1512179098.469862,-0.073484,0.313463,-3.117487,0.018550,0.533749,0.847385,-0.069840,-0.308355,-0.948704,-0.078979,-0.143473,-0.050945,-7.989608,11.155434,14.162964,,,,,,,
1512179098.489851,-0.068348,0.313904,-3.100383,0.110159,0.506238,0.785719,-0.064958,-0.308774,-0.948915,-0.085845,-0.131503,-0.080474,-7.764678,11.155769,14.011047,,,,,,,
1512179098.509871,-0.063413,0.315121,-3.084950,0.106241,0.467948,0.698112,-0.060250,-0.309932,-0.948848,-0.087928,-0.129827,-0.092427,-7.388778,11.381340,13.782959,,,,,,,
1512179098.529860,-0.058367,0.316203,-3.071240,0.088422,0.471294,0.615781,-0.055442,-0.310960,-0.948805,-0.083627,-0.127013,-0.114489,-7.161040,11.981682,13.856339,,,,,,,
1512179098.549848,-0.052592,0.318050,-3.059312,0.158081,0.476906,0.528323,-0.049931,-0.312715,-0.948534,-0.079296,-0.135451,-0.136534,-7.463149,11.531227,13.708664,,,,,,,
1512179098.569837,-0.046411,0.322484,-3.048843,0.297795,0.481532,0.461073,-0.044003,-0.316924,-0.947430,-0.064411,-0.128846,-0.111973,-7.013259,11.531898,13.479843,,,,,,,
1512179098.589856,-0.038420,0.328921,-3.039050,0.352460,0.591665,0.448390,-0.036352,-0.323022,-0.945693,-0.036509,-0.118582,-0.111192,-6.339644,11.232918,13.398972,,,,,,,
1512179098.609845,-0.030831,0.334369,-3.029432,0.217133,0.488928,0.439675,-0.029119,-0.328173,-0.944169,-0.014262,-0.119992,-0.111770,-6.412322,11.757805,13.324844,,,,,,,
1512179098.629834,-0.025083,0.334757,-3.019325,-0.094320,0.453052,0.511791,-0.023688,-0.328540,-0.944193,0.022772,-0.105969,-0.099371,-6.342010,10.782906,12.723770,,,,,,,
1512179098.649823,-0.019187,0.328104,-3.006770,-0.443168,0.532352,0.661598,-0.018163,-0.322249,-0.946481,0.071172,-0.039583,-0.152137,-5.885482,12.208595,12.945602,,,,,,,
1512179098.669843,-0.012860,0.317591,-2.991027,-0.506256,0.574695,0.803679,-0.012216,-0.312279,-0.949912,0.096536,0.071175,-0.208688,-5.131194,13.184715,12.714676,,,,,,,
1512179098.689832,-0.006439,0.311162,-2.972997,-0.150456,0.628485,0.886844,-0.006130,-0.306165,-0.951959,0.083248,0.163114,-0.186149,-5.131347,13.184715,12.414673,,,,,,,
1512179098.709821,0.000682,0.315342,-2.955020,0.429496,0.614550,0.820575,0.000648,-0.310141,-0.950690,0.055123,0.233298,-0.134317,-4.979140,13.709953,12.113647,,,,,,,
1512179098.729810,0.007092,0.329398,-2.940642,0.816042,0.510924,0.582751,0.006711,-0.323474,-0.946213,0.030689,0.242404,-0.021942,-4.830489,13.410179,12.112244,,,,,,,
1512179098.749830,0.014263,0.346884,-2.930958,0.874134,0.536964,0.422708,0.013413,-0.339969,-0.940341,0.001114,0.150027,0.069339,-4.680602,13.410393,11.885956,,,,,,,
1512179098.769819,0.022503,0.363268,-2.923066,0.761994,0.556119,0.371044,0.021033,-0.355331,-0.934504,0.041254,0.125030,0.113642,-4.233367,12.811073,11.731857,,,,,,,
1512179098.789807,0.030669,0.376901,-2.915146,0.618586,0.537677,0.404083,0.028511,-0.368041,-0.929372,0.058021,0.097945,0.118093,-4.086974,11.986290,11.955200,,,,,,,
1512179098.809796,0.036666,0.388283,-2.905758,0.527526,0.427346,0.490864,0.033929,-0.378600,-0.924938,0.065146,0.077788,0.108441,-3.789107,11.536736,11.727448,,,,,,,
1512179098.829816,0.038947,0.399181,-2.894044,0.522339,0.293584,0.604390,0.035876,-0.388664,-0.920681,0.043393,0.068016,0.124554,-3.414077,11.537300,11.799255,,,,,,,
1512179098.849805,0.037684,0.409605,-2.880213,0.469884,0.152363,0.675632,0.034558,-0.398247,-0.916627,0.012301,0.074593,0.135560,-3.640090,11.311958,11.801071,,,,,,,
1512179098.869794,0.033393,0.418167,-2.865568,0.355582,0.031467,0.684216,0.030510,-0.406086,-0.913325,-0.016884,0.076054,0.138301,-3.790053,11.311729,11.877335,,,,,,,
1512179098.889813,0.027022,0.423813,-2.851068,0.210890,-0.031735,0.663779,0.024629,-0.411239,-0.911195,-0.016358,0.068267,0.136308,-4.165725,11.161171,11.880463,,,,,,,
1512179098.909802,0.019979,0.426851,-2.836508,0.090381,-0.067177,0.664038,0.018185,-0.414007,-0.910092,-0.011258,0.070852,0.111569,-4.689300,11.460381,12.035065,,,,,,,
1512179098.929791,0.011919,0.427255,-2.822969,-0.035109,-0.156917,0.577694,0.010848,-0.414374,-0.910042,0.005098,0.087134,0.094872,-4.912871,11.760048,12.187103,,,,,,,
1512179098.949780,0.002733,0.425506,-2.811700,-0.118961,-0.287190,0.483274,0.002489,-0.412782,-0.910827,0.035765,0.066621,0.057021,-5.136718,12.059715,11.814163,,,,,,,
1512179098.969800,-0.008863,0.423642,-2.801759,-0.044766,-0.395940,0.440266,-0.008079,-0.411083,-0.911562,0.051765,0.046062,0.085573,-5.587020,11.984047,11.892944,,,,,,,
1512179098.989789,-0.019760,0.425088,-2.792378,0.153901,-0.291993,0.421114,-0.018000,-0.412401,-0.910825,0.044413,0.024721,0.162228,-5.884994,12.358589,12.570679,,,,,,,
1512179099.009778,-0.024461,0.430279,-2.783420,0.333914,0.105729,0.385665,-0.022229,-0.417125,-0.908577,0.035184,0.000865,0.164849,-6.259276,12.508034,12.648926,,,,,,,
1512179099.029768,-0.024785,0.437806,-2.775521,0.369049,0.080268,0.322120,-0.022445,-0.423953,-0.905406,0.061446,-0.023770,0.070948,-6.785888,12.132240,12.803223,,,,,,,
1512179099.049788,-0.030724,0.441757,-2.769012,0.096638,-0.291783,0.274238,-0.027770,-0.427529,-0.903575,0.057525,-0.076332,0.069865,-7.085937,12.131783,12.730774,,,,,,,
1512179099.069777,-0.040833,0.440581,-2.763552,-0.116038,-0.417012,0.235541,-0.036923,-0.426465,-0.903750,0.057629,-0.072086,0.088168,-7.160522,12.206673,12.881439,,,,,,,
1512179099.089766,-0.050683,0.438049,-2.758670,-0.089084,-0.354985,0.220156,-0.045878,-0.424174,-0.904418,0.063563,-0.078741,0.079039,-8.059585,12.430336,12.739197,,,,,,,
1512179099.109754,-0.058101,0.437928,-2.753583,0.073873,-0.212700,0.235803,-0.052588,-0.424064,-0.904104,0.019385,-0.100518,0.044760,-8.058349,12.655327,13.189285,,,,,,,
1512179099.129773,-0.063800,0.441629,-2.748993,0.248773,-0.194139,0.168042,-0.057639,-0.427412,-0.902217,-0.004342,-0.090562,0.028545,-8.583541,12.579536,13.493713,,,,,,,
1512179099.149762,-0.069126,0.447813,-2.745698,0.335432,-0.226012,0.147866,-0.062260,-0.432995,-0.899243,0.014363,-0.005619,0.009839,-9.261458,11.903526,13.724136,,,,,,,
1512179099.169751,-0.078831,0.456391,-2.737790,0.503202,-0.439965,0.436322,-0.070689,-0.440711,-0.894861,0.027934,-0.035806,-0.058325,-9.933913,12.427513,14.105118,,,,,,,
1512179099.189720,-0.096074,0.468443,-2.725130,0.684649,-0.637515,0.542737,-0.085593,-0.451497,-0.888158,-0.014490,-0.111384,-0.089702,-10.535415,12.051613,14.485046,,,,,,,
1512179099.209740,-0.113143,0.481930,-2.712686,0.715462,-0.522938,0.425250,-0.100042,-0.463490,-0.880437,-0.071344,-0.100933,-0.089046,-10.908767,12.351067,15.088364,,,,,,,
1512179099.229729,-0.125095,0.494978,-2.705107,0.665828,-0.381454,0.145718,-0.109794,-0.475012,-0.873103,-0.085015,-0.071039,-0.127172,-11.212111,11.600609,15.165573,,,,,,,
1512179099.249718,-0.134449,0.507190,-2.703712,0.581456,-0.492178,-0.109614,-0.117170,-0.485723,-0.866224,-0.038897,-0.057368,-0.133669,-11.888152,11.299583,15.771164,,,,,,,
1512179099.269707,-0.143879,0.518677,-2.708060,0.511862,-0.630660,-0.356296,-0.124525,-0.495731,-0.859502,-0.040453,-0.128307,-0.080500,-12.494536,9.873680,15.850616,,,,,,,
1512179099.289726,-0.150959,0.527804,-2.718152,0.290673,-0.532284,-0.578767,-0.129921,-0.503637,-0.854090,-0.072425,-0.181879,-0.014745,-12.944716,9.797997,16.154404,,,,,,,
1512179099.309715,-0.154828,0.532836,-2.730319,0.094532,-0.497463,-0.513260,-0.132832,-0.507978,-0.851067,-0.062572,-0.165881,0.004768,-13.545440,9.572105,16.759384,,,,,,,
1512179099.329704,-0.158393,0.531836,-2.740811,-0.277305,-0.395727,-0.392500,-0.135945,-0.507116,-0.851089,-0.107707,-0.168283,0.020095,-13.995086,9.646431,16.763245,,,,,,,
1512179099.349693,-0.159088,0.521092,-2.749730,-0.778476,-0.179935,-0.244429,-0.137392,-0.497827,-0.856324,-0.107511,-0.060339,-0.103606,-14.220763,9.496086,16.765091,,,,,,,
1512179099.369713,-0.157931,0.501816,-2.758179,-1.108508,-0.161293,-0.206506,-0.137884,-0.481019,-0.865800,-0.079599,0.076157,-0.282470,-14.218551,10.021095,16.465332,,,,,,,
1512179099.389702,-0.157717,0.481228,-2.768028,-1.002020,-0.242061,-0.332103,-0.139226,-0.462868,-0.875425,-0.055614,0.223167,-0.341906,-14.512954,11.220650,16.843430,,,,,,,
1512179099.409691,-0.157667,0.469590,-2.781378,-0.426333,-0.350682,-0.597051,-0.140018,-0.452520,-0.880693,-0.027584,0.265295,-0.240416,-14.363524,11.070869,17.067093,,,,,,,
1512179099.429710,-0.158207,0.471296,-2.797129,0.184824,-0.380428,-0.746075,-0.140372,-0.454041,-0.879854,-0.037331,0.190629,-0.040831,-14.814879,10.770195,17.070786,,,,,,,
1512179099.449699,-0.157731,0.481212,-2.812489,0.445017,-0.296714,-0.747348,-0.139240,-0.462853,-0.875431,-0.058057,0.114541,0.122135,-15.192794,10.094627,17.298660,,,,,,,
1512179099.469688,-0.155650,0.490146,-2.827244,0.223524,-0.202088,-0.692659,-0.136771,-0.470754,-0.871598,-0.081247,0.072668,0.200227,-15.496657,9.194176,17.675797,,,,,,,
1512179099.489677,-0.151187,0.491791,-2.842008,-0.162137,-0.079943,-0.637055,-0.132762,-0.472206,-0.871433,-0.094639,0.041908,0.193287,-15.496657,9.194176,17.675797,,,,,,,
1512179099.509697,-0.143336,0.486342,-2.857125,-0.478058,0.120326,-0.605759,-0.126282,-0.467395,-0.874982,-0.070648,0.048282,0.132551,-16.023468,8.818382,17.455078,,,,,,,
1512179099.529686,-0.132783,0.476456,-2.871503,-0.616754,0.211833,-0.529626,-0.117648,-0.458633,-0.880803,-0.011395,0.064987,0.034505,-15.495498,9.494179,17.300934,,,,,,,
1512179099.549675,-0.123930,0.465049,-2.883220,-0.619150,0.145324,-0.387038,-0.110486,-0.448467,-0.886944,0.036999,0.083141,-0.037830,-15.494857,9.644173,17.225998,,,,,,,
1512179099.569664,-0.120048,0.455384,-2.891168,-0.448940,-0.062997,-0.246712,-0.107556,-0.439807,-0.891629,0.026852,0.099872,-0.041019,-15.495467,9.494179,17.375931,,,,,,,
1512179099.589684,-0.120323,0.449933,-2.896442,-0.205716,-0.147108,-0.195505,-0.108087,-0.434905,-0.893966,-0.017539,0.107681,0.029311,-15.795470,9.493721,17.378479,,,,,,,
1512179099.609673,-0.119739,0.449076,-2.901589,-0.006366,-0.015303,-0.253991,-0.107609,-0.434133,-0.894398,-0.045956,0.101766,0.118672,-16.020233,9.568382,17.155426,,,,,,,
1512179099.629662,-0.114499,0.450329,-2.908296,0.019649,0.180378,-0.335020,-0.102858,-0.435262,-0.894409,-0.053529,0.063786,0.145614,-16.098495,8.818275,17.380707,,,,,,,
1512179099.649651,-0.105852,0.450006,-2.916701,-0.114710,0.290311,-0.392019,-0.095136,-0.434970,-0.895405,-0.032366,0.034732,0.139240,-16.096848,9.193275,17.305893,,,,,,,
1512179099.669670,-0.095878,0.447118,-2.925255,-0.204076,0.290072,-0.337877,-0.086321,-0.432369,-0.897555,-0.009321,-0.000874,0.084613,-15.949706,8.593498,17.004333,,,,,,,
1512179099.689659,-0.088962,0.443824,-2.931216,-0.167029,0.190505,-0.198035,-0.080237,-0.429396,-0.899545,-0.005929,-0.017916,0.057748,-15.801009,8.293724,17.077927,,,,,,,
1512179099.709648,-0.085182,0.442043,-2.933981,-0.054074,0.091083,-0.070951,-0.076901,-0.427787,-0.900602,-0.023745,-0.021707,0.048826,-15.801131,8.293724,16.852921,,,,,,,
1512179099.729637,-0.083299,0.442073,-2.934329,0.022433,0.098518,0.009072,-0.075204,-0.427814,-0.900733,-0.049399,-0.015652,0.069052,-16.175903,8.293159,17.306107,,,,,,,
1512179099.749657,-0.080627,0.442819,-2.933986,0.044899,0.164784,0.007496,-0.072772,-0.428489,-0.900612,-0.070173,-0.004998,0.072792,-16.176346,8.218147,17.081085,,,,,,,
1512179099.769646,-0.076422,0.443983,-2.934078,0.065651,0.231095,-0.019692,-0.068945,-0.429540,-0.900412,-0.083322,-0.012675,0.045630,-16.099930,8.518272,17.230576,,,,,,,
1512179099.789635,-0.071628,0.445631,-2.934688,0.085103,0.218344,-0.035442,-0.064578,-0.431027,-0.900025,-0.060346,-0.036411,-0.004775,-15.951720,8.143486,17.004135,,,,,,,
1512179099.809624,-0.068032,0.447954,-2.934409,0.134153,0.179837,0.025897,-0.061272,-0.433122,-0.899250,-0.063179,-0.065230,-0.034328,-15.874969,8.518608,17.153671,,,,,,,
1512179099.829643,-0.065905,0.452028,-2.932506,0.238838,0.177758,0.077511,-0.059243,-0.436791,-0.897610,-0.066246,-0.067909,-0.032093,-15.806869,7.018715,16.852325,,,,,,,
1512179099.849632,-0.063750,0.457416,-2.929652,0.278904,0.214087,0.107005,-0.057158,-0.441631,-0.895374,-0.074373,-0.076252,-0.036389,-15.806533,7.093712,16.852371,,,,,,,
1512179099.869621,-0.061456,0.462816,-2.926242,0.265634,0.204397,0.135563,-0.054956,-0.446470,-0.893109,-0.084006,-0.079699,-0.046573,-15.729766,7.468819,17.001907,,,,,,,
1512179099.889641,-0.059614,0.467153,-2.922516,0.189716,0.177552,0.148229,-0.053195,-0.450346,-0.891268,-0.075879,-0.062608,-0.058226,-15.955779,7.243492,17.003708,,,,,,,
1512179099.909630,-0.058173,0.469789,-2.919237,0.118606,0.137959,0.126804,-0.051841,-0.452698,-0.890155,-0.056786,-0.053848,-0.073376,-15.881713,7.018593,17.152969,,,,,,,
1512179099.929619,-0.057508,0.472675,-2.916356,0.193430,0.061192,0.110563,-0.051175,-0.455270,-0.888882,-0.061771,-0.060019,-0.094700,-15.961135,6.043480,17.078156,,,,,,,
1512179099.949608,-0.057886,0.478930,-2.914442,0.398296,0.033885,0.033482,-0.051345,-0.460830,-0.886002,-0.072343,-0.064851,-0.048324,-16.335770,6.117912,17.156387,,,,,,,
1512179099.969627,-0.055807,0.488797,-2.913831,0.527129,0.174114,-0.014267,-0.049246,-0.469564,-0.881524,-0.071802,-0.086954,-0.017494,-16.034454,6.343361,17.753937,,,,,,,
1512179099.989616,-0.051324,0.498474,-2.913190,0.432721,0.271093,0.026278,-0.045059,-0.478086,-0.877156,-0.063065,-0.102373,-0.005366,-15.887527,5.668587,17.677353,,,,,,,
1512179100.009605,-0.045707,0.503858,-2.910807,0.163439,0.382626,0.134699,-0.040013,-0.482808,-0.874812,-0.037669,-0.054393,-0.023244,-16.189926,5.143135,17.604660,,,,,,,
1512179100.029594,-0.038670,0.502599,-2.906287,-0.194042,0.511148,0.226978,-0.033879,-0.481705,-0.875678,-0.009029,0.020096,-0.083337,-15.814178,5.293694,17.751541,,,,,,,
1512179100.049614,-0.029586,0.494435,-2.901600,-0.475158,0.477646,0.205732,-0.026039,-0.474534,-0.879852,0.053672,0.082246,-0.247956,-15.591537,4.844032,17.074417,,,,,,,
1512179100.069603,-0.026543,0.485278,-2.897622,-0.399514,0.110331,0.190625,-0.023475,-0.466454,-0.884234,0.088875,0.120461,-0.292112,-15.511809,5.894157,17.074265,,,,,,,
1512179100.089592,-0.031926,0.481319,-2.893047,-0.053665,-0.299364,0.208069,-0.028294,-0.462948,-0.885933,0.073246,0.142026,-0.182548,-15.135756,6.119713,17.146179,,,,,,,
1512179100.109581,-0.041124,0.483621,-2.888728,0.196357,-0.361930,0.170964,-0.036397,-0.464988,-0.884568,0.016607,0.130134,-0.014952,-15.585616,6.119041,17.450012,,,,,,,
1512179100.129601,-0.048299,0.487613,-2.885810,0.174529,-0.232524,0.079420,-0.042653,-0.468518,-0.882423,-0.015208,0.128690,0.097496,-15.962371,5.668480,17.977982,,,,,,,
1512179100.149590,-0.050963,0.488593,-2.885835,-0.035350,-0.085179,-0.051036,-0.044981,-0.469384,-0.881848,-0.007158,0.116280,0.137173,-15.962905,5.518471,18.277924,,,,,,,
1512179100.169579,-0.049830,0.485425,-2.888282,-0.228131,0.057799,-0.119428,-0.044055,-0.466584,-0.883379,0.020999,0.095460,0.134508,-16.266098,4.843025,17.980148,,,,,,,
1512179100.189555,-0.046014,0.480015,-2.891255,-0.288057,0.138855,-0.101892,-0.040799,-0.461793,-0.886049,0.047712,0.087403,0.089662,-15.966170,4.843468,17.827606,,,,,,,
1512179100.209574,-0.043312,0.474582,-2.892674,-0.258616,0.060751,-0.016453,-0.038513,-0.456966,-0.888650,0.057174,0.088039,0.057641,-15.515975,4.844139,18.198776,,,,,,,
1512179100.229563,-0.044736,0.470154,-2.892059,-0.200365,-0.138000,0.061521,-0.039869,-0.453023,-0.890607,0.053830,0.097021,0.062939,-15.737563,5.593819,18.276047,,,,,,,
1512179100.249552,-0.049672,0.466126,-2.890796,-0.205716,-0.238412,0.057896,-0.044354,-0.449429,-0.892214,0.022214,0.093014,0.114642,-15.663756,5.293922,18.575256,,,,,,,
1512179100.269541,-0.054086,0.461302,-2.890686,-0.265405,-0.199924,-0.005733,-0.048409,-0.445114,-0.894164,0.010689,0.077667,0.131667,-15.889892,5.068581,18.352066,,,,,,,
1512179100.289561,-0.056888,0.455096,-2.892155,-0.344153,-0.165714,-0.076044,-0.051071,-0.439548,-0.896766,0.004455,0.061817,0.142646,-15.962188,5.668480,18.352982,,,,,,,
1512179100.309550,-0.059052,0.447436,-2.895367,-0.416487,-0.189179,-0.151800,-0.053208,-0.432656,-0.899988,0.007676,0.048851,0.139291,-15.812713,5.518700,18.651642,,,,,,,
1512179100.329539,-0.060744,0.438945,-2.900425,-0.439770,-0.192270,-0.226771,-0.054951,-0.424984,-0.903531,0.020879,0.037320,0.126691,-15.737746,5.518806,18.576004,,,,,,,
1512179100.349558,-0.062005,0.431085,-2.906257,-0.380992,-0.178281,-0.235468,-0.056297,-0.417857,-0.906767,0.031440,0.004649,0.102522,-15.137069,5.669716,18.570969,,,,,,,
1512179100.369547,-0.063810,0.424750,-2.911076,-0.303101,-0.204980,-0.175797,-0.058101,-0.412093,-0.909287,0.037730,-0.024965,0.084138,-15.285384,6.044487,18.572418,,,,,,,
1512179100.389536,-0.066431,0.419373,-2.914733,-0.268551,-0.202870,-0.137979,-0.060630,-0.407188,-0.911330,0.036704,-0.021065,0.078825,-15.138350,5.369713,18.720825,,,,,,,
1512179100.409525,-0.068923,0.414463,-2.918314,-0.247921,-0.191044,-0.160026,-0.063038,-0.402699,-0.913159,0.026630,-0.024318,0.067792,-15.060317,6.044838,18.720505,,,,,,,
1512179100.429545,-0.070478,0.410364,-2.922998,-0.197813,-0.157727,-0.223147,-0.064573,-0.398943,-0.914699,0.024290,-0.031202,0.052455,-14.909713,6.195061,18.569305,,,,,,,
1512179100.449534,-0.070826,0.407567,-2.928971,-0.132747,-0.129722,-0.288201,-0.064970,-0.396377,-0.915786,0.027144,-0.051728,0.021163,-14.387069,5.670845,18.564590,,,,,,,
1512179100.469523,-0.071131,0.406582,-2.936158,-0.045430,-0.173265,-0.348918,-0.065277,-0.395472,-0.916155,0.028122,-0.061147,0.010332,-14.537078,5.670616,18.565872,,,,,,,
1512179100.489512,-0.071075,0.407086,-2.944908,0.001689,-0.173044,-0.427126,-0.065211,-0.395935,-0.915960,0.034892,-0.075561,0.010458,-14.614058,5.220497,18.641296,,,,,,,
1512179100.509531,-0.070864,0.408438,-2.954946,0.028019,-0.206025,-0.473765,-0.064980,-0.397176,-0.915439,0.045541,-0.127741,0.002246,-14.014617,5.071404,18.861130,,,,,,,
1512179100.529520,-0.070842,0.410059,-2.964458,0.028989,-0.188004,-0.402262,-0.064915,-0.398663,-0.914797,0.048725,-0.145022,-0.003004,-13.939590,5.071510,18.935501,,,,,,,
1512179100.549509,-0.070880,0.411070,-2.972232,-0.012714,-0.163647,-0.329225,-0.064921,-0.399591,-0.914392,0.027018,-0.139609,-0.050269,-14.165893,4.771172,19.012268,,,,,,,
1512179100.569498,-0.071449,0.410415,-2.979245,-0.110008,-0.171307,-0.312539,-0.065460,-0.398990,-0.914616,0.006454,-0.117169,-0.088818,-13.791533,4.621727,19.084000,,,,,,,
1512179100.589518,-0.071840,0.407383,-2.986470,-0.217534,-0.168245,-0.320480,-0.065904,-0.396208,-0.915792,-0.005889,-0.110506,-0.159922,-13.716903,4.546837,19.008331,,,,,,,
1512179100.609507,-0.073119,0.403960,-2.993702,-0.158972,-0.231186,-0.319853,-0.067174,-0.393062,-0.917055,-0.020533,-0.106465,-0.202254,-13.566894,4.547066,19.082062,,,,,,,
1512179100.629496,-0.075504,0.403819,-3.001181,0.050740,-0.284181,-0.369237,-0.069365,-0.392933,-0.916947,-0.039217,-0.114009,-0.175918,-13.342605,4.397408,19.005081,,,,,,,
1512179100.649485,-0.076764,0.407066,-3.009995,0.149955,-0.178147,-0.432458,-0.070422,-0.395917,-0.915582,-0.055905,-0.161517,-0.099692,-13.191466,4.622627,19.228912,,,,,,,
1512179100.669505,-0.074473,0.409048,-3.018834,-0.025556,0.018038,-0.381012,-0.068266,-0.397736,-0.914956,-0.046419,-0.172424,-0.080191,-13.193160,4.247627,19.228729,,,,,,,
1512179100.689494,-0.069283,0.403252,-3.025381,-0.498360,0.177207,-0.211410,-0.063675,-0.392411,-0.917583,-0.026688,-0.109633,-0.171574,-12.743041,4.323296,18.774948,,,,,,,
1512179100.709483,-0.064563,0.389146,-3.029350,-0.791223,0.142364,-0.101704,-0.059694,-0.379399,-0.923305,-0.018935,0.027149,-0.238026,-12.818236,4.323189,18.400589,,,,,,,
1512179100.729472,-0.060343,0.375314,-3.032272,-0.577914,0.174745,-0.105963,-0.056108,-0.366564,-0.928699,-0.018599,0.178729,-0.209683,-12.814864,5.073189,18.400940,,,,,,,
1512179100.749491,-0.054593,0.369917,-3.036731,-0.105250,0.218493,-0.257807,-0.050875,-0.361538,-0.930968,-0.016416,0.275570,-0.154786,-12.439071,5.298759,17.947845,,,,,,,
1512179100.769480,-0.048118,0.373092,-3.045091,0.268293,0.112686,-0.483034,-0.044790,-0.364497,-0.930126,-0.026117,0.281016,-0.079212,-12.064071,5.299324,17.944656,,,,,,,
1512179100.789469,-0.044304,0.382014,-3.057521,0.487270,-0.124864,-0.651261,-0.041096,-0.372790,-0.927005,-0.058299,0.203478,0.061038,-11.616286,4.774986,18.240601,,,,,,,
1512179100.809458,-0.042687,0.393189,-3.071869,0.533766,-0.197338,-0.693477,-0.039418,-0.383136,-0.922850,-0.090297,0.124363,0.194136,-11.694625,4.024879,18.315887,,,,,,,
1512179100.829478,-0.039212,0.402785,-3.085974,0.379751,-0.009646,-0.653478,-0.036065,-0.391982,-0.919265,-0.123084,0.077590,0.267456,-11.324416,2.975426,18.162216,,,,,,,
1512179100.849467,-0.029938,0.407788,-3.099910,0.135855,0.308296,-0.652710,-0.027479,-0.396580,-0.917589,-0.109530,0.060551,0.238084,-10.871490,3.576103,18.608658,,,,,,,
1512179100.869456,-0.015549,0.408002,-3.114240,-0.073952,0.481035,-0.656213,-0.014272,-0.396776,-0.917804,-0.051753,0.063753,0.140308,-10.573699,3.126549,18.230911,,,,,,,
1512179100.889475,-0.001345,0.405454,-3.127837,-0.156175,0.381430,-0.588458,-0.001236,-0.394436,-0.918922,-0.001953,0.055371,0.050102,-9.975722,2.677452,18.225601,,,,,,,
1512179100.909464,0.007454,0.401767,-3.138271,-0.199898,0.136385,-0.405516,0.006861,-0.391045,-0.920346,0.006628,0.030129,0.013028,-9.525771,2.678139,18.146790,,,,,,,
1512179100.929453,0.009466,0.397122,3.139046,-0.248253,-0.080942,-0.199091,0.008729,-0.386766,-0.922136,-0.019013,0.032793,0.055132,-9.074676,2.978813,17.618103,,,,,,,
1512179100.949442,0.008449,0.391473,3.136486,-0.296954,-0.086568,-0.090010,0.007810,-0.381550,-0.924315,-0.059979,0.054768,0.101500,-9.449981,2.903236,17.696243,,,,,,,
1512179100.969462,0.008586,0.385791,3.134714,-0.264895,0.011753,-0.090271,0.007955,-0.376292,-0.926467,-0.088888,0.067988,0.118560,-9.147384,3.503700,17.468979,,,,,,,
1512179100.989451,0.010762,0.381594,3.132021,-0.177430,0.081443,-0.154859,0.009988,-0.372400,-0.928018,-0.096734,0.068979,0.117593,-8.922057,3.579033,17.467102,,,,,,,
1512179101.009440,0.014207,0.378503,3.127675,-0.145280,0.090187,-0.228985,0.013201,-0.369530,-0.929125,-0.081912,0.039803,0.103853,-8.922423,3.504036,17.392059,,,,,,,
1512179101.029429,0.017168,0.375527,3.122559,-0.143040,0.026117,-0.238771,0.015971,-0.366763,-0.930177,-0.059077,0.005618,0.090394,-8.772429,3.504265,17.390793,,,,,,,
1512179101.049448,0.018812,0.372872,3.117895,-0.113800,-0.011292,-0.203296,0.017518,-0.364292,-0.931120,-0.041963,-0.024914,0.099394,-8.999602,3.053917,17.092499,,,,,,,
1512179101.069437,0.020183,0.371376,3.114604,-0.041594,0.024969,-0.120039,0.018806,-0.362898,-0.931639,-0.046684,-0.066592,0.102965,-8.547881,3.429604,17.163834,,,,,,,
1512179101.089426,0.022295,0.371662,3.113233,0.045552,0.113596,-0.034248,0.020771,-0.363164,-0.931493,-0.054402,-0.079738,0.096380,-8.773055,3.429268,16.790756,,,,,,,
1512179101.109415,0.025327,0.372717,3.113381,0.038148,0.177550,0.029830,0.023586,-0.364147,-0.931042,-0.054912,-0.089390,0.058194,-8.697875,3.429375,17.165115,,,,,,,
1512179101.129435,0.028542,0.372370,3.114555,-0.054176,0.164512,0.067890,0.026583,-0.363824,-0.931088,-0.048570,-0.102118,-0.040759,-8.697768,3.504372,16.715149,,,,,,,
1512179101.149424,0.029297,0.371005,3.116503,-0.093006,0.042635,0.089290,0.027300,-0.362552,-0.931563,-0.029207,-0.099331,-0.094026,-8.321715,3.729942,16.787064,,,,,,,
1512179101.169413,0.028668,0.370490,3.119155,-0.039505,0.036209,0.142283,0.026719,-0.362072,-0.931767,-0.014604,-0.117313,-0.118709,-8.469192,4.329720,16.413620,,,,,,,
1512179101.189358,0.028334,0.370927,3.124053,0.009409,0.113985,0.282916,0.026404,-0.362479,-0.931617,-0.002173,-0.124871,-0.145470,-8.320357,4.029945,16.787201,,,,,,,
1512179101.209378,0.028397,0.371522,3.132064,0.022249,0.155409,0.411172,0.026456,-0.363034,-0.931400,-0.002668,-0.087863,-0.181698,-8.320739,3.954933,16.712173,,,,,,,
1512179101.229367,0.027298,0.372479,3.140855,0.051209,0.059342,0.395265,0.025423,-0.363926,-0.931081,0.003523,-0.041516,-0.201838,-8.845092,4.104149,16.641708,,,,,,,
1512179101.249356,0.024076,0.374834,-3.135183,0.148613,-0.078117,0.300253,0.022402,-0.366118,-0.930298,-0.003176,-0.054337,-0.157257,-8.619460,4.254494,16.564865,,,,,,,
1512179101.269345,0.019957,0.378673,-3.129502,0.184472,-0.098275,0.258060,0.018542,-0.369688,-0.928971,0.002546,-0.083452,-0.072128,-8.919692,4.179039,16.792374,,,,,,,
1512179101.289364,0.017333,0.380178,-3.123314,-0.032862,0.042274,0.321498,0.016095,-0.371086,-0.928459,0.020419,-0.097054,-0.028588,-9.066985,4.778816,16.793930,,,,,,,
1512179101.309353,0.017624,0.373740,-3.113726,-0.527438,0.277190,0.521963,0.016407,-0.365100,-0.930824,0.069684,-0.065228,-0.096978,-8.839812,5.304161,16.417267,,,,,,,
1512179101.329342,0.018486,0.358028,-3.099888,-0.908416,0.253881,0.675209,0.017313,-0.350428,-0.936429,0.122793,0.068202,-0.249591,-9.212371,5.903603,15.895737,,,,,,,
1512179101.349362,0.015173,0.340793,-3.085030,-0.780627,-0.023647,0.669698,0.014300,-0.334235,-0.942381,0.128171,0.157324,-0.291185,-9.133285,6.803719,15.970505,,,,,,,
1512179101.369351,0.007308,0.332655,-3.072819,-0.141511,-0.270149,0.494736,0.006907,-0.326553,-0.945153,0.089879,0.184967,-0.188987,-9.956557,7.177483,16.052689,,,,,,,
1512179101.389340,0.000147,0.338354,-3.064578,0.486801,-0.141785,0.346507,0.000139,-0.331935,-0.943302,0.056517,0.131770,-0.019604,-9.956786,7.102486,16.277664,,,,,,,
1512179101.409329,-0.002328,0.350456,-3.057966,0.612550,0.040107,0.293527,-0.002187,-0.343327,-0.939213,0.067983,0.091938,0.065526,-9.882461,6.952599,16.276947,,,,,,,
1512179101.429348,-0.003636,0.359233,-3.051336,0.293202,0.031002,0.329378,-0.003404,-0.351556,-0.936160,0.104784,0.086877,0.110507,-10.258666,6.652031,16.580002,,,,,,,
1512179101.449337,-0.007716,0.358610,-3.043459,-0.228151,-0.130143,0.389493,-0.007225,-0.350973,-0.936358,0.132103,0.081899,0.120318,-10.409118,6.576805,16.356232,,,,,,,
1512179101.469326,-0.015331,0.349130,-3.034082,-0.568943,-0.254777,0.491794,-0.014405,-0.342080,-0.939560,0.156052,0.098641,0.125534,-10.779647,7.551247,16.509872,,,,,,,
1512179101.489315,-0.024972,0.337336,-3.022170,-0.552886,-0.301991,0.615528,-0.023562,-0.330975,-0.943345,0.130999,0.103649,0.118562,-11.227660,8.000572,16.438904,,,,,,,
1512179101.509335,-0.037092,0.327323,-3.008646,-0.439869,-0.445077,0.671031,-0.035115,-0.321510,-0.946255,0.110081,0.100364,0.172115,-11.673812,8.824913,16.743103,,,,,,,
1512179101.529324,-0.052137,0.318976,-2.994241,-0.364027,-0.558283,0.721845,-0.049485,-0.313594,-0.948267,0.099625,0.067729,0.283304,-12.269713,9.724022,16.823624,,,,,,,
1512179101.549313,-0.067735,0.310773,-2.979052,-0.379346,-0.523107,0.747330,-0.064441,-0.305794,-0.949914,0.055225,0.048714,0.357309,-12.868667,9.948112,16.903824,,,,,,,
1512179101.569302,-0.080226,0.301303,-2.965254,-0.452171,-0.344632,0.646686,-0.076530,-0.296765,-0.951879,0.036613,0.041607,0.359029,-13.316009,10.547447,16.832916,,,,,,,
1512179101.589321,-0.090200,0.289374,-2.954438,-0.635620,-0.375643,0.521323,-0.086333,-0.285352,-0.954526,0.037642,0.004529,0.283079,-13.310836,11.672462,17.058456,,,,,,,
1512179101.609310,-0.102782,0.271883,-2.946259,-0.952410,-0.618479,0.455123,-0.098832,-0.268546,-0.958183,0.047959,-0.023293,0.208015,-13.831359,12.646675,17.213348,,,,,,,
1512179101.629299,-0.119203,0.249300,-2.939506,-1.137011,-0.768316,0.458323,-0.115245,-0.246725,-0.962209,0.056391,-0.032038,0.159077,-14.276259,13.771004,17.292709,,,,,,,
1512179101.649288,-0.135451,0.226106,-2.932312,-1.054732,-0.683915,0.515243,-0.131601,-0.224184,-0.965620,0.016030,-0.034239,0.109496,-14.947845,14.519997,17.373779,,,,,,,
1512179101.669308,-0.149333,0.206696,-2.924894,-0.814930,-0.593704,0.459335,-0.145612,-0.205227,-0.967822,-0.058367,-0.008213,0.058001,-15.845794,14.968651,17.456650,,,,,,,
1512179101.689297,-0.161371,0.191540,-2.921450,-0.700973,-0.517076,0.145696,-0.157733,-0.190371,-0.968958,-0.102414,0.041338,0.046411,-16.289719,16.242989,18.136047,,,,,,,
1512179101.709286,-0.169872,0.180049,-2.926090,-0.533977,-0.401681,-0.277904,-0.166323,-0.179078,-0.969674,-0.103696,0.095597,0.084084,-16.813660,16.467201,18.215622,,,,,,,
1512179101.729275,-0.169211,0.172088,-2.935774,-0.444177,0.038922,-0.465896,-0.165917,-0.171240,-0.971158,-0.141090,0.013098,-0.026187,-16.663437,16.542427,17.989380,,,,,,,
1512179101.749295,-0.165728,0.166385,-2.949498,-0.380630,0.167654,-0.692663,-0.162692,-0.165619,-0.972678,-0.118451,-0.072006,-0.133737,-16.587723,16.692543,18.063812,,,,,,,
1512179101.769284,-0.153941,0.161805,-2.964963,-0.335094,0.653801,-0.714830,-0.151331,-0.161100,-0.975267,-0.123175,-0.079561,-0.181212,-16.363220,16.617882,17.761871,,,,,,,
1512179101.789273,-0.135562,0.155298,-2.981495,-0.521396,0.755139,-0.790737,-0.133521,-0.154675,-0.978901,-0.125024,-0.146625,-0.309185,-15.765731,16.093773,17.456528,,,,,,,
1512179101.809292,-0.117382,0.144117,-2.999746,-0.753867,0.825400,-0.847162,-0.115899,-0.143619,-0.982823,-0.121314,-0.144528,-0.377239,-15.241546,16.019554,16.477036,,,,,,,
1512179101.829281,-0.095291,0.127614,-3.019492,-1.041640,1.063275,-0.904876,-0.094373,-0.127268,-0.987368,-0.042163,-0.062490,-0.361463,-14.417739,15.795799,16.094910,,,,,,,
1512179101.849270,-0.069984,0.104006,-3.040810,-1.394852,1.146268,-1.007777,-0.069549,-0.103818,-0.992162,0.018417,0.006223,-0.302821,-13.288711,16.772484,15.410812,,,,,,,
1512179101.869259,-0.047331,0.075657,-3.065573,-1.499894,0.936133,-1.242432,-0.047178,-0.075585,-0.996023,-0.008699,-0.058143,-0.290553,-12.460631,17.523735,14.804153,,,,,,,
1512179101.889279,-0.031861,0.050622,-3.094506,-1.095239,0.515307,-1.494956,-0.031815,-0.050600,-0.998212,0.015579,-0.104353,-0.281436,-12.235213,17.674065,14.277313,,,,,,,
1512179101.909268,-0.032191,0.039209,-3.121511,-0.295477,-0.433872,-1.101822,-0.032160,-0.039199,-0.998714,-0.104238,-0.171464,-0.199864,-11.785888,17.524742,14.273422,,,,,,,
1512179101.929257,-0.038368,0.039713,-3.130933,0.038958,-0.051869,-0.095688,-0.038329,-0.039703,-0.998476,-0.030992,-0.094590,-0.175306,-12.463561,16.923729,14.353867,,,,,,,
1512179101.949246,-0.026220,0.042454,-3.124211,0.320958,0.949359,0.501415,-0.026193,-0.042441,-0.998756,0.041437,0.162390,-0.137765,-11.636230,17.449974,14.272110,,,,,,,
1512179101.969265,-0.004208,0.057243,-3.113682,1.012574,1.199381,0.464332,-0.004201,-0.057212,-0.998353,-0.020503,0.267997,-0.079970,-10.961196,17.525978,13.666412,,,,,,,
1512179101.989254,0.018111,0.084661,-3.108573,1.542557,1.038497,0.123916,0.018045,-0.084560,-0.996255,-0.105768,0.240230,-0.023719,-10.066543,16.402321,13.058228,,,,,,,
1512179102.009243,0.033759,0.118569,-3.112143,1.743795,0.573846,-0.272428,0.033516,-0.118291,-0.992413,-0.119713,0.157827,0.052182,-9.098525,14.903770,12.599258,,,,,,,
1512179102.029232,0.041716,0.151403,-3.121186,1.572120,0.245932,-0.414641,0.041226,-0.150825,-0.987700,-0.085477,0.077690,0.130294,-8.803206,13.854210,12.671219,,,,,,,
1512179102.049252,0.051974,0.178215,-3.130581,1.220966,0.635198,-0.370404,0.051128,-0.177273,-0.982833,-0.081233,0.046429,0.174529,-8.887328,11.829094,12.670929,,,,,,,
1512179102.069241,0.073154,0.198971,-3.137183,1.004171,1.171817,-0.191513,0.071646,-0.197661,-0.977649,-0.070456,0.078612,0.145984,-7.537276,11.831108,12.734451,,,,,,,
1512179102.089230,0.098380,0.219206,3.141472,1.055254,1.170690,-0.121483,0.095871,-0.217455,-0.971351,0.004745,0.132250,0.108924,-7.017150,10.781898,12.429504,,,,,,,
1512179102.109219,0.119441,0.240592,3.135679,1.123844,0.922105,-0.219428,0.115725,-0.238278,-0.964278,0.008955,0.236294,0.197340,-6.122069,9.733238,12.046371,,,,,,,
1512179102.129238,0.140929,0.264840,3.122983,1.389080,0.850616,-0.598552,0.135565,-0.261755,-0.955566,-0.038977,0.198812,0.163253,-4.926711,8.760033,11.510727,,,,,,,
1512179102.149227,0.164087,0.294092,3.100994,1.742185,0.876387,-0.935553,0.156338,-0.289871,-0.944210,-0.083966,0.177658,0.222317,-4.108535,7.186256,12.027985,,,,,,,
1512179102.169216,0.191761,0.328805,3.072623,2.061783,0.996732,-1.045637,0.180378,-0.322912,-0.929081,-0.063831,0.101233,0.272266,-3.141219,5.462700,12.168900,,,,,,,
1512179102.189208,0.218142,0.366587,3.044339,2.096542,0.666183,-0.777637,0.202036,-0.358431,-0.911432,-0.033839,0.047594,0.212686,-2.024245,3.664375,12.308517,,,,,,,
1512179102.209228,0.229216,0.400098,3.028959,1.527843,0.047430,-0.002344,0.209270,-0.389509,-0.896933,0.039250,-0.032366,0.131110,-1.130019,2.315727,12.900238,,,,,,,
1512179102.229217,0.218595,0.421458,3.035561,0.657701,-0.738499,0.814909,0.197881,-0.409091,-0.890779,0.057810,0.014453,0.069566,-1.362288,0.665382,13.201385,,,,,,,
1512179102.249206,0.186046,0.429740,3.057480,-0.038038,-1.337351,1.149212,0.168156,-0.416635,-0.893386,0.143764,0.120874,0.168197,-2.185302,1.039146,13.808563,,,,,,,
1512179102.269226,0.146052,0.426615,3.087099,-0.552009,-1.365366,1.414579,0.132489,-0.413792,-0.900679,0.122287,0.051335,0.185454,-3.608504,1.412010,14.045853,,,,,,,
1512179102.289215,0.105545,0.415537,3.125111,-0.871728,-1.147648,1.807279,0.096384,-0.403681,-0.909809,0.099417,0.027674,0.225772,-5.180022,2.159645,14.284576,,,,,,,
1512179102.309204,0.069167,0.398966,-3.111405,-1.084915,-0.738586,2.213915,0.063684,-0.388466,-0.919260,0.088126,0.021187,0.241846,-6.973876,3.506950,14.450500,,,,,,,
1512179102.329193,0.041386,0.377619,-3.057035,-1.268659,-0.085877,2.591974,0.038459,-0.368709,-0.928749,0.082727,-0.028829,0.152412,-8.167510,4.930168,14.386368,,,,,,,
1512179102.349212,0.024236,0.354286,-2.996386,-1.179457,0.321725,2.892118,0.022728,-0.346921,-0.937619,0.077812,-0.107150,-0.061984,-9.499434,9.053169,13.424744,,,,,,,
1512179102.369201,0.009293,0.340223,-2.936246,-0.417671,0.202651,2.654348,0.008760,-0.333697,-0.942640,0.107420,-0.046628,-0.158419,-10.241714,10.777061,13.356903,,,,,,,
1512179102.389190,-0.002683,0.344776,-2.891994,0.580952,0.140902,1.697419,-0.002525,-0.337985,-0.941148,0.016334,-0.042416,-0.159820,-10.389007,11.376839,13.358459,,,,,,,
1512179102.409179,-0.006019,0.365481,-2.870894,1.271706,0.233971,0.541484,-0.005621,-0.357399,-0.933935,-0.024423,-0.054939,-0.102747,-10.390929,10.926826,13.583252,,,,,,,
1512179102.429199,0.003166,0.393566,-2.869625,1.387040,0.649867,-0.097168,0.002924,-0.383484,-0.923543,0.125433,0.029541,-0.003871,-9.946471,9.727501,13.278885,,,,,,,
1512179102.449188,0.018335,0.416580,-2.870233,0.975150,0.789922,0.062591,0.016766,-0.404635,-0.914324,0.146610,-0.091291,-0.016874,-9.575255,8.903053,13.125305,,,,,,,
1512179102.469177,0.029286,0.422378,-2.862938,-0.235321,0.607680,0.536939,0.026708,-0.409931,-0.911725,0.131266,-0.155835,-0.093218,-8.750823,8.829292,12.668259,,,,,,,
1512179102.489166,0.030201,0.400732,-2.847793,-1.594749,0.206923,0.659769,0.027804,-0.390093,-0.920356,0.217435,-0.024244,-0.201364,-8.967391,10.703972,12.671051,,,,,,,
1512179102.509185,0.024497,0.358630,-2.835447,-2.321018,-0.207065,0.398348,0.022936,-0.350992,-0.936097,0.248197,0.107095,-0.308196,-9.109618,12.503746,11.998154,,,,,,,
1512179102.529174,0.015502,0.312901,-2.830974,-2.190493,-0.440081,0.035904,0.014749,-0.307820,-0.951330,0.221045,0.200444,-0.251673,-9.176253,14.378654,11.849655,,,,,,,
1512179102.549163,0.006639,0.275733,-2.832433,-1.625237,-0.438933,-0.108349,0.006388,-0.272252,-0.962205,0.180089,0.145940,-0.107650,-10.146880,15.352196,11.858398,,,,,,,
1512179102.569152,0.002189,0.252559,-2.830273,-0.862416,0.034700,0.265741,0.002120,-0.249882,-0.968274,0.145921,0.090184,0.052655,-10.292495,16.326988,11.860123,,,,,,,
1512179102.589172,0.009363,0.245354,-2.819856,-0.081860,0.738089,0.611043,0.009082,-0.242900,-0.970009,0.207485,0.097438,0.130760,-9.689666,17.002892,11.405334,,,,,,,
1512179102.609161,0.026154,0.250239,-2.804542,0.344359,1.149550,0.837191,0.025336,-0.247635,-0.968522,0.214791,0.055695,0.089631,-9.465453,16.853218,11.178360,,,,,,,
1512179102.629150,0.044870,0.256639,-2.784644,0.186557,1.151062,1.033199,0.043386,-0.253831,-0.966275,0.180872,0.095643,0.055279,-8.263503,17.380028,10.343399,,,,,,,
1512179102.649139,0.057849,0.256609,-2.763610,-0.193365,0.736138,0.972948,0.055924,-0.253802,-0.965638,0.113830,0.129916,0.078431,-7.363723,17.381371,9.885757,,,,,,,
1512179102.669158,0.063213,0.251994,-2.744632,-0.276047,0.441399,0.865183,0.061175,-0.249335,-0.966483,0.006803,0.127936,0.214545,-7.135497,18.131721,9.584183,,,,,,,
1512179102.689147,0.070228,0.250915,-2.727333,0.009417,0.668374,0.826402,0.067973,-0.248291,-0.966298,-0.046061,0.100235,0.310292,-6.309905,18.282951,9.427246,,,,,,,
1512179102.709136,0.083821,0.256181,-2.710559,0.316479,1.053362,0.842851,0.080990,-0.253388,-0.963968,-0.066464,0.040879,0.409800,-5.631637,19.033974,9.196854,,,,,,,
1512179102.729125,0.103894,0.266085,-2.692464,0.394005,1.284025,0.936457,0.100058,-0.262957,-0.959605,-0.127142,0.082232,0.369258,-4.732680,18.885323,8.439133,,,,,,,
1512179102.749145,0.129321,0.273659,-2.675381,0.219454,1.575642,0.804886,0.124162,-0.270256,-0.954749,-0.115205,-0.006676,0.306143,-3.082274,19.037788,7.900177,,,,,,,
1512179102.769134,0.156517,0.276784,-2.660131,-0.068010,1.540122,0.715309,0.149946,-0.273263,-0.950181,-0.123228,0.029229,0.144318,-1.806777,19.189705,7.514420,,,,,,,
1512179102.789123,0.179459,0.273930,-2.646709,-0.348870,1.139483,0.531816,0.171842,-0.270517,-0.947254,-0.095426,0.016199,-0.014690,-0.831771,19.266167,6.831177,,,,,,,
1512179102.809143,0.193192,0.266120,-2.636804,-0.519631,0.647187,0.325076,0.185234,-0.262990,-0.946850,-0.093468,-0.012630,-0.076496,0.223924,20.542763,6.747833,,,,,,,
1512179102.829132,0.199632,0.257732,-2.628460,-0.436110,0.315057,0.351785,0.191758,-0.254888,-0.947766,-0.096498,-0.058176,-0.127460,0.675050,20.843437,6.294159,,,,,,,
1512179102.849121,0.197694,0.254845,-2.617102,-0.134290,-0.123969,0.580632,0.190065,-0.252095,-0.948854,-0.116319,-0.095882,-0.215422,0.526704,21.218208,6.220596,,,,,,,
1512179102.869110,0.190506,0.257229,-2.605748,0.079762,-0.210054,0.525868,0.183126,-0.254401,-0.949602,-0.134481,-0.152581,-0.243406,0.228318,21.592766,6.073334,,,,,,,
1512179102.889129,0.185809,0.261860,-2.597209,0.182055,-0.069727,0.406308,0.178443,-0.258877,-0.949284,-0.125938,-0.181858,-0.303630,0.075883,21.067528,5.924362,,,,,,,
1512179102.909118,0.184063,0.267225,-2.590704,0.216161,0.018035,0.346342,0.176530,-0.264056,-0.948215,-0.085893,-0.230558,-0.404278,0.377946,21.517982,5.997009,,,,,,,
1512179102.929107,0.181741,0.273130,-2.583007,0.225573,-0.053793,0.482682,0.174042,-0.269747,-0.947072,-0.035706,-0.328886,-0.458644,0.074861,20.842537,5.924255,,,,,,,
1512179102.949096,0.176010,0.280609,-2.569622,0.275499,-0.181475,0.811310,0.168254,-0.276941,-0.946041,-0.024211,-0.254340,-0.548389,0.000169,20.917427,5.849915,,,,,,,
1512179102.969116,0.164438,0.290168,-2.553376,0.401732,-0.467613,0.834527,0.156855,-0.286113,-0.945270,-0.053248,-0.203588,-0.504925,-0.598525,21.216530,5.780167,,,,,,,
1512179102.989105,0.148955,0.303415,-2.541898,0.670541,-0.602193,0.494682,0.141626,-0.298781,-0.943754,-0.133768,-0.219194,-0.366243,-0.826858,20.466179,5.856720,,,,,,,
1512179103.009094,0.138896,0.320292,-2.542972,0.918726,-0.377201,-0.192811,0.131409,-0.314843,-0.940003,-0.118836,-0.153540,-0.203735,-1.655547,19.639931,5.938354,,,,,,,
1512179103.029083,0.141563,0.338605,-2.555340,1.006249,0.133189,-0.562891,0.133079,-0.332171,-0.933784,-0.072456,-0.160993,-0.147362,-2.032485,19.189369,6.091339,,,,,,,
1512179103.049102,0.155192,0.356606,-2.572962,1.024546,0.467941,-0.750150,0.144845,-0.349095,-0.925825,0.030127,-0.114848,-0.190493,-1.813262,17.914696,6.013840,,,,,,,
1512179103.069091,0.171048,0.375917,-2.593797,1.196116,0.414915,-0.813946,0.158329,-0.367126,-0.916597,0.094051,-0.041627,-0.099531,-1.296096,16.190468,5.858582,,,,,,,
1512179103.089080,0.187345,0.399507,-2.617099,1.439190,0.347062,-0.882083,0.171584,-0.388965,-0.905133,0.027070,0.047580,0.049969,-1.076583,14.990807,5.706116,,,,,,,
1512179103.109069,0.206206,0.426030,-2.644110,1.598938,0.453275,-0.997737,0.186446,-0.413259,-0.891322,-0.039748,0.120656,0.211024,-0.709899,13.116356,5.927063,,,,,,,
1512179103.129089,0.231869,0.454655,-2.674836,1.761319,0.767719,-1.066779,0.206453,-0.439153,-0.874370,-0.086366,0.176320,0.369288,-0.118148,11.317238,5.621140,,,,,,,
1512179103.149078,0.268430,0.485375,-2.708462,1.910953,1.242228,-1.067225,0.234586,-0.466540,-0.852824,-0.078381,0.213046,0.423595,0.925248,9.818810,5.911514,,,,,,,
1512179103.169067,0.314637,0.517207,-2.744617,2.017737,1.539343,-1.063578,0.268994,-0.494454,-0.826533,-0.084790,0.295190,0.475520,2.112962,7.045586,6.275040,,,,,,,
1512179103.189022,0.368690,0.548605,-2.783852,2.053503,1.817173,-1.085546,0.307507,-0.521497,-0.795914,-0.097561,0.380857,0.528199,4.355012,5.248955,6.555069,,,,,,,
1512179103.209041,0.432610,0.577047,-2.828298,2.015764,2.128263,-1.238523,0.351357,-0.545552,-0.760869,-0.103264,0.418049,0.516438,6.671159,3.227425,7.059372,,,,,,,
1512179103.229030,0.505063,0.598796,-2.877242,1.798594,2.310867,-1.377490,0.399678,-0.563648,-0.722881,-0.071843,0.437031,0.444637,9.061463,1.056007,7.187973,,,,,,,
1512179103.249019,0.578440,0.610451,-2.926590,1.369134,2.192872,-1.456611,0.447975,-0.573237,-0.686088,-0.021294,0.427607,0.337532,11.603288,-0.815178,7.690430,,,,,,,
1512179103.269039,0.640943,0.610763,-2.968948,0.778754,1.690797,-1.365640,0.489848,-0.573493,-0.656623,0.019292,0.436362,0.255561,14.222108,-2.236244,8.117462,,,,,,,
1512179103.289028,0.683635,0.601734,-2.999118,0.192264,1.023008,-1.194163,0.520676,-0.566073,-0.639107,-0.004669,0.465334,0.233330,16.247299,-2.233208,8.475250,,,,,,,
1512179103.309017,0.707134,0.585240,-3.018934,-0.268006,0.409123,-1.175249,0.541541,-0.552399,-0.633710,-0.031776,0.523774,0.266187,17.745285,-2.680962,8.462296,,,,,,,
1512179103.329006,0.720070,0.560826,-3.033867,-0.654571,0.193078,-1.340445,0.558422,-0.531886,-0.636602,-0.040951,0.488078,0.291585,18.646896,-2.304604,8.304810,,,,,,,
1512179103.349025,0.730725,0.529396,-3.045018,-0.981879,0.312332,-1.397007,0.576049,-0.505013,-0.642751,0.053620,0.408928,0.263876,19.699081,-1.778038,7.921127,,,,,,,
1512179103.369015,0.743086,0.494908,-3.047755,-1.311008,0.684119,-1.137165,0.595384,-0.474950,-0.648028,0.144926,0.296804,0.053286,20.302078,-1.027122,7.166382,,,,,,,
1512179103.389004,0.754946,0.461758,-3.042215,-1.385291,0.675928,-0.835511,0.613484,-0.445523,-0.652033,0.227596,0.287350,-0.171011,21.356308,-0.050545,6.857925,,,,,,,
1512179103.408993,0.760804,0.432903,-3.033295,-1.296943,0.356305,-0.648781,0.625898,-0.419508,-0.657468,0.243776,0.291761,-0.219638,23.391937,2.427513,5.791855,,,,,,,
1512179103.429012,0.759875,0.404216,-3.021444,-1.525624,0.096216,-0.563450,0.633318,-0.393298,-0.666502,0.292859,0.161014,-0.345522,23.248383,3.927299,5.193817,,,,,,,
1512179103.449001,0.750590,0.371696,-3.003023,-1.905142,-0.243207,-0.450731,0.635494,-0.363197,-0.681349,0.345753,0.066367,-0.452166,23.329498,5.352409,4.593842,,,,,,,
1512179103.468990,0.734549,0.337471,-2.979137,-2.045151,-0.447856,-0.245592,0.632447,-0.331102,-0.700273,0.367461,-0.041899,-0.502471,22.888153,7.376747,3.698608,,,,,,,
1512179103.488979,0.715820,0.306767,-2.952081,-1.963889,-0.554081,0.057977,0.625600,-0.301978,-0.719329,0.353633,-0.136926,-0.577851,22.594604,8.876305,3.101852,,,,,,,
1512179103.508999,0.694055,0.280847,-2.923644,-1.792351,-0.763561,0.247360,0.614599,-0.277169,-0.738543,0.344935,-0.169089,-0.641035,21.776764,10.525078,2.584625,,,,,,,
1512179103.528988,0.669023,0.260131,-2.898063,-1.434958,-0.984334,0.349847,0.599353,-0.257207,-0.758037,0.359677,-0.187678,-0.588429,20.657394,11.798409,2.369781,,,,,,,
1512179103.548977,0.642926,0.246125,-2.874084,-1.208691,-0.987666,0.592980,0.581472,-0.243647,-0.776226,0.330164,-0.203786,-0.452626,19.460983,12.621605,2.155365,,,,,,,
1512179103.568966,0.618151,0.234495,-2.844886,-1.408239,-0.835899,0.934951,0.563669,-0.232352,-0.792647,0.230658,-0.249444,-0.399384,18.116531,13.894600,1.792435,,,,,,,
1512179103.588985,0.594802,0.220552,-2.807648,-1.689962,-0.700028,1.153084,0.546771,-0.218768,-0.808197,0.102597,-0.280240,-0.467011,17.447601,15.243599,1.798798,,,,,,,
1512179103.608974,0.572618,0.207013,-2.769875,-1.437581,-0.744537,1.167245,0.530266,-0.205538,-0.822540,0.103523,-0.213667,-0.552658,16.478271,16.517143,1.657669,,,,,,,
1512179103.628963,0.548721,0.202344,-2.738473,-0.747244,-0.961428,1.185021,0.510955,-0.200966,-0.835785,0.083085,-0.120948,-0.431762,15.584382,17.865791,1.740936,,,,,,,
1512179103.648952,0.523443,0.207740,-2.714460,-0.173495,-1.021279,1.104643,0.489117,-0.206249,-0.847482,0.019977,-0.053120,-0.194083,14.307343,17.413887,1.751572,,,,,,,
1512179103.668972,0.502115,0.217998,-2.697228,0.124257,-0.767266,0.903023,0.469890,-0.216275,-0.855820,0.004399,-0.023623,0.000306,13.482469,17.412651,1.983582,,,,,,,
1512179103.688961,0.488973,0.229074,-2.685208,0.247070,-0.375744,0.715342,0.457449,-0.227076,-0.859754,0.024179,-0.003545,0.096433,12.805589,16.961632,2.289093,,,,,,,
1512179103.708950,0.483398,0.240187,-2.676190,0.308701,-0.078487,0.612795,0.451448,-0.237884,-0.860003,0.048643,0.001327,0.133014,12.506257,17.111183,2.291718,,,,,,,
1512179103.728969,0.481735,0.251522,-2.669350,0.376306,0.031804,0.525672,0.448739,-0.248878,-0.858308,0.057349,-0.000755,0.185945,12.806443,17.111626,2.664169,,,,,,,
1512179103.748958,0.481550,0.264239,-2.664513,0.512237,0.064122,0.494707,0.447078,-0.261175,-0.855517,0.049947,-0.012354,0.265795,12.802140,16.136620,2.813721,,,,,,,
1512179103.768947,0.482136,0.279874,-2.660880,0.666900,0.075989,0.554555,0.445631,-0.276234,-0.851532,0.050615,-0.047023,0.330414,12.424134,15.461052,2.891586,,,,,,,
1512179103.788936,0.480211,0.298775,-2.654704,0.693669,-0.080407,0.798527,0.441500,-0.294349,-0.847606,0.049543,-0.024208,0.394847,12.573579,15.311287,3.115250,,,,,,,
1512179103.808956,0.472134,0.317579,-2.642540,0.464901,-0.294834,1.020472,0.432046,-0.312267,-0.846065,0.003852,0.008083,0.475261,12.119935,14.485603,3.268692,,,,,,,
1512179103.828945,0.458230,0.331443,-2.624330,0.085010,-0.452594,1.100772,0.418285,-0.325408,-0.848025,-0.040951,0.063308,0.510699,11.818025,14.035149,3.496033,,,,,,,
1512179103.848934,0.442737,0.338159,-2.602906,-0.255735,-0.368563,1.016172,0.404152,-0.331751,-0.852410,-0.069756,0.076731,0.502236,11.145036,14.484138,3.501984,,,,,,,
1512179103.868923,0.430799,0.339151,-2.581518,-0.437950,-0.180596,0.890521,0.393810,-0.332686,-0.856874,-0.040691,0.066054,0.383257,10.544999,14.483238,3.432083,,,,,,,
1512179103.888942,0.421212,0.337121,-2.561407,-0.494879,-0.142024,0.789623,0.385852,-0.330771,-0.861225,0.002454,0.025550,0.225895,10.397523,15.008018,3.733597,,,,,,,
1512179103.908932,0.412502,0.335358,-2.542687,-0.380452,-0.100149,0.770106,0.378569,-0.329107,-0.865086,0.036622,-0.043299,0.085163,10.323564,15.232903,3.809341,,,,,,,
1512179103.928921,0.405938,0.337305,-2.525402,-0.145491,-0.021898,0.812159,0.372629,-0.330946,-0.866962,0.066565,-0.094576,-0.028592,10.103471,16.357582,3.511765,,,,,,,
1512179103.948910,0.398395,0.342936,-2.507702,-0.059774,-0.146938,0.908910,0.365350,-0.336254,-0.868016,0.057989,-0.103550,-0.073848,9.652696,16.131905,3.965485,,,,,,,
1512179103.968929,0.385847,0.346413,-2.488556,-0.291833,-0.387571,0.876995,0.353988,-0.339526,-0.871444,0.017793,-0.125150,-0.092210,9.878068,16.207237,4.038605,,,,,,,
1512179103.988918,0.369395,0.342999,-2.468406,-0.635889,-0.520384,0.788394,0.340020,-0.336313,-0.878225,0.007774,-0.183554,-0.171625,8.830537,16.730675,4.272766,,,,,,,
1512179104.008907,0.351575,0.333772,-2.447808,-0.818154,-0.564318,0.720574,0.325372,-0.327609,-0.887020,-0.002450,-0.198575,-0.272343,7.932603,17.179314,4.355637,,,,,,,
1512179104.028896,0.334592,0.324551,-2.429714,-0.613572,-0.544539,0.597809,0.311240,-0.318884,-0.895233,-0.006141,-0.166590,-0.343277,7.333863,17.478416,4.210861,,,,,,,
1512179104.048916,0.320639,0.321900,-2.418674,-0.074229,-0.509036,0.345628,0.298984,-0.316370,-0.900288,-0.011509,-0.124426,-0.351345,6.812852,18.302635,4.740707,,,,,,,
1512179104.068905,0.310476,0.328373,-2.417401,0.472050,-0.480933,0.060474,0.289188,-0.322504,-0.901311,-0.016208,-0.150671,-0.294581,6.739228,18.602531,4.816483,,,,,,,
1512179104.088894,0.300888,0.339658,-2.421801,0.617856,-0.628952,-0.061593,0.279436,-0.333165,-0.900509,-0.033800,-0.162654,-0.228138,6.359574,17.551964,4.969193,,,,,,,
1512179104.108883,0.286590,0.348459,-2.426695,0.376445,-0.895205,-0.109724,0.265694,-0.341450,-0.901565,-0.084694,-0.143124,-0.161592,5.532411,17.025719,5.350952,,,,,,,
1512179104.128902,0.267944,0.349825,-2.431410,-0.030497,-1.070708,-0.265480,0.248714,-0.342733,-0.905911,-0.117565,-0.092203,-0.119968,4.781236,16.724586,5.732193,,,,,,,
1512179104.148891,0.248816,0.343138,-2.439091,-0.316002,-1.071679,-0.536135,0.231901,-0.336443,-0.912704,-0.086424,-0.022062,-0.128922,3.581056,16.647789,6.042358,,,,,,,
1512179104.168880,0.233936,0.334759,-2.452242,-0.165533,-0.876518,-0.793389,0.218941,-0.328542,-0.918763,-0.011711,0.049993,-0.163162,2.456574,16.721107,6.426956,,,,,,,
1512179104.188900,0.225844,0.333811,-2.471103,0.378089,-0.614832,-0.907205,0.211569,-0.327646,-0.920808,0.048060,0.076929,-0.146133,1.633698,17.169868,6.659164,,,,,,,
1512179104.208884,0.223557,0.343987,-2.493500,0.915679,-0.420648,-0.915797,0.208712,-0.337243,-0.917990,0.052701,0.069726,-0.073434,1.480180,16.344643,7.035065,,,,,,,
1512179104.228873,0.224545,0.360670,-2.516864,1.091741,-0.330765,-0.856431,0.208337,-0.352901,-0.912171,0.052466,0.043178,0.009568,1.249513,15.069298,7.186386,,,,,,,
1512179104.248862,0.225112,0.376650,-2.537997,0.905184,-0.374028,-0.729225,0.207568,-0.367808,-0.906440,0.048352,0.022471,0.084327,1.245728,14.169289,7.710953,,,,,,,
1512179104.268881,0.222690,0.386785,-2.554386,0.508991,-0.459352,-0.562561,0.204538,-0.377213,-0.903258,0.053595,-0.000946,0.129118,0.942735,13.493828,7.788208,,,,,,,
1512179104.288870,0.216640,0.390316,-2.564936,0.165543,-0.524367,-0.360948,0.198783,-0.380480,-0.903172,0.053415,0.021990,0.165501,0.564881,12.818275,8.166077,,,,,,,
1512179104.308859,0.208339,0.391292,-2.571082,0.121719,-0.527910,-0.225141,0.191202,-0.381383,-0.904427,0.044668,0.084584,0.179254,0.190293,12.892708,8.319305,,,,,,,
1512179104.328848,0.200617,0.396107,-2.576548,0.422998,-0.457001,-0.196007,0.183844,-0.385830,-0.904067,0.046625,0.147838,0.178893,-0.410918,12.591805,8.624252,,,,,,,
1512179104.348868,0.196446,0.409511,-2.584365,0.909898,-0.288473,-0.235274,0.179046,-0.398161,-0.899673,0.031480,0.161695,0.234344,-0.412032,12.291801,9.074127,,,,,,,
1512179104.368857,0.198283,0.430466,-2.594334,1.201211,-0.006017,-0.238600,0.179015,-0.417295,-0.890965,0.033021,0.141904,0.272130,-0.793120,10.941231,9.076691,,,,,,,
1512179104.388846,0.204441,0.453231,-2.603881,1.152953,0.141146,-0.149237,0.182522,-0.437873,-0.880314,0.051853,0.101798,0.237629,-0.645507,10.341454,9.675125,,,,,,,
1512179104.408835,0.207414,0.470988,-2.608538,0.732617,-0.057514,0.053996,0.183509,-0.453767,-0.872021,0.077050,0.102693,0.192211,-0.498107,9.741676,9.898575,,,,,,,
1512179104.428854,0.201777,0.479064,-2.606868,0.176605,-0.331057,0.205963,0.177849,-0.460949,-0.869423,0.069374,0.100109,0.185005,-0.501372,8.991676,10.123230,,,,,,,
1512179104.448843,0.190662,0.478816,-2.600789,-0.169207,-0.453529,0.289007,0.168197,-0.460728,-0.871458,0.071183,0.120503,0.142134,-1.103728,8.465767,10.128082,,,,,,,
1512179104.468833,0.177883,0.475901,-2.592793,-0.189266,-0.435503,0.343150,0.157284,-0.458139,-0.874854,0.070804,0.122858,0.118568,-1.329711,8.240425,10.204895,,,,,,,
1512179104.488822,0.166830,0.475624,-2.583809,-0.008157,-0.286897,0.423051,0.147626,-0.457893,-0.876664,0.066867,0.097465,0.118180,-1.850692,9.064644,10.809738,,,,,,,
1512179104.508841,0.157590,0.478269,-2.572630,0.046029,-0.158923,0.569263,0.139329,-0.460243,-0.876792,0.063155,0.065422,0.108328,-2.223968,9.439095,10.888092,,,,,,,
1512179104.528830,0.149046,0.478410,-2.557909,-0.208394,-0.049515,0.681089,0.131823,-0.460369,-0.877886,0.045194,0.052455,0.069536,-2.595778,10.113533,11.191589,,,,,,,
1512179104.548819,0.141647,0.471601,-2.540918,-0.585980,0.063105,0.699466,0.125763,-0.454313,-0.881920,0.038772,0.066450,-0.034492,-2.594237,10.488533,10.891769,,,,,,,
1512179104.568808,0.136456,0.458584,-2.523790,-0.808912,0.139781,0.646399,0.121978,-0.442679,-0.888345,0.064576,0.069922,-0.192588,-2.590575,11.313530,10.817154,,,,,,,
1512179104.588828,0.131438,0.445952,-2.508054,-0.609817,0.056872,0.593561,0.118242,-0.431317,-0.894419,0.106565,0.089596,-0.280859,-2.736602,12.213310,10.668839,,,,,,,
1512179104.608817,0.126650,0.441048,-2.495298,-0.137245,0.039599,0.508664,0.114224,-0.426887,-0.897062,0.129413,0.073875,-0.250399,-2.734191,12.738319,10.744080,,,,,,,
1512179104.628806,0.124059,0.443546,-2.485124,0.136645,0.115971,0.453200,0.111767,-0.429145,-0.896294,0.128208,0.021980,-0.169227,-2.510512,12.438652,10.817032,,,,,,,
1512179104.648825,0.123529,0.445496,-2.475211,-0.079841,0.236323,0.463273,0.111189,-0.430906,-0.895521,0.101793,-0.054247,-0.123294,-2.959563,12.662987,10.670959,,,,,,,
1512179104.668814,0.124184,0.438427,-2.463758,-0.620345,0.271812,0.466227,0.112150,-0.424516,-0.898448,0.129305,-0.068190,-0.211751,-2.280852,13.489006,10.665604,,,,,,,
1512179104.688803,0.121993,0.423015,-2.451962,-0.895872,0.026864,0.418739,0.110964,-0.410511,-0.905079,0.188398,-0.011577,-0.312237,-2.277480,14.239006,10.665955,,,,,,,
1512179104.708792,0.113672,0.408068,-2.441513,-0.686376,-0.332696,0.368288,0.104114,-0.396837,-0.911965,0.200101,0.032304,-0.290824,-2.725463,14.688332,10.669983,,,,,,,
1512179104.728812,0.102318,0.401193,-2.433518,-0.184236,-0.403359,0.298561,0.094029,-0.390517,-0.915781,0.191494,0.039519,-0.150152,-2.946975,15.437996,10.897232,,,,,,,
1512179104.748801,0.095631,0.404289,-2.428444,0.304457,-0.092690,0.221434,0.087787,-0.393365,-0.915182,0.201565,0.028756,0.012228,-3.397536,15.287331,11.125992,,,,,,,
1512179104.768790,0.098868,0.414746,-2.425174,0.598474,0.418410,0.194423,0.090339,-0.402957,-0.910749,0.212090,0.001712,0.110731,-3.100829,14.537773,11.273087,,,,,,,
1512179104.788779,0.110915,0.428371,-2.421765,0.675490,0.789065,0.261861,0.100686,-0.415389,-0.904054,0.232108,-0.011262,0.126894,-2.426055,14.538780,10.817368,,,,,,,
1512179104.808798,0.124581,0.441682,-2.415367,0.575574,0.785364,0.438434,0.112334,-0.427461,-0.897027,0.228608,0.009324,0.128763,-1.378417,14.015358,10.808197,,,,,,,
1512179104.828787,0.131775,0.451791,-2.404037,0.346945,0.473757,0.647250,0.118210,-0.436578,-0.891867,0.193771,0.051004,0.166311,-0.928451,14.016029,10.729370,,,,,,,
1512179104.848776,0.129335,0.457680,-2.387747,0.111215,0.099159,0.830155,0.115700,-0.441868,-0.889588,0.136131,0.091190,0.238388,-1.004546,13.790916,10.579910,,,,,,,
1512179104.868765,0.118688,0.459964,-2.367374,-0.055426,-0.165207,0.967543,0.106103,-0.443915,-0.889765,0.079245,0.129066,0.327677,-1.453048,14.090248,10.883865,,,,,,,
1512179104.888785,0.104780,0.460468,-2.344801,-0.090310,-0.170694,1.013924,0.093695,-0.444367,-0.890932,0.027215,0.141480,0.397264,-1.676314,14.464912,10.960953,,,,,,,
1512179104.908774,0.094386,0.461409,-2.322518,-0.020374,0.077288,0.987017,0.084390,-0.445210,-0.891441,-0.004312,0.129338,0.406120,-1.524291,14.915138,10.959885,,,,,,,
1512179104.928763,0.089913,0.463570,-2.300791,0.031143,0.359382,0.979147,0.080315,-0.447144,-0.890849,-0.003685,0.106781,0.346247,-1.823318,15.139687,10.887543,,,,,,,
1512179104.948752,0.089528,0.465676,-2.279172,0.002775,0.512131,0.962214,0.079888,-0.449027,-0.889939,0.003990,0.079673,0.240190,-1.296218,15.590477,11.033279,,,,,,,
1512179104.968771,0.090250,0.466644,-2.258105,-0.054211,0.466180,0.923913,0.080491,-0.449891,-0.889449,0.020049,0.060197,0.091856,-0.996657,15.515923,10.805710,,,,,,,
1512179104.988760,0.086851,0.467149,-2.238330,-0.043745,0.145874,0.855790,0.077448,-0.450343,-0.889490,0.005529,0.027735,-0.016332,-0.994338,16.040932,10.730942,,,,,,,
1512179105.008750,0.077773,0.468469,-2.219562,0.019084,-0.113586,0.847269,0.069324,-0.451521,-0.889563,-0.023929,-0.063051,-0.041101,-0.768249,16.266273,10.879135,,,,,,,
1512179105.028739,0.064638,0.469704,-2.199580,-0.040991,-0.256973,0.927988,0.057597,-0.452622,-0.889840,-0.060252,-0.131515,-0.050208,-1.141112,16.715706,11.107529,,,,,,,
1512179105.048758,0.048094,0.467317,-2.177764,-0.260338,-0.365285,0.971338,0.042921,-0.450493,-0.891748,-0.118132,-0.135628,-0.054083,-1.439803,17.015266,11.035217,,,,,,,
1512179105.068747,0.032174,0.460410,-2.157034,-0.441664,-0.283069,0.852801,0.028819,-0.444316,-0.895407,-0.169215,-0.134191,-0.091639,-1.660644,17.914925,11.262543,,,,,,,
1512179105.088736,0.022270,0.450745,-2.141938,-0.529022,-0.092442,0.534509,0.020044,-0.435637,-0.899899,-0.169885,-0.121416,-0.171039,-2.109588,18.139259,11.341476,,,,,,,
1512179105.108756,0.019106,0.440738,-2.135307,-0.462621,0.008861,0.132853,0.017279,-0.426607,-0.904272,-0.125113,-0.111311,-0.283854,-1.808730,18.364708,11.039032,,,,,,,
1512179105.128745,0.019864,0.435366,-2.137900,-0.119240,-0.044306,-0.264261,0.018010,-0.421742,-0.906537,-0.078221,-0.117946,-0.334430,-1.958236,18.439476,11.340332,,,,,,,
1512179105.148734,0.022308,0.437954,-2.147691,0.272118,-0.089109,-0.531656,0.020201,-0.424087,-0.905396,-0.084013,-0.147782,-0.258224,-17.715683,3.890039,-18.739288,,,,,,,
1512179105.168723,0.028112,0.444614,-2.162355,0.338258,0.042755,-0.722131,0.025376,-0.430109,-0.902420,-0.110657,-0.193731,-0.179047,-17.867264,3.514811,-18.513199,,,,,,,
1512179105.188742,0.039814,0.447199,-2.180732,0.016979,0.262624,-0.881667,0.035889,-0.432441,-0.900947,-0.084901,-0.177666,-0.193321,-17.646088,2.690149,-18.740479,,,,,,,
1512179105.208712,0.055190,0.442769,-2.201296,-0.252509,0.347814,-0.955634,0.049843,-0.428443,-0.902193,-0.004524,-0.093026,-0.276182,-17.346085,2.690592,-18.743042,,,,,,,
1512179105.228701,0.069910,0.438091,-2.222236,-0.063711,0.231690,-0.968230,0.063256,-0.424211,-0.903351,0.052589,0.041475,-0.301467,-16.973785,2.091150,-18.746506,,,,,,,
1512179105.248690,0.081427,0.441904,-2.247259,0.486745,0.003071,-1.065519,0.073524,-0.427661,-0.900944,0.050423,0.122958,-0.184536,-16.447433,2.391947,-18.750824,,,,,,,
1512179105.268710,0.091697,0.455778,-2.277990,0.949837,-0.085764,-1.160395,0.082221,-0.440161,-0.894147,0.000588,0.100989,-0.004001,-16.602875,1.191706,-18.825104,,,,,,,
1512179105.288699,0.103753,0.474786,-2.310406,1.104625,0.010627,-1.168478,0.092111,-0.457148,-0.884608,-0.014352,0.077052,0.141459,-16.231125,0.442270,-18.603638,,,,,,,
1512179105.308688,0.118679,0.493177,-2.337796,0.982356,0.168295,-1.052439,0.104292,-0.473427,-0.874637,-0.029844,0.062630,0.205921,-16.012512,-0.982412,-18.531204,,,,,,,
1512179105.328677,0.134490,0.506807,-2.361827,0.697466,0.225250,-0.904988,0.117231,-0.485388,-0.866404,-0.025007,0.071676,0.198450,-15.867035,-2.032187,-18.157974,,,,,,,
1512179105.348696,0.148374,0.515289,-2.381696,0.465319,0.188226,-0.728317,0.128634,-0.492786,-0.860590,-0.015292,0.087207,0.166925,-15.194519,-2.556173,-18.388947,,,,,,,
1512179105.368685,0.158205,0.521352,-2.396735,0.379780,0.064856,-0.524233,0.136615,-0.498053,-0.856317,0.001584,0.116004,0.129709,-15.122513,-3.231070,-18.314896,,,,,,,
1512179105.388674,0.162692,0.527830,-2.407767,0.412102,-0.128761,-0.360265,0.139931,-0.503660,-0.852494,0.003410,0.135054,0.124039,-14.975250,-3.830847,-18.391449,,,,,,,
1512179105.408663,0.162187,0.535200,-2.415818,0.414370,-0.275328,-0.246675,0.138897,-0.510013,-0.848878,-0.022335,0.154926,0.165574,-14.975250,-3.830847,-18.391449,,,,,,,
1512179105.428683,0.159295,0.542166,-2.422213,0.362385,-0.318231,-0.199606,0.135875,-0.515993,-0.845748,-0.036815,0.154466,0.191131,-15.126083,-4.056082,-18.015274,,,,,,,
1512179105.448672,0.155756,0.547708,-2.426992,0.266286,-0.283270,-0.123050,0.132435,-0.520732,-0.843386,-0.029713,0.122111,0.189989,-15.276230,-4.131308,-17.639038,,,,,,,
1512179105.468661,0.151767,0.551177,-2.433174,0.128824,-0.217504,0.006314,0.128796,-0.523690,-0.842117,-0.009900,0.105660,0.151687,-15.428177,-4.581533,-17.487961,,,,,,,
1512179105.488650,0.147057,0.552413,-2.435848,0.008516,-0.172003,0.127322,0.124733,-0.524742,-0.842073,0.009590,0.104180,0.100008,-15.352798,-4.506414,-17.413574,,,,,,,
1512179105.508669,0.141714,0.552391,-2.435958,-0.039630,-0.149796,0.203457,0.120234,-0.524724,-0.842739,0.019216,0.097707,0.052517,-15.576874,-4.281759,-17.561554,,,,,,,
1512179105.528658,0.135753,0.551768,-2.432429,-0.085183,-0.157432,0.250745,0.115252,-0.524194,-0.843764,0.033018,0.065835,0.004927,-15.953522,-4.657324,-17.483536,,,,,,,
1512179105.548647,0.127988,0.549621,-2.425001,-0.193190,-0.226126,0.332092,0.108841,-0.522364,-0.845748,0.045914,0.036540,-0.032960,-15.650711,-4.056860,-17.260818,,,,,,,
1512179105.568667,0.117138,0.545474,-2.415279,-0.280988,-0.318287,0.415786,0.099910,-0.518824,-0.849023,0.051778,0.024515,-0.051429,-15.950363,-3.982321,-17.258240,,,,,,,
1512179105.588656,0.105253,0.540777,-2.404304,-0.279366,-0.286305,0.447901,0.090068,-0.514802,-0.852565,0.047841,0.024126,-0.040304,-16.397034,-3.232977,-17.329071,,,,,,,
1512179105.608645,0.096580,0.536490,-2.393669,-0.239470,-0.085382,0.431059,0.082883,-0.511122,-0.855503,0.066241,0.015608,-0.053036,-16.696320,-3.083426,-17.251450,,,,,,,
1512179105.628634,0.092833,0.531917,-2.383580,-0.284157,0.104676,0.434267,0.079892,-0.507186,-0.858126,0.100147,-0.015717,-0.109877,-16.695007,-2.783438,-17.326309,,,,,,,
1512179105.648654,0.091202,0.524826,-2.372983,-0.432403,0.171735,0.441949,0.078818,-0.501063,-0.861814,0.155130,-0.013326,-0.171816,-16.916855,-2.033758,-17.774048,,,,,,,
1512179105.668643,0.089385,0.517604,-2.362778,-0.324937,0.139957,0.387960,0.077573,-0.494800,-0.865538,0.217090,0.001330,-0.217760,-16.689789,-1.583426,-17.700745,,,,,,,
1512179105.688632,0.087385,0.516705,-2.353817,0.079940,0.127727,0.400176,0.075881,-0.494018,-0.866134,0.214097,-0.010117,-0.149781,-16.388031,-1.207968,-17.553131,,,,,,,
1512179105.708621,0.086892,0.523228,-2.343769,0.379068,0.296769,0.499980,0.075172,-0.499679,-0.862943,0.176461,-0.029893,-0.052295,-16.238449,-1.282751,-17.704437,,,,,,,
1512179105.728640,0.089187,0.531993,-2.331447,0.347425,0.489827,0.617457,0.076759,-0.507252,-0.858373,0.149925,-0.016628,-0.003917,-15.714752,-1.581961,-17.634033,,,,,,,
1512179105.748629,0.091468,0.536315,-2.315911,0.017498,0.496618,0.715048,0.078516,-0.510972,-0.856004,0.141958,0.030305,-0.016799,-15.562134,-0.981726,-17.785034,,,,,,,
1512179105.768618,0.090610,0.533238,-2.298431,-0.358392,0.333612,0.745278,0.077923,-0.508324,-0.857633,0.148746,0.075768,-0.024004,-15.411484,-0.831503,-17.861237,,,,,,,
1512179105.788607,0.085079,0.523675,-2.279513,-0.646070,0.125854,0.790493,0.073588,-0.500066,-0.862855,0.144200,0.109899,0.002320,-15.258530,-0.156271,-18.012207,,,,,,,
1512179105.808627,0.076590,0.509796,-2.262919,-0.817371,0.074237,0.832607,0.066786,-0.487999,-0.870285,0.124361,0.148690,0.059586,-15.329773,0.668619,-17.936188,,,,,,,
1512179105.828616,0.072132,0.494113,-2.246948,-0.850665,0.323148,0.794611,0.063449,-0.474251,-0.878100,0.104733,0.170006,0.085101,-15.025574,1.644083,-18.313278,,,,,,,
1512179105.848605,0.076139,0.479617,-2.233317,-0.701855,0.694338,0.645613,0.067483,-0.461439,-0.884601,0.124229,0.176359,0.050602,-14.572281,2.394754,-18.466766,,,,,,,
1512179105.868594,0.088052,0.470576,-2.223965,-0.332074,0.924904,0.470539,0.078380,-0.453400,-0.887854,0.168324,0.155991,0.029379,-12.529568,4.601864,-12.462318,,,,,,,
1512179105.888613,0.103475,0.470969,-2.214673,0.190127,0.964267,0.418546,0.092045,-0.453750,-0.886363,0.189449,0.096267,0.051005,-11.479031,4.753445,-12.771172,,,,,,,
1512179105.908602,0.117616,0.481268,-2.206059,0.609435,0.851602,0.456209,0.104016,-0.462903,-0.880285,0.169971,0.052534,0.106832,-10.655041,4.529675,-12.778297,,,,,,,
1512179105.928591,0.127884,0.496618,-2.196947,0.738400,0.640182,0.511709,0.112129,-0.476455,-0.872019,0.116371,0.029449,0.188639,-10.130840,4.380459,-13.007820,,,,,,,
1512179105.948580,0.132386,0.511683,-2.186796,0.639423,0.372897,0.553052,0.115093,-0.489645,-0.864292,0.050801,0.027655,0.289753,-9.608944,3.706249,-13.162590,,,,,,,
1512179105.968600,0.132014,0.523086,-2.175360,0.398002,0.224011,0.576759,0.114029,-0.499556,-0.858744,-0.006547,0.002959,0.343149,-9.759212,3.631023,-13.011360,,,,,,,
1512179105.988589,0.129407,0.528751,-2.162686,0.098378,0.175484,0.578647,0.111424,-0.504456,-0.856218,-0.039600,-0.009994,0.345873,-9.233837,3.706814,-12.940773,,,,,,,
1512179106.008578,0.126398,0.529064,-2.149269,-0.138227,0.199689,0.575299,0.108826,-0.504726,-0.856393,-0.069428,-0.032124,0.315545,-9.307858,3.931698,-13.015038,,,,,,,
1512179106.028597,0.124773,0.526257,-2.135462,-0.241440,0.320253,0.569961,0.107611,-0.502301,-0.857971,-0.083013,-0.055866,0.250610,-9.159542,3.556927,-13.016487,,,,,,,
1512179106.048586,0.126538,0.523309,-2.122041,-0.188844,0.492339,0.556397,0.109311,-0.499749,-0.859245,-0.088238,-0.081687,0.196754,-7.065788,6.423119,-7.937950,,,,,,,
1512179106.068575,0.133325,0.522369,-2.109331,-0.079246,0.773515,0.517384,0.115203,-0.498934,-0.858949,-0.125609,-0.108899,0.200791,-6.391243,6.349129,-8.168709,,,,,,,
1512179106.088564,0.147756,0.522351,-2.098185,-0.080429,1.122896,0.477007,0.127587,-0.498919,-0.857206,-0.119881,-0.193571,0.101789,-5.716347,6.350136,-8.399452,,,,,,,
1512179106.108584,0.164318,0.522014,-2.084722,-0.126833,1.128916,0.641598,0.141793,-0.498627,-0.855141,-0.040734,-0.209625,-0.088066,-4.513985,6.876930,-8.409401,,,,,,,
1512179106.128573,0.174884,0.519767,-2.067253,-0.340170,0.849543,0.764394,0.151016,-0.496678,-0.854696,-0.031539,-0.225109,-0.223185,-3.688042,7.103172,-8.566322,,,,,,,
1512179106.148562,0.177968,0.509850,-2.047482,-0.847479,0.516603,0.739894,0.154515,-0.488046,-0.859032,-0.025792,-0.215094,-0.345314,-3.008919,8.004189,-8.421638,,,,,,,
1512179106.168551,0.173441,0.488812,-2.027807,-1.359528,0.061026,0.609360,0.152363,-0.469578,-0.869645,-0.011631,-0.158917,-0.500762,-1.509151,10.080189,-5.300819,,,,,,,
1512179106.188571,0.160709,0.461907,-2.012077,-1.419795,-0.472671,0.359305,0.143249,-0.445656,-0.883669,-0.030227,-0.093758,-0.590315,-1.654690,11.054966,-5.149101,,,,,,,
1512179106.208514,0.143163,0.438606,-2.005292,-1.038451,-0.848399,-0.028788,0.129169,-0.424677,-0.896083,-0.093754,-0.078496,-0.557408,-1.874035,12.329639,-5.296593,,,,,,,
1512179106.228503,0.127161,0.422287,-2.009572,-0.653790,-0.859759,-0.471001,0.115678,-0.409848,-0.904789,-0.129319,-0.093433,-0.433788,-2.696819,12.778400,-4.914375,,,,,,,
1512179106.248492,0.120893,0.410262,-2.024653,-0.431625,-0.431232,-0.927892,0.110591,-0.398849,-0.910323,-0.078777,-0.080170,-0.358811,-3.595806,13.002048,-4.906624,,,,,,,
1512179106.268511,0.128796,0.403800,-2.048098,0.006707,0.140332,-1.170078,0.118111,-0.392916,-0.911958,0.029518,-0.046095,-0.407897,-3.629723,13.982254,-5.064735,,,,,,,
1512179106.288500,0.144687,0.409621,-2.074464,0.736423,0.269558,-1.131338,0.132255,-0.398262,-0.907687,0.088189,0.058387,-0.411832,-3.482155,13.457489,-5.216255,,,,,,,
1512179106.308489,0.156763,0.429028,-2.101563,1.350157,-0.105640,-1.066185,0.141972,-0.415987,-0.898219,0.027324,0.162447,-0.238103,-3.637215,12.332245,-5.215492,,,,,,,
1512179106.328478,0.163194,0.454896,-2.131807,1.532428,-0.427673,-1.209648,0.145948,-0.439369,-0.886371,-0.056211,0.177757,0.009144,-3.568367,10.982346,-5.366753,,,,,,,
1512179106.348498,0.169126,0.479768,-2.165874,1.419042,-0.467161,-1.318036,0.149317,-0.461574,-0.874445,-0.087306,0.145946,0.201532,-4.022499,10.081665,-5.513344,,,,,,,
1512179106.368487,0.177728,0.500243,-2.199916,1.165921,-0.293506,-1.281657,0.155131,-0.479639,-0.863644,-0.099467,0.117334,0.304302,-4.404655,8.431091,-4.985924,,,,,,,
1512179106.388476,0.190929,0.515368,-2.231758,0.902532,-0.000318,-1.198101,0.165122,-0.492855,-0.854300,-0.100623,0.098064,0.307715,-4.556725,7.980865,-5.059853,,,,,,,
1512179106.408495,0.208503,0.525814,-2.260565,0.679833,0.240492,-1.062966,0.179034,-0.501917,-0.846183,-0.054629,0.092494,0.224784,-4.711189,7.005630,-5.209023,,,,,,,
1512179106.428484,0.225720,0.532915,-2.284270,0.511844,0.238708,-0.831941,0.192773,-0.508046,-0.839480,-0.014428,0.100591,0.134662,-3.966652,5.806763,-5.365959,,,,,,,
1512179106.448473,0.237099,0.538710,-2.302299,0.440778,0.007422,-0.606706,0.201617,-0.513029,-0.834357,0.010221,0.131865,0.074820,-4.343910,5.281189,-5.138023,,,,,,,
1512179106.468462,0.240088,0.545195,-2.315988,0.470645,-0.331501,-0.430487,0.203315,-0.518585,-0.830501,0.014245,0.143509,0.079357,-4.566887,5.730850,-5.135902,,,,,,,
1512179106.488482,0.236033,0.553021,-2.326777,0.491970,-0.548543,-0.311532,0.198991,-0.525260,-0.827348,-0.002717,0.121223,0.129640,-4.418755,5.281082,-4.837379,,,,,,,
1512179106.508471,0.228433,0.561304,-2.334456,0.467110,-0.591602,-0.163861,0.191705,-0.532290,-0.824570,-0.005274,0.097628,0.165879,-4.871758,4.605392,-4.758873,,,,,,,
1512179106.528460,0.219229,0.569719,-2.338193,0.427069,-0.532172,0.005272,0.183127,-0.539395,-0.821898,0.006310,0.076398,0.174910,-5.321724,4.604721,-4.680046,,,,,,,
1512179106.548449,0.209100,0.577521,-2.337257,0.331333,-0.452574,0.189653,0.173914,-0.545949,-0.819569,0.016119,0.069798,0.166478,-5.849358,4.003937,-4.525856,,,,,,,
1512179106.568468,0.197721,0.583146,-2.331632,0.163632,-0.405057,0.341970,0.163972,-0.550653,-0.818471,0.038116,0.067773,0.126836,-6.300026,3.853256,-4.522102,,,,,,,
1512179106.588457,0.184581,0.586518,-2.321966,0.056979,-0.376646,0.474844,0.152861,-0.553464,-0.818725,0.039018,0.066282,0.093551,-6.823311,4.227463,-4.442467,,,,,,,
1512179106.608446,0.170288,0.588816,-2.309389,-0.004271,-0.363038,0.569951,0.140928,-0.555377,-0.819571,0.046541,0.070910,0.080206,-6.824242,4.002472,-4.292580,,,,,,,
1512179106.628435,0.154681,0.589488,-2.294238,-0.113399,-0.346290,0.659043,0.128062,-0.555936,-0.821301,0.028950,0.042646,0.081662,-7.274727,3.926788,-4.588783,,,,,,,
1512179106.648455,0.140559,0.587074,-2.277207,-0.294950,-0.146874,0.688021,0.116639,-0.553928,-0.824354,0.024962,0.015079,0.058363,-8.022896,4.300674,-4.282234,,,,,,,
1512179106.668444,0.130969,0.580592,-2.259661,-0.493814,0.087862,0.669966,0.109195,-0.548519,-0.828977,0.073117,0.019924,-0.017214,-8.171059,4.750443,-4.655754,,,,,,,
1512179106.688433,0.125483,0.570190,-2.242744,-0.669794,0.235111,0.617826,0.105354,-0.539792,-0.835180,0.133232,0.012708,-0.103648,-8.242989,5.425339,-4.579811,,,,,,,
1512179106.708422,0.122136,0.556961,-2.226730,-0.768404,0.231821,0.585471,0.103420,-0.528609,-0.842542,0.194386,-0.006425,-0.205935,-8.238625,6.400345,-4.654350,,,,,,,
1512179106.728442,0.115899,0.543592,-2.211473,-0.703036,-0.025449,0.552475,0.098971,-0.517214,-0.850114,0.195325,0.000093,-0.240279,-7.937996,6.550797,-4.731834,,,,,,,
1512179106.748431,0.105518,0.531942,-2.197628,-0.629953,-0.211119,0.507045,0.090769,-0.507208,-0.857030,0.119192,-0.016779,-0.154093,-8.234276,7.375351,-4.728905,,,,,,,
1512179106.768420,0.096338,0.518913,-2.185696,-0.767854,-0.086157,0.406336,0.083527,-0.495937,-0.864332,0.067428,-0.020207,-0.083178,-8.454109,8.575027,-5.176430,,,,,,,
1512179106.788409,0.093679,0.501333,-2.175973,-1.000418,0.218137,0.302754,0.082031,-0.480595,-0.873097,0.106323,-0.011913,-0.144893,-8.223183,9.850372,-4.802757,,,,,,,
1512179106.808428,0.095728,0.480933,-2.167898,-1.030199,0.294061,0.237556,0.084739,-0.462606,-0.882505,0.184655,0.025930,-0.271731,-7.543083,11.051392,-5.407936,,,,,,,
1512179106.828417,0.096689,0.465242,-2.161747,-0.620941,0.107885,0.170346,0.086278,-0.448639,-0.889539,0.236415,0.041413,-0.308383,-8.215904,11.500381,-5.101997,,,,,,,
1512179106.848406,0.095449,0.460757,-2.158543,-0.017452,-0.037383,0.092233,0.085365,-0.444627,-0.891639,0.213188,0.026978,-0.162743,-7.904289,11.300373,-4.952110,,,,,,,
1512179106.868426,0.094385,0.467465,-2.155721,0.482966,0.120189,0.202372,0.084134,-0.450625,-0.888740,0.211108,0.002185,0.034950,-7.978920,11.375263,-4.876442,,,,,,,
1512179106.888415,0.100886,0.480204,-2.150786,0.655814,0.620086,0.347336,0.089324,-0.461960,-0.882391,0.218110,-0.030701,0.141012,-7.679924,11.150700,-4.879097,,,,,,,
1512179106.908404,0.112534,0.494021,-2.140545,0.612874,0.897181,0.637647,0.098870,-0.474170,-0.874864,0.245842,-0.002927,0.165041,-7.082817,10.551609,-5.259468,,,,,,,
1512179106.928393,0.121877,0.506462,-2.123396,0.464279,0.832306,0.917772,0.106314,-0.485087,-0.867979,0.230509,0.047221,0.177809,-6.032143,10.703175,-5.268333,,,,,,,
1512179106.948412,0.123835,0.514724,-2.100887,0.169374,0.515368,1.073375,0.107514,-0.492295,-0.863763,0.195556,0.093094,0.211114,-5.509010,10.328968,-5.647972,,,,,,,
1512179106.968401,0.116818,0.516258,-2.075320,-0.188981,0.138698,1.128701,0.101363,-0.493629,-0.863745,0.152345,0.120155,0.249564,-5.956535,10.853291,-5.418907,,,,,,,
1512179106.988390,0.102186,0.512099,-2.048179,-0.397769,-0.161870,1.168336,0.088922,-0.490008,-0.867171,0.110327,0.130785,0.290633,-5.730186,11.153629,-5.420677,,,,,,,
1512179107.008379,0.084088,0.506473,-2.020114,-0.367561,-0.225988,1.209065,0.073445,-0.485096,-0.871371,0.062114,0.132084,0.330844,-5.728203,11.603642,-5.495461,,,,,,,
1512179107.028399,0.067500,0.502565,-1.991756,-0.244994,-0.073069,1.217767,0.059109,-0.481675,-0.874354,0.002094,0.127091,0.350429,-5.725655,12.203632,-5.795189,,,,,,,
1512179107.048388,0.056187,0.499843,-1.964879,-0.197499,0.171798,1.129760,0.049287,-0.479288,-0.876273,-0.048295,0.117410,0.321189,-5.874214,12.503422,-5.643776,,,,,,,
1512179107.068377,0.050846,0.497105,-1.940879,-0.187607,0.381454,0.993113,0.044673,-0.476883,-0.877831,-0.067378,0.092743,0.249260,-5.648888,12.578754,-5.645653,,,,,,,
1512179107.088366,0.050714,0.494972,-1.919969,-0.123566,0.549503,0.866696,0.044608,-0.475007,-0.878850,-0.072501,0.033266,0.162435,-5.271965,13.029316,-5.873634,,,,,,,
1512179107.108385,0.053364,0.493932,-1.901386,-0.093530,0.558246,0.791472,0.046963,-0.474091,-0.879222,-0.071133,-0.029418,0.081676,-5.045052,13.479664,-6.100334,,,,,,,
1512179107.128374,0.054155,0.491291,-1.883716,-0.248808,0.401038,0.760955,0.047727,-0.471764,-0.880432,-0.107373,-0.071784,0.077148,-4.070061,13.481129,-6.108620,,,,,,,
1512179107.148363,0.053228,0.483684,-1.866757,-0.528113,0.341996,0.693808,0.047100,-0.465043,-0.884034,-0.166851,-0.103835,0.043473,-3.541649,14.231922,-6.037743,,,,,,,
1512179107.168352,0.054077,0.470939,-1.852497,-0.731269,0.390057,0.538583,0.048167,-0.453723,-0.889840,-0.180064,-0.118725,-0.079765,-3.465324,14.532032,-6.113228,,,,,,,
1512179107.188372,0.056731,0.456821,-1.841728,-0.702029,0.340210,0.378924,0.050887,-0.441097,-0.896015,-0.167235,-0.098453,-0.229656,-2.935265,15.657825,-6.117180,,,,,,,
1512179107.208353,0.059062,0.445275,-1.835239,-0.515468,0.206307,0.179681,0.053272,-0.430706,-0.900919,-0.165135,-0.082707,-0.326452,-3.010597,15.582706,-6.116570,,,,,,,
1512179107.228342,0.060771,0.437992,-1.834366,-0.276666,0.042690,-0.088211,0.055000,-0.424122,-0.903933,-0.178184,-0.078442,-0.365003,-3.004494,16.932728,-6.040947,,,,,,,
1512179107.248362,0.062728,0.434491,-1.840375,-0.099961,-0.061105,-0.400498,0.056862,-0.420949,-0.905300,-0.190239,-0.102855,-0.365299,-3.081551,16.482609,-6.115517,,,,,,,
1512179107.268351,0.066786,0.432747,-1.853329,-0.029987,-0.055066,-0.700093,0.060585,-0.419367,-0.905793,-0.197807,-0.143774,-0.351287,-3.005165,16.782719,-6.041023,,,,,,,
1512179107.288340,0.075291,0.430907,-1.872072,-0.040822,0.108822,-0.940611,0.068344,-0.417695,-0.906013,-0.169235,-0.161269,-0.350991,-3.305534,16.707264,-6.113503,,,,,,,
1512179107.308329,0.090338,0.427682,-1.894506,-0.095063,0.392054,-1.064075,0.082090,-0.414762,-0.906219,-0.086439,-0.137881,-0.400376,-3.156441,16.482487,-5.889885,,,,,,,
1512179107.328348,0.109715,0.424284,-1.917891,-0.022301,0.492600,-1.075463,0.099787,-0.411668,-0.905854,0.006155,-0.043074,-0.476058,-2.854820,16.857944,-6.042259,,,,,,,
1512179107.348337,0.124895,0.424081,-1.941297,0.213585,0.090195,-1.047860,0.113536,-0.411483,-0.904318,0.047002,0.058471,-0.449793,-2.705879,16.633167,-6.118645,,,,,,,
1512179107.368326,0.128516,0.429418,-1.964956,0.507120,-0.531073,-1.036175,0.116527,-0.416342,-0.901710,-0.011745,0.126928,-0.253960,-3.006218,16.557713,-6.116127,,,,,,,
1512179107.388315,0.124453,0.438950,-1.990021,0.658241,-0.790292,-1.097785,0.112364,-0.424989,-0.898197,-0.086348,0.151231,-0.018535,-4.061165,15.506138,-6.557686,,,,,,,
1512179107.408335,0.121554,0.449690,-2.017431,0.693124,-0.661845,-1.202371,0.109200,-0.434686,-0.893937,-0.125954,0.162149,0.143357,-4.889351,14.754887,-6.176018,,,,,,,
1512179107.428324,0.125337,0.460812,-2.047205,0.736244,-0.337964,-1.280575,0.111970,-0.444675,-0.888666,-0.118302,0.141712,0.206171,-5.716682,14.228657,-6.094246,,,,,,,
1512179107.448313,0.135937,0.473395,-2.077639,0.844614,-0.065477,-1.245009,0.120615,-0.455911,-0.881815,-0.078821,0.136651,0.192499,-5.572868,12.878864,-6.321144,,,,,,,
1512179107.468302,0.149446,0.488174,-2.106920,0.951679,0.014593,-1.139772,0.131498,-0.469014,-0.873346,-0.052717,0.143712,0.172190,-5.649178,12.578754,-6.245644,,,,,,,
1512179107.488321,0.162285,0.504106,-2.134626,0.978822,-0.047507,-1.042580,0.141475,-0.483025,-0.864102,-0.039730,0.150872,0.175472,-6.028694,11.603184,-6.467903,,,,,,,
1512179107.508310,0.172501,0.519482,-2.160323,0.914101,-0.158905,-0.937299,0.149002,-0.496431,-0.855193,-0.028549,0.145692,0.187789,-6.035439,10.103168,-6.468590,,,,,,,
1512179107.528299,0.179518,0.532926,-2.183434,0.785241,-0.270429,-0.822291,0.153794,-0.508056,-0.847482,-0.020967,0.132140,0.200937,-6.190117,9.052937,-6.392815,,,,,,,
1512179107.548288,0.183029,0.543655,-2.203056,0.617584,-0.354281,-0.678959,0.155767,-0.517267,-0.841529,-0.017828,0.122278,0.211844,-6.720345,7.927143,-6.688866,,,,,,,
1512179107.568308,0.184286,0.551830,-2.219190,0.477027,-0.344054,-0.559431,0.156045,-0.524247,-0.837147,-0.008324,0.108521,0.205876,-7.020409,7.851704,-6.161354,,,,,,,
1512179107.588297,0.184825,0.558246,-2.232401,0.394333,-0.305929,-0.456022,0.155875,-0.529699,-0.833740,0.005105,0.090414,0.166106,-7.321358,7.626240,-6.008919,,,,,,,
1512179107.608286,0.185040,0.563927,-2.242830,0.335686,-0.253939,-0.323434,0.155498,-0.534509,-0.830735,0.046406,0.057062,0.118882,-7.698372,7.175678,-6.005928,,,,,,,
1512179107.628275,0.182801,0.568835,-2.248115,0.246269,-0.256708,-0.073150,0.153159,-0.538651,-0.828491,0.075388,0.030319,0.081955,-7.923866,7.100346,-6.304054,,,,,,,
1512179107.648294,0.176604,0.572119,-2.246722,0.077979,-0.291638,0.174814,0.147710,-0.541415,-0.827678,0.081431,0.022494,0.026821,-8.301003,6.574772,-5.851112,,,,,,,
1512179107.668283,0.164802,0.571715,-2.239680,-0.157332,-0.484601,0.342371,0.137968,-0.541075,-0.829580,0.076311,0.040618,-0.036036,-8.827766,6.198978,-5.996819,,,,,,,
1512179107.688272,0.146729,0.567770,-2.229658,-0.309856,-0.706065,0.401223,0.123264,-0.537753,-0.834043,0.070324,0.037326,-0.048465,-9.051048,6.573658,-5.919731,,,,,,,
1512179107.708292,0.126092,0.562104,-2.218745,-0.349787,-0.726481,0.429355,0.106408,-0.532968,-0.839418,0.061316,0.031503,-0.026198,-9.647102,7.397755,-5.464256,,,,,,,
1512179107.728281,0.108579,0.556640,-2.207720,-0.309413,-0.495727,0.448866,0.092006,-0.528337,-0.844035,0.062336,0.025148,-0.022771,-10.398537,7.096622,-5.608025,,,,,,,
1512179107.748270,0.098560,0.551680,-2.197211,-0.269736,-0.152778,0.451701,0.083802,-0.524119,-0.847512,0.064589,0.013514,-0.075431,-11.222221,7.395390,-5.675865,,,,,,,
1512179107.768259,0.094183,0.547216,-2.187863,-0.207717,0.002338,0.382778,0.080311,-0.520312,-0.850192,0.093227,0.026949,-0.123716,-11.368584,8.220173,-5.824211,,,,,,,
1512179107.788279,0.091189,0.544603,-2.180409,-0.122054,0.015458,0.295580,0.077889,-0.518079,-0.851779,0.074653,0.000974,-0.103253,-11.367012,8.520176,-5.374077,,,,,,,
1512179107.808268,0.089507,0.541641,-2.173781,-0.237947,0.121069,0.283615,0.076593,-0.515543,-0.853434,0.027838,-0.033758,-0.031042,-11.290215,8.895298,-5.149529,,,,,,,
1512179107.828257,0.092339,0.530990,-2.166071,-0.795296,0.475913,0.288499,0.079511,-0.506387,-0.858633,0.017382,-0.030020,-0.012064,-11.515694,8.819950,-5.447655,,,,,,,
1512179107.848246,0.101667,0.506234,-2.157521,-1.509647,0.718464,0.241682,0.088762,-0.484887,-0.870061,0.096891,0.041528,-0.180781,-11.137856,9.495518,-5.825539,,,,,,,
1512179107.868265,0.108472,0.472882,-2.148542,-1.720295,0.387082,0.199097,0.096379,-0.455454,-0.885027,0.157253,0.138376,-0.374510,-10.380302,11.146656,-5.606148,,,,,,,
1512179107.888254,0.106478,0.444586,-2.142425,-1.187468,-0.167284,0.054573,0.095945,-0.430084,-0.897676,0.163286,0.211822,-0.350432,-10.145866,13.247013,-5.607094,,,,,,,
1512179107.908243,0.100315,0.430989,-2.143665,-0.345239,-0.383373,-0.217549,0.090988,-0.417769,-0.903986,0.108459,0.153991,-0.131766,-10.819511,13.545994,-5.601219,,,,,,,
1512179107.928232,0.099560,0.432250,-2.149663,0.290368,0.055676,-0.275039,0.090254,-0.418915,-0.903529,0.111620,0.044052,0.062983,-10.895073,13.395878,-5.375648,,,,,,,
1512179107.948252,0.111194,0.440548,-2.155557,0.472276,0.674205,-0.157252,0.100370,-0.426435,-0.898932,0.111559,-0.013933,0.104483,-10.146690,13.097004,-5.907158,,,,,,,
1512179107.968241,0.128800,0.448178,-2.155963,0.302326,0.914774,0.140688,0.115759,-0.433324,-0.893773,0.174158,-0.040629,0.085652,-9.472847,12.873020,-6.213005,,,,,,,
1512179107.988230,0.140908,0.451925,-2.149530,0.052489,0.584858,0.405630,0.126343,-0.436698,-0.890692,0.172913,-0.000085,0.060126,-9.249947,12.423359,-6.365120,,,,,,,
1512179108.008219,0.139477,0.451614,-2.137384,-0.177414,-0.050409,0.611169,0.125087,-0.436419,-0.891006,0.131810,0.042101,0.134842,-9.095482,13.398579,-6.215950,,,,,,,
1512179108.028238,0.124527,0.447743,-2.121220,-0.340818,-0.567905,0.733865,0.111962,-0.432932,-0.894446,0.054954,0.072856,0.265509,-9.320061,13.473240,-6.064003,,,,,,,
1512179108.048227,0.102904,0.442246,-2.103381,-0.364122,-0.720788,0.782034,0.092840,-0.427971,-0.899011,-0.023473,0.089241,0.382059,-10.143227,13.847019,-5.756813,,,,,,,
1512179108.068216,0.083408,0.436862,-2.085811,-0.322829,-0.487784,0.746132,0.075487,-0.423098,-0.902934,-0.095506,0.089053,0.429637,-10.515800,14.371449,-5.603386,,,,,,,
1512179108.088236,0.072626,0.432305,-2.070382,-0.258704,-0.040952,0.628148,0.065887,-0.418965,-0.905609,-0.131957,0.074070,0.368729,-11.178225,14.619659,-6.330910,,,,,,,
1512179108.108225,0.071194,0.428695,-2.059024,-0.184724,0.250114,0.422349,0.064697,-0.415684,-0.907205,-0.123535,0.043675,0.202585,-10.950640,15.220001,-6.557549,,,,,,,
1512179108.128214,0.073766,0.427670,-2.052219,0.011184,0.243296,0.243938,0.067061,-0.414751,-0.907460,-0.076949,-0.011472,0.050328,-10.650667,15.220459,-6.635094,,,,,,,
1512179108.148203,0.074626,0.431250,-2.048254,0.251955,0.047239,0.178513,0.067731,-0.418007,-0.905915,-0.043988,-0.084328,-0.043578,-10.501574,14.995682,-6.411476,,,,,,,
1512179108.168222,0.070914,0.438361,-2.044358,0.380972,-0.197284,0.229636,0.064155,-0.424456,-0.903173,-0.042320,-0.143888,-0.093455,-10.954012,14.470001,-6.557899,,,,,,,
1512179108.188211,0.061474,0.446856,-2.038856,0.410597,-0.447323,0.296360,0.055403,-0.432132,-0.900107,-0.072218,-0.171078,-0.117395,-11.329317,14.394440,-6.479729,,,,,,,
1512179108.208163,0.047403,0.454441,-2.032896,0.319140,-0.640764,0.273039,0.042576,-0.438960,-0.897497,-0.120258,-0.185079,-0.107370,-11.480593,14.094208,-6.328606,,,,,,,
1512179108.228152,0.031267,0.458661,-2.028381,0.127935,-0.731636,0.162280,0.028031,-0.442748,-0.896208,-0.163788,-0.170122,-0.105913,-12.607134,13.717514,-6.019218,,,,,,,
1512179108.248172,0.016562,0.459385,-2.027424,-0.004150,-0.679106,-0.035606,0.014844,-0.443397,-0.896202,-0.178220,-0.146523,-0.117271,-12.830065,14.167191,-5.942101,,,,,,,
1512179108.268161,0.007324,0.459118,-2.031391,0.000833,-0.454327,-0.261821,0.006565,-0.443157,-0.896420,-0.158711,-0.123523,-0.134876,-13.581636,13.791061,-5.710884,,,,,,,
1512179108.288150,0.005609,0.460346,-2.040410,0.111468,-0.200537,-0.493868,0.005025,-0.444259,-0.895885,-0.115499,-0.094972,-0.168080,-13.880861,13.940613,-5.483284,,,,,,,
1512179108.308139,0.009306,0.464374,-2.055344,0.258914,-0.139950,-0.769764,0.008321,-0.447863,-0.894064,-0.083577,-0.106657,-0.192500,-14.112078,12.590256,-5.781990,,,,,,,
1512179108.328159,0.015818,0.469781,-2.075970,0.261561,-0.124543,-0.993541,0.014104,-0.452691,-0.891556,-0.088460,-0.185828,-0.171005,-14.108675,13.340271,-5.706642,,,,,,,
1512179108.348148,0.026788,0.471187,-2.100573,-0.039646,0.091062,-1.142141,0.023866,-0.453944,-0.890710,-0.081681,-0.242665,-0.166800,-14.488283,12.289703,-5.478935,,,,,,,
1512179108.368137,0.045109,0.464671,-2.126780,-0.405219,0.462343,-1.193049,0.040312,-0.448129,-0.893059,0.006120,-0.182013,-0.257438,-14.113924,12.140259,-5.407204,,,,,,,
1512179108.388126,0.068125,0.454942,-2.152652,-0.363874,0.590550,-1.172815,0.061148,-0.439411,-0.896203,0.095377,-0.032406,-0.382148,-13.963991,12.140488,-5.558464,,,,,,,
1512179108.408145,0.086562,0.451600,-2.177493,0.127983,0.202301,-1.088156,0.077787,-0.436406,-0.896381,0.097674,0.103138,-0.351269,-13.439669,11.991272,-5.562996,,,,,,,
1512179108.428134,0.095983,0.458836,-2.202641,0.639070,-0.211285,-1.135493,0.085923,-0.442904,-0.892442,0.022445,0.135943,-0.179167,-13.669847,10.865921,-5.786613,,,,,,,
1512179108.448123,0.104064,0.472975,-2.232799,0.928046,-0.261718,-1.336164,0.092473,-0.455537,-0.885401,-0.013386,0.079224,0.008326,-14.121798,10.415253,-5.632988,,,,,,,
1512179108.468112,0.115538,0.489951,-2.264421,1.019423,-0.084440,-1.244675,0.101719,-0.470583,-0.876473,-0.015095,0.049013,0.129021,-14.350740,9.514908,-5.406502,,,,,,,
1512179108.488132,0.129884,0.507188,-2.292063,0.977327,0.143625,-1.007826,0.113215,-0.485721,-0.866751,-0.031336,0.048633,0.175467,-14.433199,7.864777,-5.481621,,,,,,,
1512179108.508121,0.146268,0.522890,-2.314915,0.877123,0.308645,-0.806152,0.126272,-0.499386,-0.857128,-0.038122,0.093289,0.168667,-14.663225,6.739441,-5.405235,,,,,,,
1512179108.528110,0.162123,0.537042,-2.334057,0.798907,0.288997,-0.653841,0.138691,-0.511597,-0.847959,-0.024769,0.140243,0.130979,-14.141329,6.065216,-5.560005,,,,,,,
1512179108.548129,0.174544,0.550154,-2.350323,0.743399,0.130567,-0.528337,0.148035,-0.522818,-0.839492,-0.022974,0.159308,0.111007,-14.070345,5.165329,-5.486061,,,,,,,
1512179108.568118,0.181877,0.562664,-2.363831,0.705034,-0.059859,-0.408020,0.152991,-0.533442,-0.831886,-0.029685,0.169153,0.121635,-13.848574,4.415665,-5.188316,,,,,,,
1512179108.588107,0.184853,0.574755,-2.374340,0.654724,-0.155281,-0.271562,0.154270,-0.543629,-0.825026,-0.045047,0.168233,0.159834,-13.925447,3.965546,-4.887886,,,,,,,
1512179108.608096,0.186840,0.586120,-2.381483,0.590888,-0.042398,-0.144166,0.154751,-0.553133,-0.818594,-0.040722,0.159135,0.174398,-14.379229,3.139862,-5.034447,,,,,,,
1512179108.628116,0.190429,0.597205,-2.385593,0.570696,0.127150,-0.010612,0.156518,-0.562333,-0.811963,-0.017846,0.161317,0.150616,-14.157167,2.465195,-4.811668,,,,,,,
1512179108.648105,0.194161,0.607863,-2.385758,0.474149,0.196102,0.158799,0.158382,-0.571114,-0.805446,0.016698,0.167550,0.106914,-14.383471,2.164856,-4.734886,,,,,,,
1512179108.668094,0.193762,0.615343,-2.381086,0.233654,0.037320,0.317866,0.157233,-0.577239,-0.801295,0.042993,0.191847,0.067637,-14.384371,1.939850,-4.510002,,,,,,,
1512179108.688083,0.185660,0.618455,-2.372435,0.014593,-0.276156,0.398887,0.150404,-0.579777,-0.800772,0.054430,0.214635,0.067695,-14.609682,1.864517,-4.433128,,,,,,,
1512179108.708102,0.171014,0.619019,-2.361943,-0.073740,-0.484677,0.444856,0.138604,-0.580237,-0.802567,0.036414,0.188574,0.122819,-14.683626,2.089401,-4.357384,,,,,,,
1512179108.728091,0.154429,0.618169,-2.349880,-0.155538,-0.465670,0.492775,0.125351,-0.579544,-0.805243,0.014374,0.155075,0.155325,-15.360201,1.713394,-4.126808,,,,,,,
1512179108.748080,0.138968,0.614643,-2.337058,-0.321592,-0.347336,0.483319,0.113169,-0.576667,-0.809103,0.004446,0.129935,0.171469,-15.959154,1.937485,-4.046608,,,,,,,
1512179108.768069,0.127987,0.606342,-2.324665,-0.586908,-0.084844,0.423889,0.104885,-0.569866,-0.815016,0.018085,0.082714,0.148421,-16.330935,2.611938,-3.668129,,,,,,,
1512179108.788089,0.122951,0.591670,-2.312554,-0.908326,0.175342,0.404145,0.101793,-0.557748,-0.823745,0.059416,0.035531,0.050048,-16.254992,2.837051,-3.818642,,,,,,,
1512179108.808078,0.120913,0.571588,-2.299725,-1.133262,0.289285,0.409812,0.101445,-0.540968,-0.834902,0.110286,0.005919,-0.052961,-16.099932,3.962280,-3.819405,,,,,,,
1512179108.828067,0.120814,0.549384,-2.287701,-1.155589,0.313950,0.342411,0.102785,-0.522162,-0.846630,0.162764,-0.018121,-0.164860,-16.023012,4.412399,-4.044838,,,,,,,
1512179108.848056,0.121024,0.528146,-2.277373,-1.082517,0.261796,0.304911,0.104278,-0.503933,-0.857425,0.169831,-0.089176,-0.200284,-16.091677,5.837296,-4.193535,,,,,,,
1512179108.868076,0.122334,0.507079,-2.266508,-1.145454,0.396152,0.379093,0.106674,-0.485626,-0.867634,0.143097,-0.140900,-0.207791,-15.637972,6.662979,-4.196983,,,,,,,
1512179108.888065,0.126654,0.482458,-2.252920,-1.388765,0.614578,0.469073,0.111897,-0.463958,-0.878761,0.156642,-0.098832,-0.293938,-15.409060,7.563324,-4.498482,,,,,,,
1512179108.908054,0.132585,0.454981,-2.238509,-1.430975,0.591067,0.441728,0.118749,-0.439445,-0.890385,0.194194,-0.011193,-0.416393,-14.878405,8.839111,-4.652351,,,,,,,
1512179108.928073,0.135985,0.431551,-2.226341,-1.065063,0.313012,0.347984,0.123138,-0.418280,-0.899932,0.216828,0.061713,-0.440369,-14.349123,9.814911,-4.881355,,,,,,,
1512179108.948062,0.136154,0.418086,-2.219185,-0.484530,0.062156,0.170028,0.124043,-0.406012,-0.905410,0.191402,0.074484,-0.315659,-14.495745,10.564682,-4.879738,,,,,,,
1512179108.968051,0.135239,0.416236,-2.215559,0.076572,0.067334,0.149395,0.123316,-0.404321,-0.906266,0.181326,0.053018,-0.134277,-14.268679,11.015030,-4.806450,,,,,,,
1512179108.988040,0.138229,0.421669,-2.213192,0.322898,0.278129,0.154760,0.125720,-0.409284,-0.903704,0.180203,0.006849,0.002901,-14.492556,11.239685,-4.579430,,,,,,,
1512179109.008060,0.144398,0.428991,-2.208580,0.316778,0.459346,0.340797,0.130858,-0.415953,-0.899921,0.171968,-0.016938,0.075260,-14.270327,10.640030,-4.731621,,,,,,,
1512179109.028049,0.149078,0.434967,-2.198666,0.165722,0.392418,0.576105,0.134696,-0.421381,-0.896825,0.159127,0.012995,0.117360,-13.522997,10.041153,-4.663277,,,,,,,
1512179109.048038,0.146937,0.438364,-2.183649,0.018468,0.084184,0.763725,0.132565,-0.424459,-0.895690,0.121463,0.071966,0.197021,-13.897585,10.115585,-4.510048,,,,,,,
1512179109.068027,0.137093,0.440443,-2.165363,-0.015441,-0.199144,0.866721,0.123621,-0.426340,-0.896075,0.066854,0.122767,0.317279,-13.597277,10.191040,-4.587563,,,,,,,
1512179109.088046,0.123338,0.443762,-2.146121,0.110032,-0.288709,0.882087,0.111110,-0.429340,-0.896282,0.008092,0.152928,0.449138,-14.044847,10.715363,-4.433495,,,,,,,
1512179109.108035,0.111835,0.450902,-2.128335,0.363047,-0.099102,0.804324,0.100448,-0.435777,-0.894432,-0.032134,0.148348,0.539024,-14.419695,10.714798,-4.130302,,,,,,,
1512179109.128024,0.107560,0.462632,-2.112936,0.574706,0.268843,0.722319,0.096068,-0.446305,-0.889709,-0.050703,0.123414,0.554092,-13.971834,10.265472,-4.359337,,,,,,,
1512179109.148013,0.110968,0.476206,-2.099211,0.607905,0.591605,0.664224,0.098420,-0.458411,-0.883274,-0.032166,0.092734,0.490696,-13.523256,9.966141,-4.513298,,,,,,,
1512179109.168033,0.118806,0.488613,-2.085855,0.490823,0.746324,0.660935,0.104657,-0.469402,-0.876760,-0.009946,0.057186,0.379827,-13.224871,9.591599,-4.366020,,,,,,,
1512179109.188022,0.127526,0.496477,-2.071588,0.188764,0.766114,0.684346,0.111825,-0.476331,-0.872126,0.015189,-0.007907,0.211451,-12.327944,8.917938,-4.448997,,,,,,,
1512179109.208008,0.132179,0.497372,-2.054275,-0.203844,0.532379,0.820698,0.115826,-0.477118,-0.871173,0.025302,-0.090799,0.025729,-11.873217,9.968628,-4.452324,,,,,,,
1512179109.227997,0.126421,0.490754,-2.032460,-0.605022,0.041210,0.946432,0.111204,-0.471291,-0.874939,0.005114,-0.106758,-0.115341,-11.870775,10.493622,-4.302086,,,,,,,
1512179109.248016,0.110289,0.476498,-2.008688,-0.967924,-0.403727,0.951352,0.097805,-0.458670,-0.883207,-0.057629,-0.137796,-0.179659,-12.169985,10.643173,-4.074471,,,,,,,
1512179109.268005,0.089092,0.453767,-1.985802,-1.409308,-0.618962,0.879182,0.079970,-0.438355,-0.895237,-0.107588,-0.192734,-0.289318,-12.612413,12.292511,-3.769875,,,,,,,
1512179109.287994,0.064494,0.421608,-1.964194,-1.811702,-0.870512,0.831966,0.058806,-0.409228,-0.910535,-0.125639,-0.156369,-0.405337,-13.126701,12.508118,-5.167816,,,,,,,
1512179109.308014,0.037905,0.385139,-1.946534,-1.826312,-1.024987,0.611609,0.035120,-0.375688,-0.926080,-0.174585,-0.080901,-0.474570,-14.091316,14.756668,-4.633484,,,,,,,
1512179109.328003,0.014833,0.354589,-1.938662,-1.317124,-0.961288,0.120290,0.013910,-0.347205,-0.937686,-0.221521,-0.033273,-0.472943,-14.462563,15.506104,-3.879959,,,,,,,
1512179109.347992,-0.001298,0.337968,-1.943891,-0.514459,-0.833953,-0.450772,-0.001225,-0.331570,-0.943430,-0.276882,-0.101672,-0.382422,-14.834145,16.180557,-3.126465,,,,,,,
1512179109.367981,-0.006545,0.336565,-1.959003,0.136632,-0.270277,-0.859404,-0.006178,-0.330247,-0.943874,-0.279650,-0.200408,-0.272633,-15.663460,15.204315,-2.969910,,,,,,,
1512179109.388001,0.006498,0.340960,-1.980602,0.180473,0.671308,-1.080433,0.006124,-0.334392,-0.942414,-0.225179,-0.285984,-0.284621,-15.439735,14.904648,-2.821960,,,,,,,
1512179109.407990,0.038499,0.340438,-2.004364,-0.093011,1.444378,-1.137140,0.036280,-0.333900,-0.941910,-0.068369,-0.206261,-0.478836,-14.617439,14.380875,-3.504196,,,,,,,
1512179109.427979,0.076266,0.338228,-2.027997,0.060809,1.399662,-1.093491,0.071875,-0.331816,-0.940602,0.096780,-0.053087,-0.622875,-13.418114,14.232681,-3.514465,,,,,,,
1512179109.447968,0.102187,0.345064,-2.050538,0.690634,0.574707,-0.991290,0.095997,-0.338257,-0.936145,0.131375,0.058289,-0.518842,-12.372688,13.259247,-3.898849,,,,,,,
1512179109.467987,0.111386,0.363965,-2.074185,1.233665,-0.218139,-0.990447,0.103874,-0.355982,-0.928702,0.020333,0.077799,-0.222498,-12.302788,12.134354,-3.975006,,,,,,,
1512179109.487976,0.112078,0.388184,-2.098395,1.339005,-0.463667,-0.990843,0.103522,-0.378508,-0.919790,-0.067267,0.090468,0.050207,-12.835365,10.408554,-3.596344,,,,,,,
1512179109.507965,0.113107,0.411433,-2.122939,1.240935,-0.370891,-0.986610,0.103447,-0.399923,-0.910692,-0.123695,0.120611,0.228975,-12.837715,9.883545,-3.596588,,,,,,,
1512179109.527954,0.119624,0.432462,-2.147161,1.138604,-0.034596,-0.970932,0.108352,-0.419108,-0.901448,-0.138473,0.151316,0.290227,-12.996193,8.008301,-3.671173,,,,,,,
1512179109.547974,0.133425,0.452014,-2.171177,1.093495,0.277179,-0.935321,0.119669,-0.436778,-0.891574,-0.120890,0.191738,0.269885,-12.849648,7.183533,-3.147827,,,,,,,
1512179109.567963,0.150234,0.471099,-2.194340,1.093455,0.316570,-0.865888,0.133366,-0.453866,-0.881033,-0.096089,0.235055,0.227361,-11.954063,6.209869,-3.230942,,,,,,,
1512179109.587952,0.164755,0.490281,-2.216891,1.115013,0.117835,-0.825759,0.144691,-0.470874,-0.870254,-0.088126,0.269412,0.213500,-11.359322,5.010757,-2.936584,,,,,,,
1512179109.607941,0.174744,0.509371,-2.239799,1.097897,-0.142811,-0.834374,0.151785,-0.487628,-0.859756,-0.103811,0.276248,0.254485,-10.990089,3.736313,-3.015366,,,,,,,
1512179109.627960,0.181489,0.526851,-2.262808,0.990943,-0.265848,-0.819295,0.156019,-0.502813,-0.850198,-0.130750,0.247320,0.313180,-11.217827,3.060974,-2.413757,,,,,,,
1512179109.647949,0.187921,0.541386,-2.284694,0.816348,-0.197858,-0.766155,0.160101,-0.515324,-0.841907,-0.143439,0.203389,0.327335,-10.922188,2.086411,-2.341766,,,,,,,
1512179109.667938,0.195327,0.551927,-2.303466,0.580879,-0.074555,-0.638009,0.165268,-0.524329,-0.835323,-0.131577,0.183188,0.293209,-10.849129,1.636520,-2.192612,,,,,,,
1512179109.687958,0.202524,0.558622,-2.318197,0.385488,-0.004652,-0.487085,0.170566,-0.530018,-0.830655,-0.104923,0.157307,0.240765,-10.477135,0.962082,-2.121109,,,,,,,
1512179109.707947,0.208890,0.563094,-2.328621,0.270063,0.076058,-0.336030,0.175357,-0.533805,-0.827225,-0.077273,0.151741,0.189377,-10.331108,0.062302,-1.972794,,,,,,,
1512179109.727936,0.214925,0.566353,-2.335710,0.193261,0.113060,-0.202692,0.179974,-0.536558,-0.824448,-0.044003,0.111021,0.118210,-9.804756,0.363098,-1.977127,,,,,,,
1512179109.747925,0.216803,0.568131,-2.338262,0.041887,-0.056309,-0.016780,0.181317,-0.538058,-0.823175,-0.022930,0.083422,0.055139,-9.657829,-0.311691,-2.053711,,,,,,,
1512179109.767944,0.210779,0.566164,-2.336077,-0.220540,-0.359260,0.108422,0.176576,-0.536399,-0.825286,-0.027604,0.064032,0.020781,-9.657600,-0.236694,-2.278671,,,,,,,
1512179109.787933,0.198271,0.559015,-2.330933,-0.501737,-0.529619,0.149594,0.166991,-0.530352,-0.831168,-0.035994,0.033052,0.039496,-9.728966,0.513214,-1.752686,,,,,,,
1512179109.807922,0.185393,0.546301,-2.324422,-0.775664,-0.402924,0.153532,0.157503,-0.519530,-0.839810,-0.017718,-0.014085,0.032635,-9.953362,0.662872,-1.900711,,,,,,,
1512179109.827911,0.176818,0.529119,-2.316512,-0.971426,-0.120259,0.208180,0.151844,-0.504773,-0.849792,0.050014,-0.070254,-0.059968,-9.877724,0.812988,-1.976273,,,,,,,
1512179109.847931,0.171408,0.509167,-2.306036,-1.109426,0.028878,0.309041,0.148934,-0.487450,-0.860355,0.132728,-0.080803,-0.182583,-10.021355,2.237778,-2.049347,,,,,,,
1512179109.867920,0.166377,0.487675,-2.294309,-1.152454,0.013814,0.331819,0.146305,-0.468573,-0.871225,0.235730,-0.116647,-0.277792,-9.567680,3.063446,-2.127792,,,,,,,
1512179109.887909,0.159067,0.467025,-2.281586,-1.074616,-0.145463,0.452859,0.141434,-0.450232,-0.881639,0.283599,-0.161692,-0.304488,-9.713402,4.038239,-2.351059,,,,,,,
1512179109.907898,0.147234,0.448119,-2.263998,-1.069066,-0.191999,0.759799,0.132217,-0.433271,-0.891512,0.240662,-0.168337,-0.248182,-9.784843,4.863129,-2.650055,,,,,,,
1512179109.927918,0.136046,0.427534,-2.239752,-1.245829,0.059321,1.019301,0.123419,-0.414628,-0.901582,0.188257,-0.066207,-0.242064,-9.706581,5.613235,-2.875336,,,,,,,
1512179109.947907,0.129613,0.403998,-2.213616,-1.337099,0.268572,1.003778,0.118845,-0.393098,-0.911784,0.196020,0.102311,-0.305090,-9.402184,6.588699,-2.877441,,,,,,,
1512179109.967896,0.125638,0.382856,-2.191373,-1.019271,0.158377,0.795855,0.116236,-0.373571,-0.920290,0.221273,0.217855,-0.331846,-9.021782,7.789261,-2.880066,,,,,,,
1512179109.987885,0.121076,0.372024,-2.177157,-0.362455,-0.042905,0.455003,0.112518,-0.363502,-0.924773,0.234803,0.261482,-0.239442,-9.016380,8.989273,-2.879517,,,,,,,
1512179110.007904,0.116946,0.373902,-2.171778,0.300011,-0.097935,0.166980,0.108618,-0.365251,-0.924550,0.188272,0.188737,-0.048396,-9.014732,9.364273,-2.954346,,,,,,,
1512179110.027893,0.118250,0.385145,-2.171178,0.654669,0.213636,0.072991,0.109333,-0.375694,-0.920272,0.158719,0.088401,0.115493,-9.165672,9.139053,-2.803162,,,,,,,
1512179110.047882,0.127486,0.398121,-2.170336,0.580960,0.632071,0.167192,0.117197,-0.387687,-0.914310,0.127050,0.013496,0.202061,-8.867058,8.839508,-2.880859,,,,,,,
1512179110.067871,0.141334,0.406373,-2.165253,0.230400,0.849063,0.361155,0.129392,-0.395280,-0.909401,0.112643,0.002046,0.199776,-7.894829,8.240967,-3.039429,,,,,,,
1512179110.087891,0.152728,0.406504,-2.154948,-0.234052,0.671776,0.525445,0.139737,-0.395401,-0.907817,0.098102,0.042511,0.168468,-7.446602,7.866638,-3.193420,,,,,,,
1512179110.107880,0.154909,0.399234,-2.140796,-0.565292,0.194678,0.612797,0.142157,-0.388712,-0.910326,0.067132,0.090510,0.154040,-6.692909,8.692764,-3.274414,,,,,,,
1512179110.127869,0.146839,0.389250,-2.125506,-0.581786,-0.274301,0.620522,0.135367,-0.379495,-0.915237,0.022958,0.119637,0.222504,-6.539284,9.517990,-3.425308,,,,,,,
1512179110.147888,0.132337,0.382012,-2.110917,-0.359202,-0.517515,0.621833,0.122440,-0.372788,-0.919803,-0.044162,0.100846,0.343906,-7.137184,9.967102,-3.270004,,,,,,,
1512179110.167877,0.117081,0.379581,-2.096665,-0.125117,-0.446711,0.653192,0.108499,-0.370532,-0.922461,-0.092614,0.060702,0.442221,-7.287895,9.816864,-3.343796,,,,,,,
1512179110.187866,0.106023,0.379310,-2.081985,-0.098910,-0.187183,0.691782,0.098302,-0.370279,-0.923704,-0.125509,0.030115,0.458555,-6.983925,10.717331,-3.495926,,,,,,,
1512179110.207840,0.098847,0.377003,-2.066268,-0.260235,-0.006963,0.722055,0.091756,-0.368136,-0.925233,-0.129994,0.012545,0.385606,-6.832680,10.942551,-3.047104,,,,,,,
1512179110.227860,0.094118,0.371027,-2.050502,-0.418261,0.078346,0.677423,0.087585,-0.362573,-0.927830,-0.113540,-0.017310,0.256352,-6.829720,11.617554,-3.196793,,,,,,,
1512179110.247849,0.090865,0.363568,-2.036605,-0.416534,0.072151,0.572955,0.084809,-0.355611,-0.930778,-0.088456,-0.062418,0.110542,-6.904839,11.617447,-3.421158,,,,,,,
1512179110.267838,0.086980,0.358454,-2.024300,-0.217016,-0.002303,0.557456,0.081349,-0.350827,-0.932900,-0.047368,-0.122257,-0.002265,-6.527733,12.068008,-3.274139,,,,,,,
1512179110.287827,0.082133,0.358389,-2.010458,0.021256,0.022317,0.720907,0.076828,-0.350766,-0.933306,-0.039658,-0.186725,-0.095670,-6.304451,11.693344,-3.351212,,,,,,,
1512179110.307846,0.077653,0.360920,-1.992155,0.046519,0.141562,0.940230,0.072577,-0.353135,-0.932753,-0.086753,-0.195845,-0.194719,-5.777092,12.219131,-3.355438,,,,,,,
1512179110.327835,0.074954,0.360844,-1.971325,-0.182755,0.304620,0.952400,0.070062,-0.353064,-0.932972,-0.124825,-0.144220,-0.283245,-5.474770,12.744583,-3.432739,,,,,,,
1512179110.347824,0.076716,0.353846,-1.953165,-0.550932,0.442302,0.723671,0.071893,-0.346508,-0.935288,-0.115197,-0.075459,-0.427261,-5.024132,12.895264,-3.511505,,,,,,,
1512179110.367813,0.079874,0.341460,-1.940867,-0.670488,0.293204,0.402668,0.075183,-0.334863,-0.939262,-0.054858,0.011926,-0.571434,-4.646049,13.570831,-3.439377,,,,,,,
1512179110.387833,0.080559,0.331771,-1.937942,-0.330755,-0.079127,-0.111809,0.076083,-0.325718,-0.942401,-0.021228,0.065602,-0.596647,-4.417900,14.246170,-3.215973,,,,,,,
1512179110.407822,0.076788,0.332269,-1.948863,0.321064,-0.513783,-0.743516,0.072516,-0.326188,-0.942519,-0.064261,-0.004836,-0.464875,-4.720146,13.795715,-3.663620,,,,,,,
1512179110.427811,0.072744,0.344858,-1.970853,0.885402,-0.533596,-1.091472,0.068400,-0.338063,-0.938634,-0.106486,-0.138697,-0.285563,-5.172813,13.195038,-3.585068,,,,,,,
1512179110.447800,0.076955,0.361701,-1.996746,0.882605,-0.018598,-1.154747,0.071905,-0.353866,-0.932528,-0.134863,-0.221085,-0.175794,-5.173866,12.970047,-3.660187,,,,,,,
1512179110.467819,0.092178,0.372759,-2.021096,0.486512,0.474056,-1.030847,0.085726,-0.364187,-0.927372,-0.065066,-0.166911,-0.216579,-5.253365,11.994919,-3.884995,,,,,,,
1512179110.487809,0.108884,0.376758,-2.041857,0.226207,0.380460,-0.894221,0.101047,-0.367908,-0.924356,-0.013904,-0.004102,-0.285285,-5.030769,11.470261,-3.962143,,,,,,,
1512179110.507798,0.117753,0.379766,-2.060991,0.305510,-0.118303,-0.879887,0.109110,-0.370703,-0.922320,-0.019129,0.073859,-0.284986,-4.805733,11.470596,-3.889069,,,,,,,
1512179110.527817,0.117665,0.387025,-2.083774,0.610514,-0.574587,-1.103060,0.108711,-0.377435,-0.919633,-0.091972,0.187830,-0.078964,-5.183357,10.870026,-3.736145,,,,,,,
1512179110.547806,0.116376,0.400605,-2.112696,0.950856,-0.585397,-1.313509,0.106920,-0.389976,-0.914596,-0.134554,0.145194,0.093506,-5.784111,10.719131,-3.881119,,,,,,,
1512179110.567795,0.120655,0.418997,-2.144368,1.147438,-0.296661,-1.325648,0.109951,-0.406845,-0.906856,-0.141521,0.120025,0.201091,-6.090187,9.368668,-3.879196,,,,,,,
1512179110.587784,0.131743,0.439256,-2.175460,1.186881,0.020499,-1.245083,0.118892,-0.425266,-0.897225,-0.143123,0.106602,0.238534,-6.095314,8.243652,-4.029709,,,,,,,
1512179110.607804,0.147639,0.458742,-2.205197,1.117290,0.200736,-1.153784,0.131894,-0.442821,-0.886856,-0.120602,0.123683,0.231399,-6.098961,7.418655,-3.880096,,,,,,,
1512179110.627793,0.164081,0.476275,-2.233108,1.031551,0.164107,-1.063473,0.145167,-0.458472,-0.876772,-0.092097,0.162055,0.229083,-5.806526,5.769089,-4.183411,,,,,,,
1512179110.647782,0.178167,0.492826,-2.259867,1.021949,0.033659,-1.004365,0.156136,-0.473118,-0.867053,-0.088798,0.180988,0.258319,-5.433372,5.319656,-3.811798,,,,,,,
1512179110.667771,0.190319,0.510252,-2.286159,1.104276,-0.043221,-0.958668,0.165075,-0.488397,-0.856865,-0.096716,0.190454,0.324608,-5.585396,4.869431,-3.810730,,,,,,,
1512179110.687790,0.203714,0.529539,-2.312509,1.195260,0.071126,-0.910042,0.174600,-0.505136,-0.845194,-0.100366,0.147073,0.345346,-5.590462,3.744415,-3.811264,,,,,,,
1512179110.707779,0.219101,0.548278,-2.336942,1.061771,0.161426,-0.762414,0.185494,-0.521218,-0.833021,-0.092797,0.085442,0.293165,-5.220772,2.544968,-3.664993,,,,,,,
1512179110.727768,0.230978,0.561430,-2.355298,0.641942,0.065237,-0.520440,0.193788,-0.532397,-0.824014,-0.083833,0.059894,0.241510,-5.076027,1.420181,-4.041794,,,,,,,
1512179110.747757,0.236548,0.565939,-2.365593,0.127438,-0.018258,-0.290455,0.197810,-0.536209,-0.820580,-0.084849,0.049728,0.170876,-4.924492,1.720413,-3.667923,,,,,,,
1512179110.767777,0.237854,0.561695,-2.368970,-0.336692,-0.032085,-0.137316,0.199416,-0.532622,-0.822525,-0.041640,0.065794,0.047638,-4.850502,1.495529,-3.668671,,,,,,,
1512179110.787766,0.235160,0.551182,-2.367364,-0.613895,-0.147052,-0.011672,0.198493,-0.523695,-0.828459,0.005471,0.083906,-0.097399,-4.847878,2.095520,-3.818390,,,,,,,
1512179110.807755,0.227673,0.538623,-2.363159,-0.643750,-0.340553,0.043722,0.193754,-0.512954,-0.836264,0.041384,0.102539,-0.200358,-5.222023,2.319962,-4.115097,,,,,,,
1512179110.827744,0.217175,0.528766,-2.359664,-0.412344,-0.466228,0.032777,0.186045,-0.504469,-0.843148,0.082342,0.076566,-0.214164,-5.669960,2.769287,-4.036072,,,,,,,
1512179110.847763,0.207696,0.524609,-2.357467,-0.119663,-0.372911,0.067194,0.178475,-0.500875,-0.846918,0.122565,0.026250,-0.160741,-5.519096,2.994522,-4.337234,,,,,,,
1512179110.867752,0.200561,0.525503,-2.353792,0.061122,-0.172145,0.232550,0.172339,-0.501648,-0.847731,0.146661,-0.027283,-0.105165,-6.193977,2.993515,-4.106506,,,,,,,
1512179110.887741,0.196168,0.527334,-2.346522,-0.025233,0.016522,0.371610,0.168434,-0.503232,-0.847578,0.174889,-0.028903,-0.085696,-6.042961,3.218735,-4.107666,,,,,,,
1512179110.907761,0.191539,0.524942,-2.336729,-0.312272,-0.014923,0.386531,0.164737,-0.501163,-0.849527,0.218076,-0.003369,-0.085028,-6.117699,3.293625,-4.257004,,,,,,,
1512179110.927750,0.183913,0.516883,-2.326542,-0.568716,-0.195766,0.349140,0.158987,-0.494173,-0.854702,0.217539,-0.016737,-0.067539,-6.416283,3.593170,-4.104309,,,,,,,
1512179110.947739,0.173976,0.503839,-2.315558,-0.837713,-0.210104,0.369712,0.151589,-0.482791,-0.862516,0.191917,-0.043881,-0.019351,-6.788918,4.117615,-4.100876,,,,,,,
1512179110.967728,0.166692,0.483477,-2.301879,-1.286653,0.088133,0.456993,0.146904,-0.464861,-0.873111,0.188240,-0.037825,-0.037106,-7.012794,4.417282,-4.548828,,,,,,,
1512179110.987747,0.164348,0.454635,-2.285291,-1.655041,0.321411,0.504704,0.146990,-0.439135,-0.886315,0.248472,0.057955,-0.178168,-6.779213,6.292633,-4.249878,,,,,,,
1512179111.007736,0.162456,0.424223,-2.268659,-1.530945,0.168914,0.470791,0.147405,-0.411612,-0.899359,0.270014,0.157508,-0.314142,-6.398247,7.643204,-4.477432,,,,,,,
1512179111.027726,0.157492,0.401313,-2.257502,-0.996872,-0.152324,0.198105,0.144380,-0.390627,-0.909156,0.232817,0.185457,-0.274712,-6.695763,8.242752,-4.924622,,,,,,,
1512179111.047715,0.150347,0.390175,-2.253470,-0.343660,-0.261118,0.080329,0.138524,-0.380350,-0.914409,0.193293,0.114878,-0.090275,-6.689995,9.517761,-4.849030,,,,,,,
1512179111.067734,0.150507,0.388119,-2.251352,-0.024638,0.257428,0.088886,0.138787,-0.378448,-0.915159,0.200522,0.007766,0.013715,-6.688118,9.967773,-5.148819,,,,,,,
1512179111.087723,0.160002,0.388921,-2.246452,-0.007312,0.719457,0.352992,0.147422,-0.379190,-0.913500,0.218819,-0.036932,0.037752,-6.688942,9.742767,-4.773926,,,,,,,
1512179111.107712,0.170554,0.388978,-2.233659,-0.160274,0.737753,0.709038,0.157050,-0.379243,-0.911872,0.206873,0.013673,0.026663,-6.086357,10.343674,-5.003738,,,,,,,
1512179111.127701,0.173984,0.386458,-2.214659,-0.338651,0.372839,0.906671,0.160341,-0.376910,-0.912266,0.154753,0.080020,0.060719,-5.786018,10.419128,-5.006256,,,,,,,
1512179111.147721,0.167066,0.382168,-2.193125,-0.381427,-0.126176,0.954417,0.154293,-0.372933,-0.914940,0.088856,0.133813,0.157570,-5.108833,10.945129,-5.386749,,,,,,,
1512179111.167710,0.152428,0.379217,-2.172380,-0.227334,-0.439895,0.903319,0.141051,-0.370194,-0.918184,0.016297,0.137253,0.286851,-5.407112,11.319687,-5.309036,,,,,,,
1512179111.187699,0.136205,0.380455,-2.153598,0.045264,-0.437248,0.858241,0.126075,-0.371343,-0.919896,-0.034491,0.118505,0.412679,-5.554680,11.844467,-5.157516,,,,,,,
1512179111.207657,0.124503,0.387342,-2.136017,0.345046,-0.108859,0.860528,0.114982,-0.377729,-0.918749,-0.045600,0.077253,0.510241,-5.855614,11.619019,-5.005066,,,,,,,
1512179111.227676,0.122015,0.399544,-2.117167,0.584967,0.463759,1.014178,0.112126,-0.388998,-0.914390,-0.006718,-0.015268,0.544776,-5.931740,11.393906,-5.229538,,,,,,,
1512179111.247665,0.129503,0.416653,-2.092365,0.762919,1.109584,1.374002,0.118093,-0.404702,-0.906791,0.012172,-0.088935,0.478752,-5.257072,11.319916,-5.235306,,,,,,,
1512179111.267654,0.145345,0.435376,-2.061829,0.679406,1.541735,1.545930,0.131322,-0.421751,-0.897151,0.012110,-0.088945,0.279811,-3.761269,10.422165,-5.548462,,,,,,,
1512179111.287674,0.160180,0.449651,-2.029773,0.344940,1.296666,1.517847,0.143642,-0.434651,-0.889070,0.017476,-0.042598,0.087190,-3.084892,10.723175,-5.479065,,,,,,,
1512179111.307663,0.165866,0.455838,-1.998593,-0.077277,0.762219,1.365952,0.148248,-0.440214,-0.885570,-0.033181,-0.072603,-0.042531,-2.333565,11.024307,-5.560303,,,,,,,
