unixtime,rx,ry,rz,ax,ay,az,mx,my,mz,apprx,appry,apprz,appax,appay,appaz,appmx,appmy,appmz
1512178944,-38.900,8.500,192.000,12270.000,-175290.000,982910.000,224000.000,276000.000,-247000.000,618.967,-67.699,-464.897,-18.336,58.602,204.768,21115.524,-23864.799,-33818.352
1512178944,-41.400,-6.100,188.800,13550.000,-154720.000,1000060.000,224000.000,276000.000,-247000.000,668.223,-175.603,-418.718,-45.222,71.219,313.761,21041.611,-23639.915,-33667.610
1512178944,39.800,17.000,192.500,9280.000,-143550.000,1035280.000,247000.000,257000.000,-262000.000,635.272,-82.717,-419.938,-59.653,69.114,412.019,21414.062,-24239.357,-33371.071
1512178944,15.000,25.700,188.000,40100.000,-161130.000,1010500.000,247000.000,257000.000,-262000.000,490.216,130.671,-405.307,-65.932,44.866,443.931,21639.526,-24164.024,-33147.942
1512178944,3.600,31.300,178.600,47300.000,-160950.000,971800.000,247000.000,257000.000,-262000.000,280.382,357.748,-340.395,-65.595,19.067,404.809,21940.002,-24088.570,-32850.471
1512178944,0.500,18.400,179.400,66830.000,-150940.000,1053890.000,247000.000,257000.000,-262000.000,40.723,421.232,-221.053,-53.525,4.885,291.841,22464.676,-24162.788,-32854.958
1512178944,-26.100,13.800,181.000,33940.000,-135680.000,1038210.000,247000.000,257000.000,-262000.000,-214.411,196.245,-81.614,-47.811,3.590,227.045,22617.142,-23637.550,-32630.989
1512178944,-67.400,-8.700,178.400,14890.000,-167110.000,982060.000,231000.000,273000.000,-277000.000,-421.096,-121.529,25.160,-44.331,14.157,119.935,22316.696,-23713.005,-32853.477
1512178944,-73.400,-13.700,183.400,13180.000,-123110.000,946660.000,231000.000,273000.000,-277000.000,-556.292,-305.551,69.469,-57.382,39.049,63.131,22318.909,-23187.996,-33153.236
1512178944,-80.300,-15.800,177.400,54380.000,-156250.000,904910.000,231000.000,273000.000,-277000.000,-579.811,-458.337,65.396,-65.680,41.385,27.056,22244.736,-22963.112,-33527.489
1512178944,-72.300,-18.900,177.500,63350.000,-220890.000,985350.000,231000.000,273000.000,-277000.000,-542.660,-543.747,70.967,-86.847,13.685,6.351,21646.988,-22439.003,-33747.154
1512178944,-26.800,-18.600,178.400,54500.000,-151370.000,951110.000,228000.000,266000.000,-243000.000,-500.471,-529.725,34.314,-95.894,15.332,11.282,21346.344,-22514.458,-34344.627
1512178944,-71.200,-19.000,172.700,107540.000,-184750.000,951350.000,228000.000,266000.000,-243000.000,-522.912,-322.424,-16.458,-58.902,-9.844,-55.175,20899.826,-21690.132,-34790.428
1512178944,-58.300,-33.300,176.300,37110.000,-146610.000,1000240.000,228000.000,266000.000,-243000.000,-589.740,-209.524,98.100,-22.854,-40.639,-155.927,20448.288,-21990.807,-35161.736
1512178944,-7.500,-12.800,170.800,54020.000,-146730.000,1025760.000,228000.000,266000.000,-243000.000,-662.981,-220.665,271.832,22.848,-2.187,-253.166,20526.596,-21240.685,-35312.035
1512178944,6.800,2.100,166.700,72510.000,-208130.000,1013730.000,228000.000,266000.000,-243000.000,-591.202,-356.412,373.678,55.222,70.086,-289.687,20226.700,-21166.145,-35759.438
1512178944,25.000,13.600,166.600,87340.000,-147280.000,938780.000,230000.000,260000.000,-255000.000,-433.475,-516.265,303.980,45.457,77.812,-210.763,19926.483,-21166.588,-36206.886
1512178944,-6.100,3.200,163.000,41870.000,-155270.000,1017700.000,230000.000,260000.000,-255000.000,-490.757,-399.767,227.866,38.293,13.070,-117.314,19177.261,-20942.711,-36650.414
1512178944,-23.300,-4.000,162.500,90150.000,-153750.000,970520.000,230000.000,260000.000,-255000.000,-788.155,-101.284,304.547,88.410,-18.797,-141.929,18878.464,-20643.166,-36947.731
1512178944,30.900,15.800,162.600,17090.000,-89290.000,1072270.000,230000.000,260000.000,-255000.000,-1151.957,84.539,589.895,161.514,45.627,-325.264,18657.776,-19668.495,-37095.360
1512178944,21.700,8.100,157.700,68850.000,-125180.000,1048710.000,230000.000,260000.000,-255000.000,-1061.010,-167.736,751.309,180.609,162.145,-422.799,18583.481,-19443.596,-37694.618
1512178944,-5.600,-5.500,155.900,33140.000,-155330.000,1019590.000,224000.000,255000.000,-253000.000,-609.854,-567.429,654.114,173.522,270.443,-332.310,17909.988,-19069.603,-38063.698
1512178944,38.100,2.500,162.500,41260.000,-114010.000,964480.000,224000.000,255000.000,-253000.000,-108.899,-762.314,196.955,148.102,266.457,-93.221,17236.099,-18770.622,-38507.820
1512178944,34.100,-0.700,157.100,74650.000,-140690.000,950500.000,224000.000,255000.000,-253000.000,186.282,-425.729,-167.520,153.682,134.913,125.346,16559.784,-19071.632,-38427.223
1512178944,-8.700,-33.600,160.700,36620.000,-128600.000,943790.000,224000.000,255000.000,-253000.000,372.220,256.185,-225.348,192.592,11.432,208.966,16409.424,-19146.858,-38500.984
1512178944,13.400,-33.400,156.500,7200.000,-128780.000,917050.000,244000.000,253000.000,-242000.000,380.124,740.656,30.174,234.409,-52.609,157.362,17084.641,-19145.851,-38056.725
1512178944,-19.000,-24.900,159.100,57500.000,-143620.000,927370.000,244000.000,253000.000,-242000.000,120.205,357.159,645.519,194.661,-33.500,60.256,17720.291,-19594.895,-37724.846
1512178944,4.900,-13.000,154.700,73240.000,-184810.000,1007450.000,244000.000,253000.000,-242000.000,106.231,-446.810,710.214,69.178,35.820,234.511,17004.807,-20270.974,-37606.605
1512178944,-29.600,-17.800,155.900,80440.000,-147710.000,975650.000,244000.000,253000.000,-242000.000,298.421,-12.258,422.410,26.381,-89.314,365.342,15802.521,-20760.277,-37784.134
1512178944,-51.400,-20.000,157.100,93440.000,-139590.000,999270.000,244000.000,253000.000,-242000.000,321.274,470.762,611.515,20.777,-146.429,225.620,15463.142,-21210.784,-37481.476
1512178944,-41.900,-11.500,153.500,54630.000,-135310.000,978390.000,242000.000,245000.000,-250000.000,365.249,478.213,660.685,-9.453,-93.455,52.571,15533.661,-22260.681,-36995.102
1512178944,-5.200,-1.200,152.500,44560.000,-150570.000,1028750.000,242000.000,245000.000,-250000.000,457.821,55.023,553.413,-50.620,-117.093,-41.811,15567.688,-23085.633,-36508.301
1512178944,32.500,19.200,148.300,49990.000,-124760.000,1014890.000,242000.000,245000.000,-250000.000,269.785,-218.491,435.669,-103.595,-186.476,-55.696,15414.924,-23760.856,-35944.832
1512178944,71.100,28.600,147.700,60730.000,-139830.000,919800.000,242000.000,245000.000,-250000.000,-21.526,28.078,302.780,-153.511,-147.951,-158.164,14662.491,-24324.494,-35751.228
1512178944,117.700,31.400,147.800,60060.000,-139470.000,1020810.000,238000.000,241000.000,-260000.000,146.654,-20.939,-168.817,-153.603,-51.417,-270.894,14700.668,-24174.431,-35751.472
1512178944,91.300,17.800,143.900,58720.000,-120120.000,985900.000,238000.000,241000.000,-260000.000,248.458,-392.528,-703.796,-166.314,-155.757,-94.493,14661.911,-24474.487,-35563.797
1512178944,47.300,-7.300,145.400,48100.000,-107360.000,1009700.000,238000.000,241000.000,-260000.000,-371.671,249.211,-788.904,-116.168,-174.951,-66.405,15527.024,-23873.191,-35758.346
1512178944,45.800,-16.500,143.000,9640.000,-8970.000,1125370.000,238000.000,241000.000,-260000.000,-181.714,593.925,-751.370,-34.854,52.176,-294.764,17255.249,-23158.096,-35735.184
1512178945,-1.600,-24.200,141.400,14040.000,-51510.000,1055910.000,238000.000,241000.000,-260000.000,285.796,257.445,-932.329,-40.132,119.957,-207.250,18045.425,-22594.414,-35441.628
1512178945,103.500,8.500,138.800,44250.000,-103210.000,1044560.000,230000.000,236000.000,-255000.000,330.842,45.121,-1024.097,-43.695,73.319,-54.546,18720.840,-22518.394,-35297.325
1512178945,14.100,8.900,136.000,64450.000,-139100.000,898380.000,230000.000,236000.000,-255000.000,276.972,-54.354,-993.237,-32.388,39.416,62.127,19171.555,-22367.729,-35226.067
1512178945,-54.600,-6.400,127.200,84230.000,-149290.000,938660.000,230000.000,236000.000,-255000.000,174.198,-14.237,-836.814,-38.983,24.036,134.451,19399.002,-21842.384,-35077.751
1512178945,-82.600,-19.700,126.200,55660.000,-157840.000,979610.000,230000.000,236000.000,-255000.000,153.501,77.282,-675.818,-53.656,62.758,174.011,19849.045,-21841.713,-35006.569
1512178945,-78.700,-11.500,123.300,60970.000,-150570.000,1029720.000,230000.000,236000.000,-255000.000,253.091,184.167,-633.495,-58.136,104.187,187.758,20148.743,-21916.267,-34934.151
1512178945,-65.200,-6.400,130.400,71230.000,-110960.000,963990.000,240000.000,232000.000,-255000.000,415.580,194.085,-659.889,-73.728,112.652,220.930,20374.908,-21690.910,-34635.963
1512178945,-36.600,12.700,130.400,45590.000,-111150.000,1030580.000,240000.000,232000.000,-255000.000,455.467,141.862,-689.342,-80.574,95.302,266.473,21048.370,-22064.903,-34341.881
1512178945,9.200,28.200,126.000,100770.000,-163150.000,976500.000,240000.000,232000.000,-255000.000,284.437,40.074,-666.590,-82.564,71.245,291.406,21124.527,-21839.790,-34042.412
1512178945,9.900,22.200,123.600,74830.000,-191710.000,1037900.000,240000.000,232000.000,-255000.000,54.304,42.813,-610.217,-71.229,74.494,284.788,21575.134,-21689.110,-34196.159
1512178945,-23.000,-8.700,123.200,75810.000,-131040.000,1086790.000,230000.000,218000.000,-252000.000,-8.133,164.412,-566.987,-66.913,79.347,221.546,22026.901,-21313.438,-34049.812
1512178945,-53.900,-24.500,130.500,77450.000,-107420.000,1012820.000,230000.000,218000.000,-252000.000,54.372,232.816,-540.260,-56.127,85.817,138.239,22476.303,-21462.761,-33903.709
1512178945,-75.900,-22.200,128.200,46140.000,-84900.000,912410.000,230000.000,218000.000,-252000.000,77.299,168.703,-511.367,-17.141,78.172,72.479,22924.118,-21912.086,-34207.741
1512178945,-17.400,34.000,116.900,125120.000,-172360.000,861020.000,230000.000,218000.000,-252000.000,89.708,18.891,-365.656,10.779,41.450,30.622,22628.433,-21012.535,-33679.787
1512178945,6.700,37.300,117.700,66890.000,-143620.000,1018920.000,230000.000,218000.000,-252000.000,65.793,-143.939,-152.294,16.363,25.240,16.337,22927.719,-21162.086,-33757.393
1512178945,-2.500,9.900,124.600,14770.000,-131960.000,1066470.000,247000.000,211000.000,-258000.000,-3.099,-352.784,71.987,24.643,21.620,-10.486,22928.726,-20937.080,-33757.301
1512178945,-32.600,-5.100,124.600,18860.000,-62440.000,1016170.000,247000.000,211000.000,-258000.000,-76.894,-544.499,270.668,16.656,27.857,12.224,22476.517,-21387.764,-34128.670
1512178945,1.700,13.200,122.500,54260.000,-104370.000,1038760.000,247000.000,211000.000,-258000.000,-195.757,-534.191,368.126,-16.384,45.899,19.236,22026.672,-21313.438,-34499.809
1512178945,-27.600,-3.500,122.600,42600.000,-122250.000,950070.000,247000.000,211000.000,-258000.000,-388.413,-390.129,292.277,-3.532,98.396,-40.887,21501.251,-21389.229,-34645.378
1512178945,21.000,9.900,120.100,70980.000,-132870.000,989200.000,244000.000,232000.000,-255000.000,-441.860,-211.602,180.187,52.222,65.928,-140.730,21276.215,-21389.565,-34718.483
1512178945,-62.300,-9.500,119.800,9090.000,-161740.000,940730.000,244000.000,232000.000,-255000.000,-244.358,-93.771,169.603,95.679,36.842,-199.781,20828.049,-20940.239,-35089.439
1512178945,-48.200,-12.300,121.200,73730.000,-150630.000,968200.000,244000.000,232000.000,-255000.000,47.464,-99.770,185.535,111.679,15.088,-159.446,20677.933,-20940.468,-35313.164
1512178945,-5.200,7.500,112.900,99490.000,-95210.000,975220.000,244000.000,232000.000,-255000.000,29.827,-87.048,221.570,101.044,-16.596,-99.485,20226.257,-21316.139,-35309.517
1512178945,31.300,0.900,121.800,44680.000,-73610.000,1057010.000,244000.000,232000.000,-255000.000,-288.693,-70.667,338.547,104.235,-36.268,-59.588,20150.955,-21391.258,-35233.910
1512178945,65.900,12.300,117.800,78800.000,-56950.000,950010.000,237000.000,225000.000,-242000.000,-935.265,-118.979,497.444,145.725,25.926,-176.091,19926.071,-21316.582,-35681.969
1512178945,73.400,21.600,122.000,48220.000,-120850.000,1020750.000,237000.000,225000.000,-242000.000,-1225.293,-441.050,550.757,162.495,89.394,-258.178,19855.331,-20341.698,-35905.876
1512178945,57.700,12.500,117.800,106510.000,-159300.000,996700.000,237000.000,225000.000,-242000.000,-673.453,-476.975,506.922,158.132,141.555,-193.376,18808.281,-19593.269,-36759.102
1512178945,36.200,13.000,121.000,82640.000,-133240.000,969600.000,237000.000,225000.000,-242000.000,156.648,223.957,238.880,175.636,74.909,-3.817,18096.488,-19406.838,-37015.457
1512178945,27.700,-3.500,120.400,115720.000,-120180.000,1022710.000,237000.000,225000.000,-242000.000,25.797,59.330,473.613,184.851,-37.530,31.375,18168.960,-20006.729,-36678.872
1512178945,19.000,-7.600,118.000,38020.000,-76480.000,969480.000,249000.000,216000.000,-236000.000,-61.196,-574.582,642.847,81.385,-73.474,254.286,17605.858,-20120.072,-36861.641
1512178945,-12.800,-15.000,115.400,56820.000,-127560.000,923770.000,249000.000,216000.000,-236000.000,184.200,-16.378,528.948,25.355,-115.412,395.392,16327.720,-20796.990,-37038.620
1512178945,-34.500,-7.500,115.300,67750.000,-122680.000,939330.000,249000.000,216000.000,-236000.000,291.084,386.964,564.417,25.264,-179.272,223.913,15988.701,-21172.493,-36698.425
1512178945,-1.500,-4.700,120.500,44860.000,-123050.000,1050660.000,249000.000,216000.000,-236000.000,190.035,91.314,632.815,-9.108,-134.570,46.719,16022.789,-21959.946,-36436.607
1512178945,32.000,0.400,116.500,80810.000,-94910.000,961790.000,249000.000,216000.000,-236000.000,393.573,-107.800,466.101,-66.090,-97.972,-73.911,15157.135,-22673.744,-36317.100
1512178945,17.700,5.500,117.700,46810.000,-109440.000,984800.000,226000.000,215000.000,-242000.000,573.571,-28.059,253.641,-122.835,-127.020,-86.781,14928.085,-23649.093,-35640.647
1512178945,27.400,7.900,119.800,64150.000,-139830.000,979490.000,226000.000,215000.000,-242000.000,230.555,104.745,83.362,-127.354,-74.417,-235.779,14623.528,-24737.046,-34963.608
1512178945,19.200,7.100,123.700,37050.000,-72750.000,941470.000,226000.000,215000.000,-242000.000,158.255,-259.459,-269.152,-141.124,-36.589,-242.916,14587.021,-24512.101,-35000.679
1512178945,21.700,17.300,120.800,54930.000,-86670.000,935240.000,226000.000,215000.000,-242000.000,6.120,-61.163,-730.671,-164.376,-126.391,-48.407,15111.839,-24548.813,-35042.656
1512178946,14.100,10.000,121.000,43210.000,-64760.000,1000790.000,238000.000,213000.000,-253000.000,-521.817,647.876,-746.515,-76.306,-112.150,-184.609,15865.509,-23722.679,-35123.650
1512178946,29.000,8.000,125.000,38090.000,-32840.000,1071170.000,238000.000,213000.000,-253000.000,-500.266,646.622,-630.001,-25.482,8.784,-326.544,16842.239,-23346.214,-35056.770
1512178946,30.500,17.200,122.800,54500.000,-102660.000,995120.000,238000.000,213000.000,-253000.000,-142.569,330.945,-616.327,-24.792,109.556,-300.507,17444.901,-22745.308,-35136.589
1512178946,-1.100,5.600,121.200,42050.000,-146240.000,955690.000,238000.000,213000.000,-253000.000,241.125,23.228,-819.718,-73.323,137.849,-97.617,17895.691,-22594.643,-34915.352
1512178946,38.300,15.200,121.300,91190.000,-73910.000,885380.000,238000.000,213000.000,-253000.000,313.128,50.489,-1047.785,-90.752,80.648,87.700,18121.140,-22519.295,-34692.223
1512178946,-14.800,4.900,119.800,56950.000,-136720.000,965700.000,247000.000,211000.000,-255000.000,288.603,199.049,-1104.121,-71.439,11.842,164.034,18871.933,-22368.172,-34473.518
1512178946,4.400,4.500,120.200,36010.000,-100770.000,939210.000,247000.000,211000.000,-255000.000,255.929,365.407,-989.950,-54.190,-22.702,189.077,19398.392,-22067.390,-34252.846
1512178946,-31.600,6.100,115.200,71040.000,-140010.000,924190.000,247000.000,211000.000,-255000.000,208.433,467.548,-819.713,-41.492,0.510,148.410,19923.096,-22141.594,-34182.350
1512178946,-69.900,-15.300,116.500,45590.000,-125180.000,995120.000,247000.000,211000.000,-255000.000,182.803,334.807,-693.683,-38.818,21.644,83.511,20825.287,-21690.239,-33889.793
1512178946,1.600,1.500,121.000,76660.000,-84840.000,1098140.000,247000.000,211000.000,-255000.000,198.430,13.160,-623.152,-48.517,45.957,68.583,21049.713,-21839.897,-33666.771
1512178946,39.100,31.300,125.800,95760.000,-79900.000,1037350.000,240000.000,208000.000,-245000.000,296.653,-223.792,-643.875,-52.301,61.907,122.993,21201.065,-21539.680,-33667.915
1512178946,2.700,12.700,131.800,54200.000,-95400.000,964110.000,240000.000,208000.000,-245000.000,413.348,-228.895,-674.184,-36.254,45.592,192.832,21424.377,-21914.345,-33670.006
1512178946,-0.900,28.100,129.600,124510.000,-160030.000,938720.000,240000.000,208000.000,-245000.000,513.919,-39.770,-621.963,-22.417,8.371,236.739,21571.945,-22439.110,-33821.510
1512178946,10.400,6.800,128.000,85940.000,-114750.000,971980.000,240000.000,208000.000,-245000.000,552.105,202.468,-469.187,-6.479,-19.591,197.200,22023.331,-22213.448,-33075.233
1512178946,-6.800,-11.100,132.000,55540.000,-94480.000,969540.000,223000.000,186000.000,-258000.000,532.990,190.312,-280.815,2.299,-5.111,144.270,22248.032,-22288.109,-33002.174
1512178946,-8.800,-23.800,139.300,20080.000,-69700.000,895320.000,223000.000,186000.000,-258000.000,435.442,70.349,-188.830,13.005,34.628,110.626,22397.202,-22512.886,-32628.563
1512178946,2.300,-16.900,132.600,96010.000,-127080.000,949650.000,223000.000,186000.000,-258000.000,339.560,-8.957,-131.862,58.912,45.023,62.862,22473.938,-22137.764,-32554.024
1512178946,81.600,4.700,138.900,80870.000,-107120.000,989070.000,223000.000,186000.000,-258000.000,327.257,-101.159,27.546,71.748,18.677,31.067,21947.998,-22363.564,-32399.666
1512178946,9.200,-21.200,129.700,93930.000,-166690.000,934080.000,223000.000,186000.000,-258000.000,334.316,-176.343,242.733,72.582,15.852,22.176,22244.614,-23113.121,-32402.565
1512178946,-87.900,-49.000,134.100,75440.000,-118040.000,918520.000,235000.000,202000.000,-260000.000,238.386,-197.161,435.296,40.924,19.565,21.522,21794.052,-23263.786,-32173.805
1512178946,-43.900,-38.200,138.100,14830.000,-105350.000,974000.000,235000.000,202000.000,-260000.000,90.103,-164.422,506.815,24.274,82.845,-12.508,21269.058,-23264.580,-32169.350
1512178946,-43.400,-54.700,149.700,25270.000,-60790.000,993960.000,235000.000,202000.000,-260000.000,-73.802,-102.689,493.997,14.395,94.990,-89.494,21192.703,-23564.690,-32168.846
1512178946,-11.100,-34.900,148.600,108090.000,-73430.000,920720.000,235000.000,202000.000,-260000.000,-114.580,-169.005,507.034,19.608,99.445,-148.072,20743.683,-23340.370,-32239.922
1512178946,58.300,-17.000,155.400,55910.000,-69640.000,1004940.000,249000.000,178000.000,-253000.000,-41.640,-239.338,475.862,26.192,132.839,-123.276,20365.265,-24090.935,-32312.080
1512178946,17.400,-13.400,158.200,97720.000,-113220.000,968750.000,249000.000,178000.000,-253000.000,9.748,-165.212,305.231,-12.778,51.253,13.091,19915.284,-24054.108,-32608.238
1512178946,-12.400,-30.500,167.800,67200.000,-100650.000,989870.000,249000.000,178000.000,-253000.000,-1010.889,74.658,569.522,84.371,50.812,-103.459,19503.006,-23979.729,-32829.696
1512178946,0.400,-24.400,168.700,114260.000,-159670.000,1007750.000,249000.000,178000.000,-253000.000,-1111.198,-632.564,799.608,101.095,223.192,-291.812,18644.737,-22931.007,-33796.875
1512178946,-20.800,-30.600,176.300,103390.000,-144350.000,978270.000,249000.000,178000.000,-253000.000,-217.166,-450.124,249.782,105.814,170.185,32.334,17182.953,-22633.210,-35059.303
1512178946,-17.800,-32.000,184.200,136900.000,-125180.000,1025570.000,237000.000,186000.000,-265000.000,-435.139,100.773,500.663,205.390,0.574,11.105,16997.024,-22258.476,-35282.539
1512178946,21.400,-12.800,187.000,110170.000,-113400.000,968570.000,237000.000,186000.000,-265000.000,-582.417,-682.683,892.377,142.808,36.712,72.903,15495.834,-22448.235,-35944.862
1512178946,39.500,6.700,186.600,143010.000,-190060.000,1014770.000,237000.000,186000.000,-265000.000,-102.468,-495.778,467.694,49.464,-38.163,385.537,14110.787,-21850.312,-36420.295
1512178946,44.300,11.500,196.400,128360.000,-127750.000,997190.000,237000.000,186000.000,-265000.000,183.268,393.576,380.050,50.795,-196.584,380.965,13546.379,-22263.656,-36528.213
1512178946,13.800,10.800,201.900,113100.000,-123410.000,904420.000,237000.000,186000.000,-265000.000,-168.121,400.652,581.799,-9.628,-182.504,107.346,13508.163,-22451.217,-36265.480
1512178946,43.000,9.200,204.000,121150.000,-87650.000,981750.000,231000.000,181000.000,-243000.000,-241.701,-113.151,526.177,-68.667,-119.300,-151.631,13509.102,-22226.219,-36415.374
1512178946,3.700,17.300,209.200,149540.000,-106690.000,997560.000,231000.000,181000.000,-243000.000,408.936,-153.262,244.429,-148.626,-110.464,-155.110,12344.017,-22827.965,-36180.770
1512178946,96.400,49.300,216.100,133120.000,-107600.000,1096560.000,231000.000,181000.000,-243000.000,335.263,-100.415,-69.344,-174.149,-157.242,-118.489,12492.180,-23277.740,-35807.259
1512178946,53.100,25.200,221.600,112550.000,-128050.000,1056950.000,231000.000,181000.000,-243000.000,184.353,219.220,-308.148,-121.667,-100.850,-229.868,12642.235,-23277.519,-35696.029
1512178947,29.800,41.700,222.400,181340.000,-111760.000,987370.000,253000.000,185000.000,-264000.000,672.916,441.013,-542.293,-101.176,-107.966,-245.961,13315.842,-23651.512,-35101.936
1512178947,57.300,29.600,223.200,116580.000,-153990.000,1050600.000,253000.000,185000.000,-264000.000,711.376,461.753,-741.020,-92.974,-160.859,-174.205,13914.276,-24025.612,-34882.225
1512178947,-11.500,5.300,222.600,127440.000,-136660.000,1046330.000,253000.000,185000.000,-264000.000,509.475,450.971,-845.257,-60.861,-215.899,-152.390,14812.592,-24474.266,-34215.065
1512178947,-62.900,-11.300,235.400,70680.000,-111390.000,915470.000,253000.000,185000.000,-264000.000,-18.227,380.484,-718.823,-7.421,-240.057,-218.481,15340.027,-23948.463,-34069.298
1512178947,-20.000,-3.500,239.000,119630.000,-118160.000,1021300.000,253000.000,185000.000,-264000.000,-423.495,172.124,-459.970,23.889,-134.535,-326.540,16016.983,-23497.459,-34224.815
1512178947,-40.600,4.300,243.500,100220.000,-151920.000,959350.000,237000.000,179000.000,-269000.000,-210.349,-122.611,-341.709,-13.363,-0.870,-298.076,16091.644,-23572.350,-34225.487
1512178947,-17.400,0.500,253.500,99850.000,-162600.000,1028630.000,237000.000,179000.000,-269000.000,299.612,-340.486,-504.580,-83.930,84.418,-98.975,15943.222,-23197.563,-34449.043
1512178947,-79.500,-20.400,257.100,129760.000,-169250.000,953190.000,237000.000,179000.000,-269000.000,493.528,-236.088,-751.932,-137.480,52.259,124.818,16317.352,-23422.005,-34152.336
1512178947,-89.300,-14.100,265.400,154300.000,-206480.000,930180.000,237000.000,179000.000,-269000.000,366.649,74.789,-864.623,-136.648,9.320,225.289,16691.422,-23646.446,-34005.623
1512178947,24.800,8.000,267.400,154970.000,-153870.000,1021420.000,254000.000,148000.000,-252000.000,117.475,360.563,-803.276,-109.631,14.099,189.462,17367.172,-23495.430,-33861.305
1512178947,-61.900,2.800,275.900,175480.000,-211670.000,904720.000,254000.000,148000.000,-252000.000,45.539,392.308,-706.130,-90.229,68.559,126.193,17745.575,-22744.865,-33789.146
1512178947,-166.000,-31.600,282.700,111150.000,-173770.000,963130.000,254000.000,148000.000,-252000.000,164.795,305.959,-701.504,-92.205,126.411,102.679,18118.301,-23269.295,-33642.570
1512178947,-6.300,13.300,286.300,139890.000,-101930.000,922420.000,254000.000,148000.000,-252000.000,337.649,174.995,-781.541,-95.941,153.634,142.173,18566.650,-23643.623,-33571.571
1512178947,-41.100,16.900,289.500,83130.000,-154480.000,986390.000,254000.000,148000.000,-252000.000,460.334,154.086,-917.358,-73.341,183.667,221.110,19095.840,-22742.836,-33275.612
1512178947,-17.200,-5.200,299.600,107300.000,-147640.000,998410.000,247000.000,162000.000,-265000.000,499.462,255.829,-1023.045,-44.088,159.512,277.049,19546.036,-22742.165,-32904.442
1512178947,47.900,19.600,289.800,103640.000,-64640.000,932010.000,247000.000,162000.000,-265000.000,492.953,480.105,-1005.302,11.165,125.433,266.253,20595.932,-22815.590,-32463.402
1512178947,6.100,27.700,294.900,115970.000,-87950.000,954350.000,247000.000,162000.000,-265000.000,466.002,543.863,-854.088,47.676,90.234,199.431,21195.404,-22964.684,-32168.571
1512178947,-38.300,14.200,301.100,124690.000,-83980.000,938110.000,247000.000,162000.000,-265000.000,319.262,332.757,-628.813,62.261,54.513,148.391,22022.583,-22513.451,-31875.374
1512178947,47.900,44.900,305.600,145320.000,-68910.000,1032170.000,247000.000,162000.000,-265000.000,106.736,56.304,-361.011,63.647,58.175,134.023,22247.620,-22513.115,-31802.299
1512178947,-23.400,20.400,315.900,94850.000,-147340.000,1068910.000,251000.000,148000.000,-269000.000,-53.313,-71.442,-164.420,66.497,97.799,142.972,22474.350,-22137.764,-31729.042
1512178947,-112.800,-11.200,325.400,165890.000,-129580.000,980900.000,251000.000,148000.000,-269000.000,-102.466,-74.993,-28.690,54.714,84.806,131.094,22399.231,-22137.886,-31953.392
1512178947,-42.300,2.300,323.600,122620.000,-119020.000,989380.000,251000.000,148000.000,-269000.000,-165.852,-150.168,126.842,36.017,66.947,94.964,22098.602,-22288.338,-31875.908
1512178947,-39.300,-8.300,331.000,110900.000,-141240.000,961430.000,251000.000,148000.000,-269000.000,-323.289,-328.057,291.312,6.741,40.804,61.245,21947.540,-22513.557,-31949.745
1512178947,12.400,-0.800,333.800,135740.000,-185910.000,946960.000,267000.000,156000.000,-240000.000,-542.700,-446.115,402.857,-20.199,65.114,63.152,21649.612,-21989.006,-32546.944
1512178947,-11.200,-12.000,336.100,167970.000,-216610.000,874150.000,267000.000,156000.000,-240000.000,-743.813,-367.332,385.297,-40.981,72.523,12.301,21048.996,-22064.903,-33066.887
1512178947,-16.800,-18.400,343.500,151790.000,-203980.000,929140.000,267000.000,156000.000,-240000.000,-810.355,-272.304,351.612,-36.566,43.432,-77.184,20601.883,-21390.572,-33362.740
1512178947,-9.700,-18.800,343.700,139220.000,-184140.000,1055850.000,267000.000,156000.000,-240000.000,-667.461,-152.857,290.670,-18.120,29.015,-126.087,20302.414,-21203.522,-33997.605
1512178947,22.400,-13.200,352.700,161130.000,-150820.000,1030150.000,267000.000,156000.000,-240000.000,-492.852,-16.116,149.224,-5.631,-51.476,-111.818,20003.762,-20828.972,-34669.876
1512178947,-23.800,-1.100,365.900,174190.000,-237000.000,910890.000,261000.000,141000.000,-258000.000,-1237.646,-76.123,478.829,113.670,-9.096,-375.079,19594.055,-20154.587,-35153.565
1512178947,-70.400,-27.700,368.400,132690.000,-178890.000,909550.000,261000.000,141000.000,-258000.000,-549.459,-755.038,507.226,140.206,185.890,-423.358,18850.898,-18543.206,-35971.435
1512178947,-125.300,-38.100,374.300,132810.000,-193600.000,1039920.000,261000.000,141000.000,-258000.000,450.215,-374.885,-6.266,145.596,103.694,4.824,17686.707,-18844.947,-36636.696
1512178947,-92.800,-13.600,379.800,181270.000,-213680.000,974730.000,261000.000,141000.000,-258000.000,400.337,227.150,170.471,256.151,-51.937,58.427,17307.663,-19783.012,-36296.441
1512178947,-88.800,-8.000,372.400,139530.000,-224910.000,986390.000,274000.000,139000.000,-270000.000,145.221,-352.134,680.203,203.956,-34.835,158.033,17230.758,-20233.131,-36033.508
1512178947,-64.400,21.700,370.400,191350.000,-174680.000,1000790.000,274000.000,139000.000,-270000.000,276.377,-341.124,613.913,120.732,-53.506,392.158,15765.038,-20947.837,-36058.906
1512178947,-4.700,28.000,390.300,163330.000,-183410.000,1035030.000,274000.000,139000.000,-270000.000,311.876,260.839,623.449,87.425,-119.793,394.474,14824.981,-21549.241,-35751.213
1512178947,-106.800,-0.100,394.900,179140.000,-228390.000,1120180.000,274000.000,139000.000,-270000.000,30.934,175.710,783.790,38.922,-104.844,219.612,14260.025,-22150.093,-35259.216
1512178947,-76.800,0.100,394.400,132260.000,-177550.000,1033390.000,274000.000,139000.000,-270000.000,-168.673,15.285,726.503,-29.958,-52.868,40.931,13544.815,-22713.669,-35590.927
1512178947,-115.400,-20.900,401.600,114560.000,-170230.000,1074580.000,286000.000,137000.000,-269000.000,20.415,-126.648,534.195,-94.468,-64.850,-120.664,12982.994,-22564.506,-35586.074
1512178948,-88.900,-14.000,407.600,136290.000,-159060.000,998960.000,286000.000,137000.000,-269000.000,5.446,-416.281,328.820,-176.686,-111.902,-107.889,12495.682,-22527.733,-35544.411
1512178948,16.800,22.600,404.100,148250.000,-170960.000,960140.000,286000.000,137000.000,-269000.000,-314.686,-525.370,148.969,-226.739,-93.545,-125.469,11893.173,-23053.642,-35839.546
1512178948,-54.600,8.700,411.200,82580.000,-195620.000,965030.000,286000.000,137000.000,-269000.000,-531.691,-446.096,-134.272,-224.706,-46.331,-165.278,11522.446,-22079.201,-36060.905
1512178948,-150.200,-7.100,415.300,179440.000,-202270.000,887390.000,286000.000,137000.000,-269000.000,-454.058,-251.910,-501.329,-197.911,-6.794,-212.210,11748.642,-21778.862,-36362.679
1512178948,-115.000,11.100,408.500,181820.000,-215520.000,934200.000,281000.000,118000.000,-257000.000,-84.858,-31.577,-899.249,-152.716,-19.680,-215.917,12276.001,-21253.059,-36366.905
1512178948,-96.300,5.500,408.900,139950.000,-194270.000,1010070.000,281000.000,118000.000,-257000.000,197.182,233.127,-1117.049,-105.649,-108.798,-177.945,12500.076,-21477.730,-36218.925
1512178948,-78.200,27.200,412.800,183110.000,-213560.000,885130.000,281000.000,118000.000,-257000.000,32.826,482.661,-1029.013,-77.161,-170.754,-197.915,13249.390,-21626.610,-36225.365
1512178948,-132.200,11.200,420.600,160280.000,-256650.000,952210.000,281000.000,118000.000,-257000.000,-408.652,468.647,-762.544,-35.209,-150.193,-296.579,13929.382,-20500.587,-36380.577
1512178948,-101.700,16.900,423.300,146790.000,-235290.000,833370.000,305000.000,135000.000,-257000.000,-594.843,161.351,-541.373,-18.868,-14.141,-328.388,14605.392,-20274.574,-36386.223
1512178948,-128.400,-1.500,426.000,127560.000,-250980.000,905400.000,305000.000,135000.000,-257000.000,-451.119,-18.964,-538.854,-33.035,97.227,-254.187,14982.986,-19674.004,-36614.128
1512178948,-155.800,-8.500,437.700,134580.000,-255620.000,908810.000,305000.000,135000.000,-257000.000,-137.842,-75.792,-726.401,-35.951,144.129,-106.235,14909.225,-19374.123,-36838.341
1512178948,-111.100,12.700,429.800,134950.000,-222350.000,985960.000,305000.000,135000.000,-257000.000,159.721,120.650,-983.658,-42.013,96.003,59.186,15133.621,-19523.781,-36690.331
1512178948,-49.900,30.200,434.400,177860.000,-214290.000,984800.000,305000.000,135000.000,-257000.000,316.627,448.004,-1109.240,-6.310,17.470,132.793,15806.824,-19897.774,-36921.242
1512178948,4.700,37.300,430.100,124940.000,-181090.000,1032650.000,303000.000,133000.000,-279000.000,365.659,588.937,-1037.681,23.868,-55.802,146.170,16559.647,-19296.638,-36702.339
1512178948,-13.700,16.200,452.500,180790.000,-184630.000,1054080.000,303000.000,133000.000,-279000.000,283.733,538.124,-790.650,37.589,-94.821,128.058,17761.414,-18994.835,-35887.398
1512178948,6.900,20.400,463.000,130190.000,-274170.000,1112850.000,303000.000,133000.000,-279000.000,145.759,379.267,-512.831,34.367,-54.885,112.934,18287.567,-18769.051,-35591.759
1512178948,81.400,14.800,474.600,146610.000,-269290.000,1048220.000,303000.000,133000.000,-279000.000,108.944,196.372,-422.318,34.309,21.315,102.780,18436.859,-18918.831,-35668.114
1512178948,4.400,10.700,421.300,151670.000,-224240.000,917300.000,303000.000,133000.000,-279000.000,233.371,83.436,-474.211,25.996,23.480,128.890,18735.550,-19218.376,-35595.787
1512178948,-2.900,4.800,423.600,98140.000,-218990.000,989440.000,330000.000,132000.000,-270000.000,374.136,66.569,-477.560,35.511,-7.484,182.370,18884.567,-19443.153,-35522.179
1512178948,36.900,3.500,427.800,122560.000,-216610.000,1032780.000,330000.000,132000.000,-270000.000,435.476,167.945,-378.241,38.365,-39.428,231.581,19334.686,-19442.482,-35301.003
1512178948,60.100,18.500,417.300,113770.000,-143980.000,932920.000,330000.000,132000.000,-270000.000,379.832,287.206,-230.450,42.343,-45.408,216.785,19558.823,-19667.152,-35003.014
1512178948,79.000,14.200,423.300,89360.000,-189640.000,1018370.000,330000.000,132000.000,-270000.000,240.406,251.388,-52.432,33.352,-52.313,172.035,19485.840,-19217.247,-35002.174
1512178948,46.100,14.600,414.900,119380.000,-210080.000,970950.000,323000.000,111000.000,-264000.000,44.342,77.690,128.555,21.197,-39.284,111.875,19933.228,-19816.582,-34856.270
1512178948,46.500,10.300,421.000,74830.000,-197140.000,947450.000,323000.000,111000.000,-264000.000,-146.857,-179.248,267.741,18.382,-12.419,77.963,19558.105,-19817.146,-35078.087
1512178948,3.200,-5.500,425.000,78120.000,-159910.000,969360.000,323000.000,111000.000,-264000.000,-256.121,-340.889,356.210,-3.280,7.867,47.752,19180.298,-20417.717,-35300.179
1512178948,29.000,0.700,420.500,104680.000,-256040.000,1005550.000,323000.000,111000.000,-264000.000,-222.435,-396.427,379.960,-26.056,18.648,30.612,18733.414,-19743.385,-35146.034
1512178948,94.400,18.900,412.800,124020.000,-218990.000,990360.000,323000.000,111000.000,-264000.000,-10.166,-349.843,212.626,-47.573,24.595,19.451,18433.693,-19631.333,-35593.438
1512178948,-22.800,-30.100,416.900,74520.000,-261840.000,997680.000,337000.000,118000.000,-284000.000,171.032,0.678,5.392,-57.067,-1.549,6.151,17906.723,-20082.123,-35476.677
1512178948,-49.500,-48.300,412.500,81240.000,-187380.000,1001890.000,337000.000,118000.000,-284000.000,130.075,412.376,20.089,0.617,-14.837,-207.197,18055.931,-20269.394,-35365.539
1512178948,45.000,-11.600,412.000,53040.000,-175960.000,976810.000,337000.000,118000.000,-284000.000,364.362,116.717,85.353,19.836,7.796,-196.412,18467.140,-20606.285,-34919.213
1512178948,69.000,-16.200,415.500,23250.000,-138240.000,1060730.000,337000.000,118000.000,-284000.000,305.447,121.804,167.135,53.264,-66.797,-41.440,18390.861,-20906.395,-34768.707
1512178948,104.100,-7.200,409.600,79650.000,-189330.000,1043400.000,337000.000,118000.000,-284000.000,-335.927,75.678,852.755,118.796,-0.714,-123.378,18388.443,-21468.895,-34543.961
1512178948,102.400,19.300,407.900,170780.000,-213810.000,966740.000,340000.000,114000.000,-267000.000,-375.035,-368.051,1036.670,66.967,192.851,-37.894,17376.655,-21282.921,-34797.775
1512178948,29.700,-14.200,410.100,36500.000,-180050.000,1081300.000,340000.000,114000.000,-267000.000,-274.454,-11.877,611.880,87.923,181.402,95.107,15800.514,-21472.786,-35384.476
1512178948,70.800,3.900,402.500,187620.000,-98510.000,1087590.000,340000.000,114000.000,-267000.000,-120.079,223.099,473.680,127.613,79.612,130.908,15424.965,-21585.845,-35456.344
1512178948,-37.400,-25.200,407.900,115230.000,-167240.000,1023320.000,340000.000,114000.000,-267000.000,-15.412,-17.234,546.851,75.509,-14.386,233.054,14898.850,-21849.137,-35302.002
1512178948,23.300,-14.400,406.700,98820.000,-173710.000,1075560.000,358000.000,107000.000,-267000.000,-180.042,-141.499,601.604,27.915,-62.255,304.373,14260.231,-22037.590,-35859.162
1512178948,50.100,-6.700,408.900,138000.000,-165160.000,1078370.000,358000.000,107000.000,-267000.000,-98.646,28.968,619.366,-17.280,-73.100,253.623,13771.995,-22225.822,-35630.104
1512178949,10.100,-11.500,403.500,113220.000,-209470.000,1020750.000,358000.000,107000.000,-267000.000,1.581,105.681,524.605,-41.380,-78.418,145.849,13395.203,-22601.387,-35852.089
1512178949,50.900,-11.600,410.000,123540.000,-168090.000,971620.000,358000.000,107000.000,-267000.000,85.037,75.001,440.424,-59.675,-86.765,67.565,13246.246,-22376.610,-35775.719
1512178949,50.200,4.500,405.900,154790.000,-169620.000,971620.000,358000.000,107000.000,-267000.000,254.944,54.073,350.065,-79.978,-103.748,9.616,13095.901,-22451.836,-35774.467
1512178949,101.500,15.200,411.600,131900.000,-187190.000,1054440.000,365000.000,86000.000,-260000.000,520.649,110.183,273.092,-104.686,-166.120,-21.967,12942.947,-23127.068,-35623.512
1512178949,88.900,4.900,419.300,126590.000,-193360.000,1052860.000,365000.000,86000.000,-260000.000,697.503,179.867,283.360,-119.015,-232.758,-20.378,13091.476,-23501.839,-35174.965
1512178949,98.900,11.100,418.800,167050.000,-171140.000,984800.000,365000.000,86000.000,-260000.000,621.861,195.647,345.213,-130.373,-274.231,-48.638,12788.849,-24102.303,-35022.697
1512178949,87.600,7.500,420.000,144840.000,-236210.000,1014710.000,365000.000,86000.000,-260000.000,279.383,62.524,420.812,-137.200,-290.738,-119.371,12487.396,-24477.745,-34570.305
1512178949,43.700,-10.300,426.400,140500.000,-194270.000,987240.000,347000.000,93000.000,-250000.000,-178.497,-217.148,503.816,-146.933,-237.916,-230.349,12035.553,-24853.432,-34866.661
1512178949,50.300,2.000,430.200,150630.000,-213200.000,987920.000,347000.000,93000.000,-250000.000,-461.430,-565.703,448.400,-156.932,-139.119,-333.211,11511.490,-24629.219,-35012.093
1512178949,79.900,8.100,436.200,116520.000,-130740.000,1015320.000,347000.000,93000.000,-250000.000,-410.652,-661.291,208.940,-175.433,-67.193,-364.348,10990.021,-23805.000,-35382.256
1512178949,100.300,17.400,436.500,115360.000,-175350.000,1081360.000,347000.000,93000.000,-250000.000,61.739,-631.889,-249.981,-187.160,-47.492,-347.054,10913.620,-24105.110,-35456.749
1512178949,48.600,3.300,438.400,99910.000,-156190.000,1015990.000,347000.000,93000.000,-250000.000,525.322,-508.542,-687.382,-209.633,-146.318,-211.957,10536.560,-24555.672,-35528.770
1512178949,-0.100,10.400,442.600,189760.000,-177250.000,991820.000,376000.000,89000.000,-270000.000,553.204,-242.013,-942.971,-211.420,-193.306,-148.915,10312.012,-24481.010,-35301.826
1512178949,68.700,22.900,440.400,139710.000,-220340.000,1011720.000,376000.000,89000.000,-270000.000,-71.505,288.943,-917.127,-157.118,-253.586,-168.791,11362.396,-24404.442,-35235.725
1512178949,39.500,13.200,442.000,116880.000,-226870.000,975100.000,376000.000,89000.000,-270000.000,-584.108,485.397,-723.450,-65.967,-89.335,-406.243,11888.702,-24103.645,-35315.041
1512178949,-25.300,-2.100,433.400,148930.000,-196470.000,968200.000,376000.000,89000.000,-270000.000,-243.436,199.482,-644.886,-59.028,80.487,-488.321,12492.050,-23352.745,-35394.798
1512178949,43.500,28.200,441.400,96920.000,-216190.000,1012390.000,376000.000,89000.000,-270000.000,476.395,-128.918,-934.095,-92.113,189.360,-254.062,13090.439,-23726.845,-35250.069
1512178949,-9.300,11.600,438.500,133000.000,-201780.000,999570.000,377000.000,98000.000,-265000.000,811.565,27.287,-1340.194,-146.466,111.475,24.667,13390.701,-23651.390,-35402.580
1512178949,-2.500,19.000,432.400,108030.000,-181950.000,1044920.000,377000.000,98000.000,-265000.000,799.565,391.837,-1500.075,-96.891,45.226,146.144,14441.742,-23499.825,-34661.446
1512178949,22.600,34.900,428.500,144100.000,-177920.000,1041320.000,377000.000,98000.000,-265000.000,676.750,577.348,-1412.725,-57.650,15.504,161.610,15338.120,-24323.479,-34519.463
1512178949,112.000,73.400,420.900,156430.000,-153750.000,994380.000,377000.000,98000.000,-265000.000,615.159,557.671,-1234.589,-50.517,42.698,170.124,16540.436,-23871.666,-33929.466
1512178949,137.800,79.900,424.500,123410.000,-138240.000,1036560.000,377000.000,98000.000,-265000.000,589.140,468.801,-1147.858,-53.794,107.797,186.824,17590.668,-23870.094,-33488.396
1512178949,85.500,43.900,438.000,82820.000,-127990.000,985290.000,414000.000,86000.000,-264000.000,580.569,365.176,-1150.475,-58.293,128.559,214.428,18266.495,-23719.078,-33194.054
1512178949,61.000,27.300,431.200,130860.000,-178830.000,1019350.000,414000.000,86000.000,-264000.000,593.986,287.176,-1127.097,-53.066,123.403,248.267,19242.020,-23642.616,-32827.309
1512178949,15.300,6.400,436.800,38450.000,-200680.000,956420.000,414000.000,86000.000,-264000.000,619.778,267.888,-1075.619,-45.451,117.084,294.235,19689.880,-24166.954,-32381.371
1512178949,1.100,5.600,430.500,92040.000,-144290.000,928830.000,414000.000,86000.000,-264000.000,552.476,243.071,-1004.190,-42.239,114.738,305.991,20217.407,-23641.151,-32085.609
1512178949,24.900,5.300,424.200,108150.000,-161380.000,974790.000,414000.000,104000.000,-267000.000,327.308,204.930,-798.639,-36.000,86.168,283.440,21005.386,-23564.972,-31792.259
1512178949,-11.300,-0.500,426.100,150390.000,-182070.000,1008060.000,414000.000,104000.000,-267000.000,147.452,92.032,-563.906,-43.670,109.826,249.346,21793.678,-23413.788,-31573.891
1512178949,-8.900,8.500,424.500,160100.000,-187620.000,984860.000,414000.000,104000.000,-267000.000,-45.225,-95.460,-427.694,-32.636,89.589,219.722,22617.935,-23600.052,-31393.486
1512178949,-1.700,-1.600,424.400,92160.000,-177430.000,1068970.000,414000.000,104000.000,-267000.000,-363.799,-325.606,-158.599,-35.847,51.152,166.483,22696.617,-22737.434,-31768.723
1512178949,0.000,0.900,417.300,113160.000,-253780.000,1000610.000,414000.000,104000.000,-267000.000,-610.131,-615.487,122.526,-61.880,66.169,-80.781,22022.377,-22475.944,-32625.359
1512178949,-26.600,-1.500,416.100,87770.000,-202090.000,1079160.000,426000.000,102000.000,-275000.000,-708.093,-640.936,-46.884,-59.076,63.418,-175.609,21239.112,-21427.117,-33593.177
1512178949,2.300,7.200,417.300,82400.000,-225220.000,1084660.000,426000.000,102000.000,-275000.000,-575.263,-341.998,-136.135,60.673,-93.633,-263.243,20228.859,-20828.643,-34484.291
1512178949,21.200,8.800,420.800,138000.000,-148320.000,1042420.000,426000.000,102000.000,-275000.000,-1058.172,-217.909,483.612,87.543,-131.721,-310.686,19780.129,-20454.316,-35305.298
1512178949,12.400,16.200,424.400,79830.000,-217220.000,950680.000,426000.000,102000.000,-275000.000,-1426.760,-989.242,785.277,93.905,147.455,-489.877,18922.242,-19293.099,-36534.920
1512178949,109.500,35.600,420.200,69820.000,-159240.000,1008360.000,437000.000,95000.000,-272000.000,-148.728,-766.650,-325.456,78.916,177.311,-26.032,17090.416,-17870.842,-37981.132
1512178949,21.400,21.400,417.300,79960.000,-170900.000,939580.000,437000.000,95000.000,-272000.000,372.438,733.159,-760.964,241.267,-141.431,157.170,17317.344,-17495.499,-37495.376
1512178949,25.600,25.000,412.500,105530.000,-158750.000,931760.000,437000.000,95000.000,-272000.000,-113.870,352.648,330.305,297.426,-179.924,-67.355,18142.372,-17531.761,-37127.411
1512178950,-26.000,9.300,408.100,121220.000,-205930.000,953190.000,437000.000,95000.000,-272000.000,-214.657,-763.618,796.696,186.856,-54.441,96.280,17767.105,-17569.832,-37311.745
1512178950,4.400,13.800,403.300,141660.000,-162780.000,1003600.000,437000.000,95000.000,-272000.000,-26.589,-827.236,702.188,136.357,-31.501,295.307,16790.268,-17946.297,-37603.615
1512178950,-37.700,-14.400,409.500,75200.000,-215210.000,1069400.000,442000.000,93000.000,-287000.000,209.798,-450.552,543.818,121.377,-66.042,403.154,15889.404,-18097.649,-37971.031
1512178950,-82.200,-21.300,411.700,73060.000,-193730.000,949950.000,442000.000,93000.000,-287000.000,383.228,15.484,521.297,124.723,-122.841,416.566,15663.498,-18322.975,-37744.225
1512178950,-94.800,-30.500,412.100,66650.000,-216060.000,1085020.000,442000.000,93000.000,-287000.000,430.487,306.933,643.460,119.650,-158.936,358.896,15433.884,-19373.329,-37517.799
1512178950,-35.000,-21.300,410.700,63900.000,-206540.000,1119570.000,442000.000,93000.000,-287000.000,226.136,340.455,818.647,102.209,-139.665,230.635,15432.205,-19748.329,-37517.982
1512178950,21.200,-7.200,414.300,86120.000,-158940.000,1021970.000,442000.000,93000.000,-287000.000,34.764,117.806,905.715,78.058,-88.510,85.978,14981.598,-19899.010,-37364.235
1512178950,-66.300,-32.200,415.100,24780.000,-157410.000,911800.000,472000.000,88000.000,-275000.000,-52.827,-113.061,904.707,36.481,-59.948,-43.744,14906.631,-19899.117,-37288.597
1512178950,-79.400,-23.300,402.700,79710.000,-153990.000,882200.000,472000.000,88000.000,-275000.000,133.236,-301.629,796.945,-0.657,-46.052,-102.805,14379.913,-20274.910,-37359.306
1512178950,45.300,12.100,398.100,108030.000,-87400.000,1037960.000,472000.000,88000.000,-275000.000,458.207,-328.537,612.870,-43.258,-84.934,-71.839,13702.881,-20725.929,-37353.767
1512178950,101.100,46.700,384.300,115910.000,-142520.000,1033810.000,472000.000,88000.000,-275000.000,503.333,-171.166,469.084,-89.541,-152.117,-25.743,13248.428,-21701.607,-37500.389
1512178950,182.800,62.200,383.200,134220.000,-103520.000,1057070.000,460000.000,89000.000,-301000.000,342.402,32.854,346.997,-118.347,-204.759,-46.217,13173.187,-21776.711,-37274.803
1512178950,157.500,53.100,392.200,90640.000,-101140.000,1081540.000,460000.000,89000.000,-301000.000,73.256,193.922,256.242,-127.293,-217.626,-126.970,13470.825,-22301.277,-37277.596
1512178950,46.600,21.700,395.200,114200.000,-187190.000,1073970.000,460000.000,89000.000,-301000.000,-128.692,208.770,156.359,-122.898,-187.987,-246.313,13322.678,-21926.491,-36976.143
1512178950,75.500,25.300,388.700,136110.000,-163210.000,1036560.000,460000.000,89000.000,-301000.000,-151.510,169.545,-13.613,-111.810,-127.256,-325.148,13248.016,-21851.601,-36975.471
1512178950,75.600,18.600,392.300,93200.000,-147520.000,1003230.000,460000.000,89000.000,-301000.000,-56.410,94.265,-224.643,-73.344,-72.950,-369.731,13397.552,-21926.384,-37201.775
1512178950,-17.600,-21.000,385.500,105220.000,-226200.000,983340.000,484000.000,96000.000,-284000.000,96.930,-105.943,-418.208,-33.745,-97.466,-385.827,13698.608,-21700.935,-37129.219
1512178950,10.500,-13.200,382.200,135560.000,-161620.000,1011840.000,484000.000,96000.000,-284000.000,158.641,-393.054,-489.739,-60.534,-137.310,-306.149,13472.519,-21926.277,-37277.412
1512178950,19.700,-6.400,384.200,97900.000,-174800.000,1014220.000,484000.000,96000.000,-284000.000,-290.604,-408.741,-463.251,-65.586,-60.408,-231.013,13473.526,-21701.271,-37277.321
1512178950,73.400,9.300,379.800,148560.000,-137390.000,1017940.000,484000.000,96000.000,-284000.000,-937.196,-196.309,-354.616,-11.721,105.157,-401.822,13401.459,-21026.375,-37501.350
1512178950,125.200,22.100,381.400,119200.000,-108580.000,1121400.000,484000.000,96000.000,-284000.000,-962.828,-55.490,-279.871,56.327,299.713,-515.835,13853.516,-20500.694,-38104.942
1512178950,138.900,29.700,379.600,80380.000,-176570.000,1046630.000,493000.000,91000.000,-286000.000,-157.099,-145.890,-401.773,90.885,438.748,-371.655,13481.369,-19826.256,-38476.433
1512178950,72.300,9.700,380.600,124820.000,-116330.000,1038210.000,493000.000,91000.000,-286000.000,536.169,-121.975,-614.451,57.189,387.280,-125.021,13480.804,-19976.250,-38251.503
1512178950,-11.700,12.400,381.000,93690.000,-156680.000,976200.000,493000.000,91000.000,-286000.000,677.794,71.545,-595.737,42.273,260.589,39.002,13931.564,-19825.584,-38105.263
1512178950,46.900,18.100,381.600,150270.000,-155880.000,1000120.000,493000.000,91000.000,-286000.000,302.569,187.766,-235.642,66.380,206.672,128.670,14116.028,-20537.804,-37769.683
1512178950,26.200,29.300,375.000,140870.000,-171020.000,985900.000,502000.000,104000.000,-284000.000,73.491,87.802,172.190,72.422,232.229,93.174,14790.291,-20724.297,-37550.506
1512178950,25.000,25.700,371.400,130680.000,-206730.000,1024660.000,502000.000,104000.000,-284000.000,11.434,-104.300,305.478,33.746,238.329,109.106,14489.190,-20987.243,-37398.087
1512178950,104.700,45.400,373.500,159730.000,-164610.000,1067440.000,502000.000,104000.000,-284000.000,-52.894,-2.906,300.636,7.401,158.188,144.428,14149.514,-21437.752,-37695.419
1512178950,140.700,59.000,370.800,120670.000,-176700.000,1087890.000,502000.000,104000.000,-284000.000,28.104,234.054,184.302,8.459,131.442,106.600,14000.565,-21212.983,-37619.041
1512178950,66.700,22.800,378.800,114560.000,-220210.000,1067140.000,502000.000,104000.000,-284000.000,290.586,275.858,42.733,46.087,59.406,79.880,14146.927,-22037.758,-37470.703
1512178950,-56.200,-3.600,375.600,193850.000,-198060.000,842410.000,493000.000,112000.000,-282000.000,394.564,89.920,160.859,67.118,-25.116,154.345,14597.153,-22037.079,-37024.529
1512178950,-38.100,6.800,379.600,102910.000,-180480.000,932370.000,493000.000,112000.000,-282000.000,189.829,6.438,353.757,63.857,-64.238,223.329,14369.674,-22599.922,-36910.378
1512178950,-55.700,-5.600,375.200,156860.000,-151250.000,956850.000,493000.000,112000.000,-282000.000,-103.288,-84.106,540.553,58.974,-58.164,183.255,13954.711,-23163.048,-36757.126
1512178950,13.300,20.000,374.600,95890.000,-127200.000,950560.000,493000.000,112000.000,-282000.000,-185.459,-134.978,542.915,54.978,-21.127,127.809,13467.140,-23163.780,-36902.985
1512178950,55.700,20.800,373.800,110110.000,-136960.000,1010130.000,532000.000,109000.000,-282000.000,-76.825,-148.046,484.213,68.023,-34.002,61.200,12791.611,-23277.298,-36934.800
1512178950,25.700,19.000,375.600,132020.000,-149170.000,1003360.000,532000.000,109000.000,-282000.000,-86.787,-47.364,608.081,54.793,-63.679,26.896,11814.392,-23728.760,-37301.728
1512178950,11.900,6.500,382.300,91130.000,-124020.000,1028140.000,532000.000,109000.000,-282000.000,-246.376,-6.832,784.474,13.602,-43.773,-132.374,11140.694,-23429.772,-37408.340
1512178951,15.000,2.800,378.000,130000.000,-114440.000,1059390.000,532000.000,109000.000,-282000.000,-220.419,-141.922,788.113,-26.481,26.724,-186.447,10239.868,-23581.123,-37700.752
1512178951,43.800,8.900,379.600,106510.000,-110350.000,1071470.000,532000.000,109000.000,-282000.000,-47.217,-34.535,633.217,-35.275,64.982,-167.725,9865.906,-23356.682,-37622.475
1512178951,93.700,27.400,369.400,146180.000,-118900.000,958920.000,528000.000,109000.000,-279000.000,189.415,211.866,453.074,-20.286,39.931,-148.008,10014.008,-23806.465,-37398.949
1512178951,118.200,39.500,364.700,144350.000,-118530.000,1086850.000,528000.000,109000.000,-279000.000,380.817,381.115,361.557,8.498,7.918,-129.560,9789.001,-23806.801,-37397.041
1512178951,119.300,34.500,363.500,122620.000,-123110.000,1078190.000,528000.000,109000.000,-279000.000,484.251,432.543,362.167,37.696,-1.480,-81.110,9935.471,-24631.569,-37023.705
1512178951,145.300,49.000,359.000,135440.000,-92040.000,973330.000,528000.000,109000.000,-279000.000,435.411,448.388,415.885,58.885,-12.177,-28.032,10232.620,-25306.129,-36651.558
1512178951,119.600,39.800,354.200,121220.000,-77640.000,1062990.000,528000.000,109000.000,-279000.000,261.974,431.884,524.184,74.235,-60.337,-3.876,10533.112,-25230.675,-36354.073
1512178951,143.100,47.100,356.600,109070.000,-128970.000,1063050.000,535000.000,109000.000,-282000.000,-105.383,368.794,819.275,113.065,-76.158,-37.774,9933.487,-25156.578,-36273.933
1512178951,16.400,18.900,358.900,95460.000,-111150.000,952090.000,535000.000,109000.000,-282000.000,-536.100,152.677,1198.195,153.217,-0.652,-125.395,9782.959,-25231.804,-36647.697
1512178951,11.900,16.200,361.800,102170.000,-91740.000,1051270.000,535000.000,109000.000,-282000.000,-666.501,-184.528,1460.579,146.939,96.388,-182.725,9034.042,-24932.930,-37166.191
1512178951,35.200,30.900,355.000,128050.000,-148190.000,1059200.000,535000.000,109000.000,-282000.000,-475.407,-491.940,1494.262,101.144,165.589,-137.791,8060.242,-24634.392,-37457.756
1512178951,-47.800,1.900,357.000,155820.000,-177000.000,1027530.000,555000.000,111000.000,-287000.000,-129.213,-556.091,1248.528,68.333,204.825,-1.874,6932.510,-25236.076,-37523.476
1512178951,-28.000,6.500,348.700,132320.000,-185610.000,1101440.000,555000.000,111000.000,-287000.000,60.658,-266.763,932.468,79.251,153.821,126.027,6033.554,-25012.428,-37440.727
1512178951,61.800,15.200,352.300,108460.000,-130920.000,1072750.000,555000.000,111000.000,-287000.000,37.392,123.459,745.860,135.626,91.797,153.695,5282.730,-25238.548,-37059.456
1512178951,-1.100,5.200,350.500,117860.000,-140080.000,1039610.000,555000.000,111000.000,-287000.000,-42.286,322.038,739.001,185.504,22.706,99.558,5280.853,-25613.564,-37434.624
1512178951,35.300,23.400,347.900,142330.000,-125310.000,1063540.000,555000.000,111000.000,-287000.000,-91.832,194.547,893.487,191.983,-19.314,61.177,5057.541,-25238.884,-37432.533
1512178951,50.700,26.800,355.400,59940.000,-219420.000,974980.000,548000.000,125000.000,-287000.000,-146.318,-73.900,1016.491,151.308,-26.422,95.133,4906.418,-25464.119,-37656.364
1512178951,-12.900,9.300,347.000,176090.000,-124210.000,877930.000,548000.000,125000.000,-287000.000,-199.463,-238.447,999.159,93.373,-21.540,166.104,3857.758,-25165.688,-37647.301
1512178951,-84.700,-16.100,358.600,16600.000,-150390.000,1020870.000,548000.000,125000.000,-287000.000,-250.985,-197.727,893.014,43.762,-36.305,197.942,3333.725,-24941.475,-37717.735
1512178951,-108.400,-39.900,355.000,141600.000,-187990.000,875490.000,548000.000,125000.000,-287000.000,-254.128,-104.542,765.367,14.598,-57.803,182.558,2729.874,-25767.387,-38013.023
1512178951,-130.500,-27.000,355.800,120300.000,-161250.000,965700.000,548000.000,125000.000,-287000.000,-185.043,28.235,654.893,3.816,-72.124,165.791,2510.193,-24567.711,-38160.561
1512178951,-4.800,0.400,353.700,92100.000,-168270.000,929990.000,560000.000,116000.000,-255000.000,-59.540,199.544,551.768,1.442,-79.155,147.009,2360.458,-24492.943,-38309.242
1512178951,12.300,-6.700,355.900,64700.000,-120240.000,1050480.000,560000.000,116000.000,-255000.000,83.027,322.813,445.523,9.340,-91.785,113.028,2133.957,-24868.279,-37932.503
1512178951,20.200,-3.200,348.700,92410.000,-152950.000,1099980.000,560000.000,116000.000,-255000.000,129.816,300.565,386.423,14.392,-113.827,67.492,2132.187,-25243.279,-38082.680
1512178951,81.400,15.400,353.000,107730.000,-149050.000,1061040.000,560000.000,116000.000,-255000.000,77.363,113.541,390.342,13.963,-136.710,22.997,2130.920,-25543.282,-37932.823
1512178951,37.400,1.100,353.900,91000.000,-139650.000,968080.000,556000.000,112000.000,-272000.000,62.043,-105.485,404.285,-4.449,-132.024,3.317,1907.974,-25093.620,-37855.690
1512178951,-7.300,-14.000,355.400,138000.000,-185120.000,886840.000,556000.000,112000.000,-272000.000,182.983,-90.164,311.211,-34.362,-113.355,9.857,1719.414,-25356.399,-37629.219
1512178951,-14.000,4.000,349.400,181760.000,-168150.000,959290.000,556000.000,112000.000,-272000.000,336.020,46.108,120.412,-21.200,-94.825,-79.490,1268.562,-25544.571,-37625.481
1512178951,9.600,2.700,357.100,87520.000,-220280.000,1012450.000,556000.000,112000.000,-272000.000,364.550,-8.411,165.946,-1.066,-96.649,-160.320,1267.197,-25882.072,-37325.645
1512178951,10.000,4.000,355.700,106200.000,-164120.000,1010070.000,556000.000,112000.000,-272000.000,222.860,-314.693,177.217,-63.649,-104.132,-82.800,1076.355,-26669.869,-36911.918
1512178951,-50.500,-1.900,355.400,130680.000,-199160.000,990110.000,578000.000,141000.000,-279000.000,-292.909,-169.063,139.869,-80.567,-49.939,-73.521,475.624,-26820.763,-37019.386
1512178951,9.200,7.100,359.400,72390.000,-158330.000,1074340.000,578000.000,141000.000,-279000.000,34.416,193.439,-71.604,-53.491,104.536,-153.396,65.933,-26183.883,-37128.090
1512178951,57.700,32.000,357.900,88200.000,-127440.000,1011470.000,578000.000,141000.000,-279000.000,302.845,284.651,-345.106,3.185,55.878,-63.906,588.326,-26783.104,-36945.328
1512178951,-9.500,15.400,358.600,92410.000,-173830.000,1026610.000,578000.000,141000.000,-279000.000,-24.112,57.117,-52.137,36.573,54.145,-52.972,1523.865,-27194.191,-37178.490
1512178951,28.600,20.500,357.300,134160.000,-100890.000,1012330.000,578000.000,141000.000,-279000.000,12.506,-314.609,-28.381,35.648,113.294,54.744,1150.101,-26932.259,-37062.675
1512178951,-5.700,23.600,355.900,96920.000,-184140.000,1019170.000,571000.000,141000.000,-262000.000,159.095,-53.513,-145.281,49.715,59.133,196.889,1037.170,-27044.922,-36911.774
1512178951,-24.800,19.700,358.500,96500.000,-165530.000,923400.000,571000.000,141000.000,-262000.000,98.594,393.641,22.237,64.498,20.087,133.976,1598.953,-27231.583,-36654.137
1512178951,4.100,3.900,368.200,32290.000,-102170.000,1004580.000,571000.000,141000.000,-262000.000,-204.481,73.864,251.798,37.556,52.973,9.704,1637.970,-26856.521,-36991.784
1512178952,0.400,9.600,358.500,101200.000,-159790.000,959470.000,571000.000,141000.000,-262000.000,-64.161,-70.101,236.272,-0.595,53.269,38.688,1299.606,-27044.533,-37026.512
1512178952,88.900,19.800,363.400,121890.000,-142400.000,1039610.000,581000.000,155000.000,-269000.000,56.111,92.542,191.676,-4.392,15.462,71.208,1450.104,-26894.310,-37402.702
1512178952,121.000,9.300,366.100,10620.000,-117800.000,1072810.000,581000.000,155000.000,-269000.000,141.073,303.047,221.356,-0.510,-24.007,37.712,1449.203,-27119.301,-37177.818
1512178952,101.200,-1.900,366.100,45470.000,-85510.000,1037350.000,581000.000,155000.000,-269000.000,205.155,332.936,279.954,12.707,-18.315,-5.050,1599.274,-27119.087,-37029.091
1512178952,43.700,-3.200,368.800,4150.000,-128660.000,946530.000,581000.000,155000.000,-269000.000,174.301,259.074,337.886,25.889,-7.241,-22.633,2048.645,-27268.410,-36957.985
1512178952,79.800,6.800,368.600,15630.000,-117860.000,929630.000,581000.000,155000.000,-269000.000,59.331,267.209,457.780,53.173,11.887,-79.605,1598.297,-27344.078,-36954.185
1512178952,32.500,-20.600,367.000,72510.000,-52430.000,984070.000,597000.000,160000.000,-277000.000,1.556,170.706,594.126,71.680,63.677,-198.231,1298.676,-27269.539,-36876.610
1512178952,-30.900,-38.100,364.200,96800.000,-213620.000,910520.000,597000.000,160000.000,-277000.000,126.736,-16.088,623.010,75.766,114.709,-221.320,846.237,-27795.204,-37023.033
1512178952,40.200,-23.600,364.600,84660.000,-145080.000,956480.000,597000.000,160000.000,-277000.000,362.668,-29.575,601.861,61.135,70.478,-112.087,471.832,-27720.772,-36494.804
1512178952,-21.200,-50.200,360.200,64270.000,-214720.000,982730.000,597000.000,160000.000,-277000.000,344.863,282.068,727.418,89.873,17.461,-34.656,545.868,-27945.656,-36420.540
1512178952,-56.600,-50.900,354.900,128050.000,-204470.000,1018250.000,585000.000,148000.000,-282000.000,-35.370,715.473,1114.657,124.463,-26.884,-140.572,171.875,-27721.230,-36417.259
1512178952,-113.200,-75.600,357.300,94060.000,-233340.000,965210.000,585000.000,148000.000,-282000.000,-495.884,612.158,1690.763,154.980,74.337,-434.403,-279.633,-28021.904,-36713.570
1512178952,-188.000,-83.900,363.900,77880.000,-149410.000,910460.000,585000.000,148000.000,-282000.000,-502.902,-227.964,1945.723,104.463,240.260,-529.572,-1252.762,-27573.357,-37005.074
1512178952,-161.900,-70.400,360.600,62740.000,-227970.000,938420.000,585000.000,148000.000,-282000.000,-112.858,-1022.604,1656.510,22.373,342.812,-297.917,-2752.762,-27575.615,-36992.332
1512178952,-132.800,-62.600,360.900,69270.000,-219910.000,962160.000,585000.000,148000.000,-282000.000,275.144,-1078.419,1009.508,-54.447,243.996,41.551,-4177.048,-27427.742,-36905.144
1512178952,-94.000,-54.100,355.900,123350.000,-180300.000,997070.000,604000.000,153000.000,-274000.000,431.042,-450.156,507.574,-21.668,93.611,280.832,-5301.270,-27279.427,-36670.509
1512178952,-14.900,-23.800,356.500,106320.000,-217590.000,1055660.000,604000.000,153000.000,-274000.000,412.902,448.595,294.029,68.338,-17.463,323.139,-5831.146,-28405.235,-36291.573
1512178952,-35.300,-43.100,359.500,160030.000,-250790.000,1006770.000,604000.000,153000.000,-274000.000,226.635,913.912,364.378,147.947,-88.443,205.259,-5304.535,-28029.442,-36445.854
1512178952,-61.000,-57.000,354.200,124510.000,-153500.000,1004940.000,604000.000,153000.000,-274000.000,6.070,699.456,605.629,173.066,-79.986,95.738,-4779.755,-28103.661,-36225.349
1512178952,36.900,-34.600,350.300,76230.000,-188780.000,1074830.000,604000.000,153000.000,-274000.000,-168.656,116.703,764.175,137.591,-46.224,105.499,-5080.093,-28179.100,-36222.847
1512178952,99.600,-33.800,355.800,43700.000,-69520.000,1070010.000,614000.000,160000.000,-274000.000,-344.641,-302.267,749.509,91.476,-12.639,222.397,-5527.908,-27654.778,-36593.773
1512178952,80.000,-20.200,349.100,55050.000,-182920.000,985660.000,614000.000,160000.000,-274000.000,-452.201,-253.030,615.931,53.004,-0.507,323.941,-5826.645,-27355.217,-36741.081
1512178952,55.100,-19.800,351.500,132450.000,-183720.000,1087950.000,614000.000,160000.000,-274000.000,-413.150,95.567,463.132,50.471,0.142,337.022,-6425.110,-26981.117,-37035.805
1512178952,95.300,13.400,359.100,170100.000,-204160.000,1151120.000,614000.000,160000.000,-274000.000,-304.789,443.071,373.162,64.255,-9.392,293.298,-6423.721,-26681.114,-36960.670
1512178952,47.900,23.200,349.400,139830.000,-271060.000,1105530.000,622000.000,163000.000,-284000.000,-199.670,558.666,339.909,77.122,-23.191,241.514,-6198.898,-26680.779,-37337.578
1512178952,-5.600,42.500,356.900,193420.000,-327090.000,992250.000,622000.000,163000.000,-284000.000,-190.319,423.003,348.101,59.031,-47.918,232.527,-5897.324,-26305.321,-37564.949
1512178952,57.700,43.300,369.800,77210.000,-224430.000,1023560.000,622000.000,163000.000,-284000.000,-416.520,139.585,345.969,9.457,-72.951,279.145,-5745.774,-25930.100,-37828.559
1512178952,-34.400,16.000,364.500,73060.000,-218810.000,869810.000,622000.000,163000.000,-284000.000,-492.597,47.418,171.312,-41.488,-80.081,253.043,-6006.851,-25555.489,-38351.151
1512178952,-50.100,-11.300,365.700,28690.000,-134770.000,870790.000,622000.000,163000.000,-284000.000,-227.690,193.056,-80.199,-59.715,-154.539,234.885,-5929.466,-24992.874,-38651.528
1512178952,-23.000,-11.700,373.500,29420.000,-179500.000,905210.000,632000.000,171000.000,-270000.000,-157.406,285.675,-135.358,-86.544,-240.080,121.432,-5291.016,-24729.416,-39106.827
1512178952,-41.300,-33.000,368.400,-3660.000,-145940.000,917910.000,632000.000,171000.000,-270000.000,-196.583,45.859,-163.413,-161.796,-277.795,-49.844,-4989.410,-24353.966,-39296.692
1512178952,-11.600,-42.700,374.000,21790.000,-207760.000,906680.000,632000.000,171000.000,-270000.000,-92.048,-56.474,-463.417,-194.153,-301.230,-198.333,-4764.656,-24391.128,-39448.631
1512178952,-34.500,-55.800,370.000,58040.000,-166990.000,937500.000,632000.000,171000.000,-270000.000,-262.817,-270.060,-623.346,-181.123,-377.881,-298.847,-4389.305,-24315.567,-39414.276
1512178952,-72.600,-68.700,366.100,71470.000,-284970.000,919800.000,632000.000,171000.000,-270000.000,-467.430,-621.853,-870.594,-198.575,-261.810,-428.124,-4278.168,-24577.897,-39790.352
1512178952,-108.500,-67.600,363.500,30090.000,-217590.000,858030.000,625000.000,185000.000,-264000.000,105.459,-797.236,-1680.572,-136.002,-43.380,-429.876,-4012.329,-23827.500,-39867.233
1512178952,-122.600,-79.400,360.900,-2010.000,-184690.000,937620.000,625000.000,185000.000,-264000.000,541.429,-964.785,-2235.587,-86.667,-19.370,-165.791,-3753.800,-24764.610,-39382.401
1512178952,-135.300,-61.500,358.700,116330.000,-246400.000,972410.000,625000.000,185000.000,-264000.000,54.152,-302.634,-2003.676,-26.782,113.238,-70.890,-2034.295,-26074.531,-38572.677
1512178952,-133.400,-53.800,375.500,106140.000,-167180.000,990050.000,625000.000,185000.000,-264000.000,405.798,1169.859,-1178.989,64.919,341.847,-382.097,814.872,-26295.257,-38259.507
1512178953,-115.800,-48.300,390.200,-42790.000,-136050.000,1101750.000,627000.000,190000.000,-292000.000,1172.076,843.805,-729.807,-20.690,404.782,-325.767,2647.736,-27417.503,-37413.139
1512178953,-110.100,-49.100,390.300,7810.000,-130860.000,976680.000,627000.000,190000.000,-292000.000,992.540,252.694,-667.302,-13.623,373.198,-166.559,3096.024,-27866.829,-36817.192
1512178953,-75.400,-45.400,392.300,-12390.000,-211360.000,1089290.000,627000.000,190000.000,-292000.000,548.957,-158.400,-551.496,35.882,307.725,-4.871,3694.107,-28315.941,-36597.481
1512178953,-213.700,-79.800,400.000,62680.000,-286990.000,893550.000,627000.000,190000.000,-292000.000,179.635,-122.146,-262.487,62.272,232.493,47.174,3768.921,-28390.831,-36298.164
1512178953,-210.400,-76.700,400.400,64030.000,-252260.000,977720.000,627000.000,190000.000,-292000.000,252.898,39.645,86.674,37.894,210.945,49.860,3994.965,-28165.489,-36224.968
1512178953,-178.200,-79.900,388.300,27950.000,-297730.000,900450.000,653000.000,209000.000,-277000.000,408.061,179.487,251.447,-12.142,227.108,81.531,3916.443,-28990.608,-35849.709
1512178953,-105.100,-59.300,366.700,130000.000,-284790.000,940860.000,653000.000,209000.000,-277000.000,369.766,235.111,184.992,-33.956,237.257,118.090,3841.522,-28990.715,-35699.074
1512178953,-41.900,-44.900,424.900,122190.000,-299930.000,909610.000,653000.000,209000.000,-277000.000,213.211,243.687,46.297,-28.092,184.614,120.043,4138.031,-29815.269,-35252.007
1512178953,-87.200,-42.600,381.000,72330.000,-320310.000,857730.000,653000.000,209000.000,-277000.000,112.286,245.714,25.654,-22.810,102.474,110.845,4291.077,-29140.038,-35252.983
1512178953,-42.700,-36.200,375.500,91670.000,-374390.000,1032710.000,655000.000,222000.000,-292000.000,99.140,291.453,114.107,-22.340,55.645,91.860,4442.413,-28839.821,-35254.112
1512178953,-9.100,-20.900,383.500,68850.000,-243650.000,904540.000,655000.000,222000.000,-292000.000,112.295,321.162,222.069,-5.848,52.184,72.426,4364.014,-29589.943,-35328.819
1512178953,24.800,-8.300,387.900,76170.000,-259830.000,997440.000,655000.000,222000.000,-292000.000,109.671,315.635,316.894,-4.692,48.334,77.277,4514.114,-29589.714,-35105.095
1512178953,60.600,12.100,387.100,51090.000,-278080.000,1077390.000,655000.000,222000.000,-292000.000,87.206,230.011,381.297,-5.388,35.070,90.048,4590.210,-29364.601,-34955.635
1512178953,50.600,-2.400,386.300,60360.000,-272950.000,1121520.000,655000.000,222000.000,-292000.000,20.161,37.539,429.761,-13.427,23.434,121.104,4061.111,-30265.388,-35026.588
1512178953,89.500,6.000,381.000,98880.000,-285890.000,1007390.000,665000.000,215000.000,-289000.000,-90.398,-120.672,403.089,-24.702,11.939,181.077,3613.968,-29666.054,-34722.481
1512178953,126.600,12.100,376.400,90210.000,-295100.000,1025090.000,665000.000,215000.000,-289000.000,-145.626,-122.735,326.595,-20.764,-16.943,232.656,3390.884,-29216.393,-34945.366
1512178953,157.700,9.200,378.700,140620.000,-192020.000,1131100.000,665000.000,215000.000,-289000.000,-132.951,29.066,276.135,-11.763,-50.723,263.788,3389.160,-29591.393,-35020.531
1512178953,124.500,-12.900,360.500,87400.000,-315120.000,1148320.000,665000.000,215000.000,-289000.000,-133.951,238.418,282.178,2.757,-82.409,245.636,3540.054,-29366.173,-35246.712
1512178953,148.500,13.400,365.700,124020.000,-218320.000,1036070.000,665000.000,215000.000,-289000.000,-206.903,311.823,378.388,-4.119,-103.505,183.211,3393.127,-28691.399,-35170.128
1512178953,308.700,41.700,374.700,60000.000,-291440.000,1107730.000,653000.000,220000.000,-270000.000,-352.616,247.304,484.793,-9.918,-104.868,126.680,2940.125,-29367.073,-35091.606
1512178953,78.600,-8.400,375.900,-5250.000,-257930.000,976560.000,653000.000,220000.000,-270000.000,-493.906,82.404,575.986,-27.798,-87.921,66.226,3393.250,-28616.386,-35620.079
1512178953,63.800,14.800,387.600,24780.000,-228880.000,926330.000,653000.000,220000.000,-270000.000,-501.695,-114.179,585.848,-42.842,-58.688,30.434,2794.144,-28392.296,-35839.867
1512178953,94.800,38.900,387.500,-29970.000,-128780.000,947020.000,653000.000,220000.000,-270000.000,-366.690,-261.289,537.187,-62.312,-52.320,38.778,2044.434,-28318.413,-35908.470
1512178953,95.200,50.200,391.800,60.000,-189450.000,877380.000,653000.000,220000.000,-270000.000,-179.735,-225.580,450.472,-84.797,-64.921,72.312,1895.676,-28018.639,-36132.057
1512178953,57.100,45.300,392.000,-4330.000,-218750.000,1034060.000,662000.000,232000.000,-292000.000,-67.403,-110.947,367.213,-77.317,-86.354,92.028,1519.669,-28244.194,-36128.975
1512178953,-11.100,43.900,386.300,39000.000,-238830.000,951900.000,662000.000,232000.000,-292000.000,-45.874,5.534,360.468,-76.783,-125.613,32.099,1071.396,-27869.865,-36049.980
1512178953,-26.900,25.300,368.800,41320.000,-328250.000,1067690.000,662000.000,232000.000,-292000.000,-42.583,-31.428,417.420,-94.980,-130.485,-89.649,771.835,-27757.828,-36159.874
1512178953,-56.500,20.100,367.600,71960.000,-278810.000,903500.000,662000.000,232000.000,-292000.000,108.430,-12.893,343.448,-98.583,-68.085,-194.325,246.597,-27833.610,-35967.949
1512178953,-93.500,3.600,355.500,45350.000,-355530.000,1024410.000,685000.000,241000.000,-284000.000,509.228,160.531,192.615,-85.379,-57.719,-217.898,395.447,-28133.385,-35556.854
1512178953,-82.700,-2.400,357.400,70740.000,-255430.000,953670.000,685000.000,241000.000,-284000.000,508.666,294.894,39.563,-70.683,-82.254,-74.911,317.673,-28808.510,-35031.532
1512178953,-50.500,12.500,351.500,6960.000,-258420.000,1017580.000,685000.000,241000.000,-284000.000,-448.300,518.827,579.231,38.105,-61.090,-250.634,728.370,-29220.391,-34922.730
1512178953,-56.600,1.200,347.700,-9160.000,-317990.000,1022400.000,685000.000,241000.000,-284000.000,-403.575,-566.655,981.738,17.886,273.505,-348.565,57.365,-28283.898,-35366.569
1512178953,-21.200,26.400,342.500,97960.000,-283810.000,993650.000,685000.000,241000.000,-284000.000,340.750,-970.994,-53.624,-19.223,290.336,132.055,-1929.344,-28099.372,-35462.082
1512178953,-0.800,32.100,339.200,31860.000,-248540.000,1033510.000,676000.000,257000.000,-286000.000,633.992,283.423,-547.127,138.686,48.478,297.790,-2419.479,-28737.610,-34970.733
1512178953,29.200,31.400,331.800,68420.000,-269960.000,1044620.000,676000.000,257000.000,-286000.000,591.582,487.978,-33.186,199.466,-27.404,152.946,-1334.397,-29373.482,-34080.276
1512178953,-1.500,18.400,324.100,49500.000,-300480.000,987850.000,676000.000,257000.000,-286000.000,133.410,-508.930,291.448,108.368,-3.489,196.118,-1075.134,-30123.092,-33820.358
1512178953,-66.400,-5.600,323.200,40650.000,-211980.000,1071780.000,676000.000,257000.000,-286000.000,11.455,-498.418,285.988,45.264,-61.629,319.317,-2763.000,-30238.121,-33506.066
1512178953,-93.300,-28.100,326.800,4460.000,-192990.000,1137760.000,687000.000,278000.000,-289000.000,-204.561,-57.234,380.873,35.926,-52.933,177.786,-3623.627,-29826.912,-33461.044
1512178954,-91.700,-35.700,330.500,2870.000,-273130.000,973820.000,687000.000,278000.000,-289000.000,-372.777,-180.896,393.462,41.024,-13.778,42.787,-4109.894,-29527.641,-33681.770
1512178954,-98.800,-31.600,325.000,55660.000,-252260.000,854920.000,687000.000,278000.000,-289000.000,-363.224,-374.087,321.501,35.929,10.311,22.692,-4634.369,-29378.426,-33977.226
1512178954,-79.000,-20.800,312.500,6470.000,-279480.000,940800.000,687000.000,278000.000,-289000.000,-250.876,-449.442,164.026,31.009,16.400,48.317,-4557.037,-28853.325,-34052.620
1512178954,57.100,13.600,304.700,62620.000,-242490.000,1075620.000,687000.000,278000.000,-289000.000,-100.565,-330.272,-24.208,33.785,-15.288,84.183,-5157.684,-29004.219,-33972.588
1512178954,120.200,32.900,297.700,14890.000,-212040.000,1014220.000,678000.000,290000.000,-267000.000,34.147,-120.416,-166.508,54.590,-53.432,89.612,-4932.678,-29003.883,-33974.510
1512178954,94.700,40.500,290.200,17030.000,-225220.000,1041260.000,678000.000,290000.000,-267000.000,126.316,16.627,-254.246,72.467,-90.802,78.047,-5084.366,-29379.112,-33973.396
1512178954,72.700,46.600,286.600,61520.000,-225160.000,1025270.000,678000.000,290000.000,-267000.000,148.118,75.464,-280.376,83.102,-116.209,57.750,-4857.941,-29078.758,-33825.172
1512178954,94.900,54.500,282.000,14220.000,-241460.000,1017820.000,678000.000,290000.000,-267000.000,77.189,85.970,-245.120,70.431,-128.489,2.036,-4934.586,-29453.880,-33749.718
1512178954,9.600,25.600,275.100,17820.000,-287600.000,1041870.000,678000.000,290000.000,-267000.000,62.532,78.373,-197.388,44.492,-124.073,-58.638,-4332.458,-29002.983,-33529.610
1512178954,-10.100,32.900,269.800,5920.000,-289180.000,961850.000,662000.000,282000.000,-282000.000,63.662,70.906,-201.662,0.489,-111.309,-100.604,-4558.578,-29228.325,-33752.800
1512178954,-16.400,30.400,261.900,-8610.000,-272160.000,997860.000,662000.000,282000.000,-282000.000,43.325,142.552,-258.210,-19.596,-96.630,-142.967,-4332.260,-28927.971,-33829.567
1512178954,11.600,44.600,245.900,9460.000,-259830.000,973750.000,662000.000,282000.000,-282000.000,59.905,307.133,-286.181,-20.869,-88.280,-206.603,-3658.463,-29226.967,-33535.454
1512178954,6.300,38.600,246.500,-53530.000,-232120.000,994020.000,662000.000,282000.000,-282000.000,208.554,458.027,-305.885,-14.057,-69.605,-258.227,-3209.137,-29376.289,-33539.345
1512178954,-11.600,30.900,238.200,-32230.000,-232670.000,985960.000,676000.000,292000.000,-282000.000,463.473,494.869,-377.757,-14.150,-67.322,-271.089,-2834.137,-29375.725,-33542.534
1512178954,9.300,42.100,232.000,-64820.000,-215700.000,974060.000,676000.000,292000.000,-282000.000,575.267,325.325,-441.756,-34.113,-115.550,-208.973,-2160.187,-29674.721,-32948.402
1512178954,83.200,65.400,220.500,-25760.000,-231020.000,1033940.000,676000.000,292000.000,-282000.000,359.420,108.240,-486.148,-54.786,-167.413,-137.242,-1937.057,-30124.382,-32650.536
1512178954,61.700,63.900,210.900,1530.000,-225280.000,985350.000,676000.000,292000.000,-282000.000,-86.187,-123.149,-497.673,-54.438,-198.204,-85.619,-1562.775,-30273.827,-32728.783
1512178954,34.200,57.000,207.100,-6900.000,-272160.000,1017940.000,676000.000,292000.000,-282000.000,-663.558,-119.963,-394.090,-33.398,-183.879,-113.609,-1561.523,-29973.824,-32953.651
1512178954,-6.700,40.700,198.500,-15500.000,-226870.000,917850.000,679000.000,306000.000,-272000.000,-906.947,-80.041,-242.899,-6.394,-132.892,-173.101,-1409.729,-29523.598,-33404.716
1512178954,3.300,46.900,192.400,-22950.000,-195740.000,949950.000,679000.000,306000.000,-272000.000,-699.170,-166.380,-176.226,14.252,70.286,-255.172,-1633.163,-29073.936,-34302.589
1512178954,40.200,51.500,186.300,-63600.000,-172790.000,1054080.000,679000.000,306000.000,-272000.000,-187.908,-332.962,-351.695,0.807,174.022,-142.496,-1480.423,-28473.701,-34228.584
1512178954,50.200,47.800,173.600,-45290.000,-182800.000,1064270.000,679000.000,306000.000,-272000.000,143.383,-397.000,-662.671,-26.581,171.029,52.423,-1556.839,-28773.827,-34378.090
1512178954,25.400,35.400,169.900,-53160.000,-176090.000,1036130.000,679000.000,306000.000,-272000.000,242.610,-176.298,-915.252,-16.977,147.067,210.621,-1407.074,-28848.595,-34154.396
1512178954,49.400,37.200,163.000,-35770.000,-196780.000,1042050.000,658000.000,299000.000,-269000.000,219.780,291.820,-1060.007,-9.107,119.563,280.952,-433.273,-29147.133,-33862.816
1512178954,19.800,26.900,156.300,-38330.000,-206850.000,1060850.000,658000.000,299000.000,-269000.000,249.601,873.164,-1158.826,34.079,139.784,250.758,314.743,-29596.001,-33794.411
1512178954,23.000,21.700,144.500,-26730.000,-164790.000,1007200.000,658000.000,299000.000,-269000.000,360.616,1416.325,-1335.493,103.602,161.084,133.456,1892.258,-29068.642,-33507.561
1512178954,50.300,31.000,138.900,-46510.000,-145260.000,1044980.000,658000.000,299000.000,-269000.000,674.401,1486.467,-1451.168,198.540,161.345,-35.441,4816.597,-29251.754,-33194.999
1512178954,54.300,35.200,134.200,-52190.000,-114930.000,1035770.000,657000.000,322000.000,-270000.000,782.735,968.370,-1354.387,125.603,108.767,144.665,8188.149,-30109.200,-32361.595
1512178954,24.100,13.200,124.000,-104060.000,-150820.000,1028260.000,657000.000,322000.000,-270000.000,214.244,972.291,-1079.041,14.910,-11.083,260.161,10814.438,-29955.262,-31183.838
1512178954,-11.500,1.700,117.600,-92530.000,-176270.000,989380.000,657000.000,322000.000,-270000.000,-630.085,299.561,-496.085,-67.655,-19.249,104.333,13178.024,-29726.715,-31053.810
1512178954,-7.200,2.300,117.700,-53590.000,-171140.000,1004090.000,657000.000,322000.000,-270000.000,-922.433,-505.960,-132.669,-157.640,-37.029,133.924,13295.631,-28489.036,-31991.691
1512178954,-25.400,-3.600,117.200,-92650.000,-181700.000,959530.000,657000.000,322000.000,-270000.000,-651.927,-231.651,188.292,-194.256,-113.341,141.872,12551.049,-27177.650,-32959.702
1512178954,-12.700,9.700,113.500,-96440.000,-190920.000,1042110.000,660000.000,308000.000,-270000.000,-486.755,-125.615,715.024,-190.603,-132.026,-65.252,12140.220,-26728.271,-33668.495
1512178954,-71.800,-2.800,107.500,-43270.000,-221070.000,943480.000,660000.000,308000.000,-270000.000,-402.744,-534.891,1127.380,-148.092,-96.962,-263.458,10640.976,-26505.516,-34143.127
1512178954,-80.400,2.700,104.700,-33330.000,-221070.000,956300.000,660000.000,308000.000,-270000.000,-248.090,-1295.704,1376.431,-37.252,-78.463,-362.751,8129.280,-26246.788,-34871.659
1512178954,-6.100,30.500,100.700,-22580.000,-186580.000,1097230.000,660000.000,308000.000,-270000.000,156.060,-1429.371,1492.693,25.113,-94.169,-161.855,4939.301,-26739.067,-35407.287
1512178954,-46.600,34.400,99.300,-46750.000,-221560.000,905880.000,660000.000,308000.000,-270000.000,582.767,-250.168,1597.323,109.234,-117.059,-121.279,1224.839,-27232.147,-34888.458
1512178954,83.900,45.500,93.200,-52190.000,-226810.000,1061400.000,657000.000,329000.000,-264000.000,89.421,-316.345,1999.844,224.689,-76.636,-319.335,-1890.350,-27874.321,-34487.297
1512178955,2.900,39.900,90.300,-21240.000,-154600.000,991210.000,657000.000,329000.000,-264000.000,-244.775,-932.181,2292.423,255.164,56.097,-295.228,-4701.599,-27578.529,-34650.749
1512178955,53.800,54.300,83.100,-75930.000,-163760.000,1099670.000,657000.000,329000.000,-264000.000,300.040,-776.340,2231.565,217.379,151.753,-154.184,-6275.925,-27430.901,-34637.306
1512178955,71.500,65.000,77.400,-117490.000,-179570.000,1070920.000,657000.000,329000.000,-264000.000,796.436,-634.000,1938.623,164.363,222.643,-44.427,-7850.632,-27433.250,-34023.918
1512178955,18.800,45.300,90.700,-77700.000,-104680.000,919620.000,679000.000,303000.000,-269000.000,696.113,-817.115,1548.486,95.078,276.364,81.090,-9574.783,-27285.835,-33634.193
1512178955,45.300,45.500,76.200,-161130.000,-132810.000,1037780.000,679000.000,303000.000,-269000.000,238.851,-960.844,956.099,54.839,343.899,218.104,-10549.591,-27287.300,-33250.908
1512178955,28.500,41.900,73.800,-93380.000,-95340.000,1041260.000,679000.000,303000.000,-269000.000,38.967,-512.837,40.081,35.519,331.295,311.834,-11375.946,-27588.539,-33244.026
1512178955,56.600,60.100,59.300,-72570.000,-156860.000,1029240.000,679000.000,303000.000,-269000.000,420.389,390.035,-872.328,126.296,216.681,313.367,-10776.810,-27812.645,-32949.242
1512178955,83.600,59.800,51.400,-49620.000,-143860.000,1014710.000,679000.000,303000.000,-269000.000,1019.538,1202.406,-1222.215,223.327,32.727,274.080,-9507.431,-29085.747,-32735.664
1512178955,4.000,43.100,47.400,-38510.000,-164610.000,1011660.000,669000.000,334000.000,-265000.000,1390.840,1654.432,-1025.505,267.199,-79.899,238.020,-7409.103,-29532.600,-32078.712
1512178955,-24.900,44.500,41.300,-34610.000,-203370.000,964900.000,669000.000,334000.000,-265000.000,1368.740,1671.696,-589.748,205.393,-132.285,239.180,-5687.927,-30430.016,-31643.806
1512178955,-40.100,33.300,43.000,-87590.000,-123960.000,997500.000,669000.000,334000.000,-265000.000,897.711,1353.011,-226.689,129.970,-107.592,243.729,-4790.695,-31103.676,-31126.762
1512178955,26.100,59.900,34.400,-93690.000,-104000.000,979490.000,669000.000,334000.000,-265000.000,185.814,857.976,-6.326,62.718,-81.871,195.780,-4117.767,-31552.650,-31207.710
1512178955,66.200,70.200,37.600,-119380.000,-106690.000,1013550.000,683000.000,317000.000,-286000.000,-428.126,243.579,151.079,39.569,-43.618,101.995,-4043.549,-31702.553,-31433.418
1512178955,66.300,72.600,35.300,-103700.000,-110600.000,1011170.000,683000.000,317000.000,-286000.000,-678.023,-218.522,285.508,6.736,-24.511,85.632,-4489.914,-30878.212,-31579.216
1512178955,-0.900,48.600,27.800,-49870.000,-171390.000,872250.000,683000.000,317000.000,-286000.000,-564.077,-239.853,356.378,-7.170,-8.793,86.238,-4711.685,-30128.548,-31876.961
1512178955,89.500,53.100,22.500,-89420.000,-205510.000,1273440.000,683000.000,317000.000,-286000.000,-223.919,-28.910,360.973,-24.886,-3.653,89.032,-5086.136,-29979.118,-32098.686
1512178955,263.100,109.700,16.500,-101500.000,-129940.000,977420.000,683000.000,317000.000,-286000.000,68.331,173.550,296.615,-18.063,-12.710,53.645,-5161.285,-29979.225,-32398.048
1512178955,534.800,150.700,5.500,57370.000,-91980.000,1272160.000,667000.000,336000.000,-274000.000,154.495,93.685,240.022,3.173,-45.425,24.342,-5537.521,-30279.793,-32170.006
1512178955,-36.400,6.700,25.800,-151120.000,-142090.000,706850.000,667000.000,336000.000,-274000.000,78.223,-187.413,261.391,13.548,-82.201,21.844,-5312.103,-30204.445,-32021.873
1512178955,-151.000,-27.800,11.500,-13120.000,-198850.000,709840.000,667000.000,336000.000,-274000.000,-55.085,-460.113,316.079,-3.160,-98.293,15.888,-5912.857,-30355.354,-32166.847
1512178955,-151.400,-26.400,13.200,-174680.000,-179870.000,962890.000,667000.000,336000.000,-274000.000,-206.576,-632.323,314.350,-25.802,-87.921,-9.008,-6586.548,-30056.358,-32235.970
1512178955,-102.900,-20.600,2.700,-92900.000,-195190.000,1178710.000,667000.000,336000.000,-274000.000,-245.919,-636.515,243.406,-39.645,-78.214,-39.045,-7185.196,-29757.256,-32230.736
1512178955,62.900,14.000,9.200,-127320.000,-152220.000,999210.000,665000.000,324000.000,-275000.000,-164.453,-482.407,158.770,-56.047,-58.270,-76.213,-7632.416,-29157.921,-32076.637
1512178955,19.600,7.100,-1.200,-40040.000,-100160.000,955320.000,665000.000,324000.000,-275000.000,-12.124,-216.917,-15.065,-83.314,-39.141,-96.567,-8084.183,-29533.607,-32222.984
1512178955,37.700,14.600,-2.500,-78120.000,-131410.000,964050.000,665000.000,324000.000,-275000.000,-8.926,111.228,-386.463,-80.468,-69.613,-91.077,-7822.380,-29683.213,-32262.780
1512178955,-20.000,-15.400,-3.700,-77580.000,-115840.000,1057010.000,665000.000,324000.000,-275000.000,-495.006,537.791,-400.550,-31.704,-103.871,-223.905,-6734.703,-29606.582,-32609.489
1512178955,70.700,-1.500,8.100,-120850.000,-43400.000,1049990.000,672000.000,327000.000,-296000.000,-775.683,338.343,-229.943,-29.562,69.020,-312.175,-5719.956,-29005.059,-33517.815
1512178955,9.300,-20.500,-7.900,-96130.000,-132690.000,1069820.000,672000.000,327000.000,-296000.000,-949.241,-446.693,-410.022,-33.674,243.981,-285.876,-5340.508,-27916.993,-34420.494
1512178955,54.600,-0.800,-8.100,-69340.000,-176820.000,1024960.000,672000.000,327000.000,-296000.000,41.935,-704.551,-1054.320,-45.102,205.892,158.703,-5786.591,-26980.156,-35016.235
1512178955,61.400,-1.500,-14.800,-83310.000,-136960.000,1035100.000,672000.000,327000.000,-296000.000,390.291,441.187,-1370.964,-29.669,11.960,408.011,-4740.044,-27803.589,-34500.541
1512178955,26.900,-11.600,-19.300,-33940.000,-120730.000,997920.000,672000.000,327000.000,-296000.000,118.695,1217.674,-992.681,34.164,-70.870,121.601,-2192.016,-28249.764,-34447.426
1512178955,17.300,-17.600,-26.500,-91310.000,-203370.000,981380.000,669000.000,310000.000,-296000.000,-152.955,393.916,-300.679,-7.526,-29.534,-80.334,170.562,-28208.733,-34654.984
1512178955,-14.500,-31.000,-23.700,-119380.000,-140440.000,1032590.000,669000.000,310000.000,-296000.000,-151.739,-180.805,-14.827,-84.018,23.427,14.043,208.344,-28133.675,-34767.769
1512178955,49.000,28.400,-26.200,-67080.000,-143070.000,888120.000,669000.000,310000.000,-296000.000,83.963,-2.126,19.591,-81.325,12.451,66.508,321.296,-28020.996,-34881.173
1512178955,170.600,40.300,-23.400,-87340.000,-43950.000,1078670.000,669000.000,310000.000,-296000.000,212.135,-89.680,96.831,-23.208,-32.628,59.785,321.685,-27945.999,-34768.638
1512178955,49.800,19.200,-38.900,8670.000,-71720.000,969420.000,669000.000,310000.000,-296000.000,354.334,-194.337,196.608,-17.714,-53.994,119.800,-169.075,-28696.731,-34539.840
1512178955,163.000,28.800,-24.200,-202150.000,-68970.000,1089110.000,672000.000,317000.000,-289000.000,281.538,-181.795,280.349,-36.756,-90.053,80.466,-619.209,-28772.408,-34123.558
1512178956,108.100,12.300,-30.500,-48520.000,-4700.000,885310.000,672000.000,317000.000,-289000.000,169.442,-171.430,355.518,-50.124,-86.835,-5.231,-808.044,-29072.701,-34084.602
1512178956,30.400,-0.100,-34.400,-160950.000,-95210.000,873600.000,672000.000,317000.000,-289000.000,186.013,-136.222,385.726,-67.490,-76.282,-52.541,-1334.290,-29373.482,-33855.278
1512178956,3.500,-38.500,-33.300,-125310.000,-125240.000,1024900.000,672000.000,317000.000,-289000.000,176.629,-57.169,377.339,-74.773,-56.764,-94.092,-1935.257,-29599.388,-33775.276
1512178956,32.500,-11.100,-35.000,-54810.000,-104740.000,889280.000,665000.000,317000.000,-282000.000,152.522,5.865,355.890,-68.525,-27.916,-139.126,-2157.516,-28999.718,-33698.097
1512178956,30.000,-11.300,-36.900,-102540.000,-158450.000,999880.000,665000.000,317000.000,-282000.000,143.924,39.083,297.248,-53.646,12.784,-173.299,-2159.286,-29374.718,-33848.259
1512178956,57.000,-13.800,-39.400,-89900.000,-108150.000,1006710.000,665000.000,317000.000,-282000.000,183.698,25.422,211.424,-44.270,24.501,-196.902,-2386.154,-29825.066,-33546.562
1512178956,0.300,-22.200,-41.900,-69090.000,-127810.000,946470.000,665000.000,317000.000,-282000.000,263.238,-30.858,104.710,-40.662,16.677,-138.438,-2459.625,-29525.169,-33170.784
1512178956,-16.400,-26.800,-39.100,-65610.000,-134580.000,897030.000,665000.000,317000.000,-282000.000,309.542,29.210,14.975,-39.097,-19.590,-30.900,-2609.314,-29450.386,-33244.484
1512178956,-5.700,-38.300,-33.600,-63660.000,-86910.000,1053280.000,669000.000,306000.000,-275000.000,217.169,234.183,1.554,-14.131,-55.332,41.129,-1935.928,-29824.379,-33100.395
1512178956,30.800,-28.900,-32.000,-23560.000,-87770.000,1019900.000,669000.000,306000.000,-275000.000,-181.319,424.537,127.570,12.307,-80.477,27.011,-2011.353,-29899.498,-33249.794
1512178956,25.600,-45.900,-34.900,-31740.000,-75810.000,987180.000,669000.000,306000.000,-275000.000,-832.089,545.807,421.326,81.442,-16.236,-159.339,-1935.104,-29599.388,-33475.288
1512178956,1.600,-61.000,-43.700,8610.000,-81180.000,1001460.000,669000.000,306000.000,-275000.000,-1042.697,241.562,700.786,125.141,99.750,-317.322,-2234.848,-29449.837,-34297.661
1512178956,10.300,-62.900,-47.700,-80810.000,-86980.000,993160.000,669000.000,306000.000,-275000.000,-661.136,-254.785,811.193,129.605,228.114,-318.732,-2831.329,-28625.725,-34667.183
1512178956,33.600,-46.600,-49.000,-66710.000,-44680.000,959720.000,657000.000,312000.000,-291000.000,-8.977,-624.063,615.742,97.814,292.304,-120.439,-3505.356,-28401.741,-34736.336
1512178956,30.100,-41.300,-53.700,-89900.000,-55660.000,964360.000,657000.000,312000.000,-291000.000,325.879,-632.515,284.754,54.185,222.573,97.162,-4180.908,-28552.757,-34505.669
1512178956,15.700,-43.000,-59.500,-82950.000,-65730.000,976070.000,657000.000,312000.000,-291000.000,485.687,-308.137,48.336,75.519,149.669,253.460,-4555.542,-28478.310,-34427.452
1512178956,50.500,-28.500,-65.800,-12700.000,-52430.000,949650.000,657000.000,312000.000,-291000.000,496.841,229.319,-19.993,115.128,78.721,270.459,-4409.058,-29303.093,-34054.100
1512178956,-12.100,-40.700,-67.500,-77940.000,-84470.000,925420.000,667000.000,315000.000,-277000.000,412.495,536.659,67.271,164.939,50.871,197.570,-4184.250,-29377.754,-33756.050
1512178956,-24.600,-49.100,-68.300,-65550.000,-62560.000,923160.000,667000.000,315000.000,-277000.000,321.796,585.260,268.677,188.543,30.622,105.071,-3809.174,-29377.190,-33609.245
1512178956,2.900,-30.100,-74.700,-59690.000,-6040.000,969970.000,667000.000,315000.000,-277000.000,231.596,339.001,490.387,167.063,27.421,40.059,-4110.229,-29602.638,-33681.801
1512178956,15.000,-22.100,-76.600,-50230.000,-28560.000,995240.000,667000.000,315000.000,-277000.000,99.077,-93.011,618.087,132.954,33.377,53.851,-4261.047,-29827.873,-33305.626
1512178956,5.900,-21.300,-79.900,-55420.000,-42720.000,942570.000,667000.000,315000.000,-277000.000,-22.927,-402.998,632.301,85.219,30.418,142.269,-4561.127,-29828.316,-33453.072
1512178956,-9.500,-31.200,-79.500,-61710.000,-13850.000,1031490.000,665000.000,310000.000,-289000.000,-91.199,-383.759,570.610,58.828,14.612,220.913,-5309.448,-29454.445,-33446.526
1512178956,9.300,-26.000,-84.300,-25820.000,-21910.000,1016910.000,665000.000,310000.000,-289000.000,-106.994,-121.945,507.331,48.496,-3.539,231.095,-5760.574,-29680.122,-33667.809
1512178956,17.800,-20.800,-88.400,-24480.000,-33810.000,1013310.000,665000.000,310000.000,-289000.000,-101.932,130.227,470.968,58.361,-21.187,168.155,-6209.259,-29380.791,-33738.838
1512178956,58.900,-5.600,-91.500,-20750.000,-19590.000,1021970.000,665000.000,310000.000,-289000.000,-102.915,197.524,469.055,63.774,-34.068,93.510,-6433.090,-29156.136,-33436.836
1512178956,-11.300,-27.600,-100.900,-35100.000,-25330.000,1035100.000,674000.000,308000.000,-291000.000,-193.907,17.435,451.656,66.198,-32.856,39.584,-6657.737,-29043.968,-33734.863
1512178956,-62.600,-46.100,-99.200,-34300.000,-25270.000,1006710.000,674000.000,308000.000,-291000.000,-162.183,-103.523,331.762,44.478,-48.676,22.220,-7368.485,-28632.530,-33916.115
1512178956,-41.700,-39.000,-102.900,-58900.000,7450.000,1008790.000,674000.000,308000.000,-291000.000,51.926,-0.765,120.945,23.634,-74.963,42.529,-7856.529,-28745.766,-33987.022
1512178956,-51.700,-33.400,-109.100,-19590.000,-25150.000,985960.000,674000.000,308000.000,-291000.000,96.350,87.168,-14.558,1.713,-104.096,-10.787,-7743.088,-28520.592,-34137.878
1512178956,-42.900,-35.200,-108.500,-73180.000,-21970.000,955140.000,674000.000,308000.000,-291000.000,25.294,65.863,-103.617,-18.590,-106.274,-106.006,-7594.681,-28895.370,-33951.820
1512178956,-56.100,-45.800,-113.200,-28380.000,28810.000,971190.000,687000.000,296000.000,-292000.000,87.880,17.387,-119.403,-38.608,-71.437,-189.226,-7407.608,-28970.092,-34140.953
1512178956,-136.500,-69.500,-121.700,-75200.000,18490.000,864620.000,687000.000,296000.000,-292000.000,264.135,-112.888,-276.678,-81.658,-80.271,-141.526,-7145.988,-29194.702,-33880.783
1512178956,-53.700,-46.300,-120.000,-85140.000,-13920.000,997440.000,687000.000,296000.000,-292000.000,-10.035,-86.969,-360.513,-135.335,-142.049,-54.087,-7146.850,-29419.701,-33580.902
1512178956,29.000,-18.200,-137.400,-45040.000,41320.000,933350.000,687000.000,296000.000,-292000.000,-564.559,92.418,-211.211,-92.717,-21.746,-203.083,-6696.251,-29269.020,-33734.650
1512178956,59.000,-16.500,-140.700,-16970.000,29480.000,1026790.000,687000.000,296000.000,-292000.000,-127.646,-86.783,-274.800,-81.959,220.935,-177.982,-6432.609,-28931.130,-34486.717
1512178956,4.400,-41.700,-136.100,-60420.000,-6590.000,985290.000,671000.000,290000.000,-280000.000,425.155,-352.812,-905.220,-103.515,200.355,99.950,-6136.658,-29830.696,-34489.693
1512178956,-92.700,-73.500,-143.900,-40650.000,4030.000,969540.000,671000.000,290000.000,-280000.000,313.219,284.926,-1003.232,-105.592,19.519,317.319,-4599.151,-29903.381,-33827.781
1512178957,-6.400,-46.100,-142.100,-53040.000,24540.000,968750.000,671000.000,290000.000,-280000.000,-156.419,654.988,-788.073,-68.482,27.238,117.621,-3063.263,-30276.070,-33691.032
1512178957,-84.400,-65.200,-142.700,-45040.000,-18620.000,980290.000,671000.000,290000.000,-280000.000,-355.456,443.918,-624.323,-42.386,70.340,-34.642,-2612.503,-30050.392,-34219.749
1512178957,-37.300,-51.300,-144.500,12210.000,-8730.000,1099430.000,672000.000,285000.000,-279000.000,-370.300,68.624,-453.140,-30.604,91.478,-112.644,-1935.410,-29599.388,-34075.279
1512178957,19.000,-18.400,-145.700,6960.000,57070.000,1062620.000,672000.000,285000.000,-279000.000,-171.300,-293.456,-320.392,-55.861,118.385,-62.720,-2159.576,-29374.718,-34448.265
1512178957,13.600,-18.400,-142.900,-23620.000,-52060.000,1016480.000,672000.000,285000.000,-279000.000,20.347,-378.636,-309.382,-105.851,119.293,81.307,-2083.954,-29224.617,-34523.827
1512178957,-134.600,-40.200,-150.500,-26490.000,-27650.000,993770.000,672000.000,285000.000,-279000.000,10.763,-199.079,-365.395,-126.312,94.077,173.233,-2161.194,-29749.718,-34298.439
1512178957,-74.600,-11.100,-154.600,-44010.000,-7450.000,1098270.000,672000.000,285000.000,-279000.000,-24.338,15.689,-424.858,-116.054,66.687,175.786,-2161.240,-29749.718,-34373.436
1512178957,-83.800,3.100,-161.800,240.000,-22090.000,973750.000,678000.000,283000.000,-250000.000,-31.398,102.243,-444.913,-81.788,44.127,135.162,-2013.748,-30274.498,-34674.950
1512178957,-70.400,6.800,-157.500,-44070.000,46750.000,1064090.000,678000.000,283000.000,-250000.000,-67.016,30.571,-422.227,-50.427,26.127,108.674,-1259.476,-29373.375,-34230.919
1512178957,-32.100,9.900,-168.700,-7510.000,54930.000,980710.000,678000.000,283000.000,-250000.000,-71.131,-37.905,-370.289,-35.406,5.152,79.481,-958.939,-29222.923,-34533.394
1512178957,23.400,18.400,-170.600,-52310.000,91000.000,996640.000,678000.000,283000.000,-250000.000,-0.803,-106.284,-306.609,-32.063,-16.813,73.930,-958.572,-29147.926,-34458.351
1512178957,-1.500,2.900,-175.900,-67750.000,94120.000,974610.000,678000.000,283000.000,-250000.000,66.577,-123.376,-256.656,-41.904,-36.171,89.466,-961.639,-29822.929,-34533.669
1512178957,71.900,13.800,-175.100,-81850.000,72390.000,1020940.000,672000.000,303000.000,-258000.000,72.470,-81.767,-223.375,-47.600,-51.749,78.229,-734.619,-29372.581,-34535.378
1512178957,-3.200,8.100,-182.200,-38150.000,6230.000,886170.000,672000.000,303000.000,-258000.000,41.872,-34.907,-175.683,-58.923,-61.111,38.047,-360.596,-29597.023,-34463.661
1512178957,15.700,12.800,-188.200,-39000.000,55240.000,1024720.000,672000.000,303000.000,-258000.000,18.745,-10.468,-130.094,-68.262,-45.902,-41.102,-510.590,-29597.252,-34462.395
1512178957,-10.700,4.500,-190.100,-8670.000,18920.000,1022640.000,672000.000,303000.000,-258000.000,38.790,-33.958,-118.157,-64.670,-18.987,-108.440,-433.792,-29222.130,-34237.846
1512178957,56.100,11.200,-183.100,-51640.000,45650.000,1072450.000,671000.000,312000.000,-277000.000,128.499,-48.755,-128.636,-59.569,-4.624,-138.631,-661.942,-29897.484,-34461.250
1512178957,-10.400,7.100,-199.100,-16480.000,-28260.000,964540.000,671000.000,312000.000,-277000.000,214.745,18.657,-118.621,-49.860,-6.085,-147.419,-513.474,-30272.255,-34162.697
1512178957,-58.100,-5.100,-195.300,-29300.000,-35830.000,969300.000,671000.000,312000.000,-277000.000,205.389,46.311,-67.492,-41.560,-9.556,-175.281,-511.749,-29897.255,-34087.532
1512178957,-55.800,-4.900,-191.700,-1590.000,-4640.000,1009220.000,671000.000,312000.000,-277000.000,163.055,-17.930,-24.620,-43.514,13.199,-185.028,-290.283,-30646.919,-34389.793
1512178957,-115.300,-21.800,-183.500,-37230.000,14220.000,998540.000,671000.000,312000.000,-277000.000,180.402,-84.093,-45.922,-52.675,9.882,-149.254,-287.277,-30046.913,-33789.513
1512178957,-96.800,-35.400,-187.600,2380.000,6100.000,1044190.000,679000.000,306000.000,-282000.000,225.096,-48.659,-103.784,-48.866,-14.004,-74.279,-288.284,-30271.904,-33789.619
1512178957,-8.900,-18.600,-191.200,-11720.000,-16910.000,1081120.000,679000.000,306000.000,-282000.000,171.544,147.897,-142.248,-42.272,-75.413,-4.467,-366.257,-30947.029,-33639.290
1512178957,-49.500,-34.100,-194.000,7200.000,-49680.000,1039730.000,679000.000,306000.000,-282000.000,-182.898,361.848,-36.837,17.148,-99.743,-37.160,-65.659,-30796.577,-33791.771
1512178957,-56.300,-40.500,-196.500,18680.000,-31310.000,996520.000,679000.000,306000.000,-282000.000,-729.165,391.294,314.611,77.002,-97.912,-239.113,310.654,-30496.010,-33869.820
1512178957,-4.900,-27.800,-199.500,-18010.000,-26310.000,1012210.000,664000.000,290000.000,-274000.000,-873.306,-25.083,630.891,104.120,46.141,-351.343,164.078,-29671.227,-34468.163
1512178957,30.600,0.400,-201.300,20020.000,8970.000,991640.000,664000.000,290000.000,-274000.000,-238.757,-513.611,495.534,52.905,232.483,-214.261,-621.612,-29222.412,-34873.764
1512178957,-24.600,-5.300,-207.900,-9460.000,52730.000,898010.000,664000.000,290000.000,-274000.000,615.190,-387.874,-308.791,40.284,180.812,161.706,-1674.072,-29786.491,-34715.096
1512178957,0.500,17.800,-215.200,4700.000,41630.000,905270.000,664000.000,290000.000,-274000.000,687.426,448.844,-414.103,115.276,27.019,237.811,-1038.895,-30423.035,-33633.316
1512178957,42.900,33.600,-212.100,-27710.000,96070.000,1014890.000,664000.000,290000.000,-274000.000,126.474,284.589,107.562,132.211,25.250,45.612,-292.640,-31284.416,-33377.586
1512178957,14.200,29.600,-204.800,-88200.000,76840.000,958860.000,676000.000,275000.000,-292000.000,-200.752,-477.561,390.671,40.041,92.589,15.406,-593.186,-31397.369,-33450.088
1512178957,33.300,31.600,-223.300,-24170.000,74770.000,878780.000,676000.000,275000.000,-292000.000,-46.282,-538.775,135.776,-29.940,106.092,138.128,-1791.580,-31024.162,-33589.714
1512178957,10.500,23.600,-211.100,-75440.000,112120.000,1017270.000,676000.000,275000.000,-292000.000,139.634,-17.237,-123.568,-22.061,51.748,166.690,-2278.687,-30912.400,-33810.517
1512178957,15.300,22.500,-221.200,-39060.000,48770.000,967470.000,676000.000,275000.000,-292000.000,6.059,-41.315,-201.807,-19.432,20.354,94.678,-1905.159,-31286.835,-33401.382
1512178957,55.000,20.200,-218.100,-63900.000,82400.000,1042480.000,676000.000,275000.000,-292000.000,-260.909,-286.591,-348.316,-44.796,17.442,85.043,-1980.820,-31399.452,-33700.798
1512178957,-18.900,1.600,-219.000,-76780.000,56820.000,1129520.000,676000.000,275000.000,-302000.000,-268.181,-101.284,-608.959,-47.873,16.161,38.672,-1639.435,-30498.940,-34040.741
1512178957,28.400,18.500,-227.800,-13850.000,13850.000,1059390.000,676000.000,275000.000,-302000.000,-43.010,-31.039,-845.849,-3.729,-16.575,-17.064,-1002.052,-30497.986,-34271.164
1512178957,35.000,16.500,-227.700,-19410.000,76350.000,1004880.000,676000.000,275000.000,-302000.000,-52.250,-154.912,-873.600,19.266,-55.637,-14.543,723.686,-30345.390,-34173.256
1512178958,46.600,25.300,-237.400,-31620.000,42540.000,1089840.000,676000.000,275000.000,-302000.000,-87.499,-261.374,-809.448,22.378,-47.408,-36.644,1436.752,-30194.328,-34404.243
1512178958,80.200,27.600,-241.100,-14590.000,98940.000,1040340.000,674000.000,273000.000,-308000.000,-46.157,-294.452,-797.239,8.649,-27.306,-42.750,1285.995,-30344.551,-34553.032
1512178958,56.200,27.300,-237.800,-57800.000,127500.000,1030700.000,674000.000,273000.000,-308000.000,34.541,-272.874,-840.768,-6.885,-8.176,-52.108,1886.078,-30343.651,-34408.134
1512178958,89.700,38.300,-251.500,-75260.000,135190.000,1029240.000,674000.000,273000.000,-308000.000,100.337,-273.753,-887.792,-12.368,-7.377,-71.886,2185.898,-30418.205,-34110.710
1512178958,19.200,34.400,-266.600,-41200.000,89780.000,972050.000,674000.000,273000.000,-308000.000,128.185,-349.529,-899.379,-13.025,0.785,-94.783,2335.709,-30417.976,-34486.992
1512178958,93.900,51.100,-267.500,-51090.000,82580.000,1066530.000,674000.000,273000.000,-308000.000,163.410,-460.554,-907.784,-25.395,3.747,-84.153,2710.968,-30417.412,-33965.172
1512178958,31.700,30.500,-269.500,-67810.000,85630.000,1044860.000,660000.000,259000.000,-297000.000,157.263,-536.366,-926.258,-55.515,0.970,-43.768,3085.632,-30491.844,-33968.407
1512178958,-12.500,35.200,-274.800,2080.000,36500.000,1003420.000,660000.000,259000.000,-297000.000,41.926,-548.188,-979.141,-88.229,-3.144,-15.586,2858.871,-30867.195,-34116.661
1512178958,-38.500,29.700,-289.600,-3480.000,78550.000,971980.000,660000.000,259000.000,-297000.000,-83.321,-520.417,-1075.739,-111.352,-14.272,0.216,3537.949,-29966.179,-34046.989
1512178958,23.000,38.600,-279.500,-80870.000,97050.000,1081910.000,660000.000,259000.000,-297000.000,-259.657,-432.897,-1173.933,-114.683,-24.981,24.973,4062.576,-30040.382,-34126.472
1512178958,0.900,50.300,-295.300,-56580.000,74220.000,919800.000,660000.000,259000.000,-297000.000,-568.961,-141.673,-1215.781,-79.720,-9.626,-41.067,4513.702,-29739.708,-34580.177
1512178958,-41.500,52.100,-284.000,18430.000,36560.000,890870.000,658000.000,253000.000,-313000.000,-714.605,39.607,-1166.087,-22.732,28.774,-211.115,5041.260,-29138.924,-34884.346
1512178958,-26.500,37.300,-280.400,-118770.000,103760.000,1046390.000,658000.000,253000.000,-313000.000,-580.437,-14.809,-1095.039,-8.892,78.345,-268.200,5867.874,-28762.688,-35041.191
1512178958,-26.900,56.600,-309.700,-22160.000,104680.000,944760.000,658000.000,253000.000,-313000.000,-341.171,-176.739,-1131.581,21.994,164.868,-243.688,6320.343,-28161.995,-35494.743
1512178958,-40.900,57.800,-291.200,-31430.000,106380.000,922910.000,658000.000,253000.000,-313000.000,-169.965,-315.125,-1241.518,18.545,170.705,-156.658,6469.223,-28386.772,-35721.107
1512178958,-59.900,43.300,-285.900,-108340.000,139710.000,981870.000,650000.000,237000.000,-311000.000,24.460,-397.965,-1334.936,33.762,139.435,-43.071,7296.661,-27860.542,-35577.888
1512178958,-11.200,52.500,-300.300,-26120.000,100520.000,1006530.000,650000.000,237000.000,-311000.000,280.082,-354.749,-1383.318,33.895,96.636,104.465,7971.939,-27784.523,-35733.589
1512178958,52.900,79.200,-289.900,-47120.000,57860.000,1039430.000,650000.000,237000.000,-311000.000,505.127,-155.728,-1380.432,21.634,34.012,220.063,8495.392,-28158.745,-35438.225
1512178958,40.100,75.600,-289.900,-30940.000,41020.000,939510.000,650000.000,237000.000,-311000.000,521.972,188.071,-1286.245,-1.222,-34.638,271.753,9320.587,-28157.494,-35070.244
1512178958,-14.000,63.400,-290.700,-9640.000,35030.000,998050.000,650000.000,237000.000,-311000.000,295.220,423.430,-1100.019,-9.661,-73.874,216.841,9995.697,-28156.487,-34850.975
1512178958,-10.000,51.400,-283.400,-35220.000,26310.000,994380.000,637000.000,239000.000,-309000.000,-25.260,431.027,-864.770,-11.076,-59.670,92.880,10972.168,-27855.019,-34634.132
1512178958,-88.600,28.200,-289.100,-65310.000,44370.000,915710.000,637000.000,239000.000,-309000.000,-189.452,272.183,-612.914,-10.616,-30.589,-30.617,11723.816,-27478.889,-34715.324
1512178958,-31.300,20.100,-294.900,-104370.000,110050.000,1047970.000,637000.000,239000.000,-309000.000,-212.231,82.537,-339.927,-23.612,3.250,-108.076,11948.669,-27478.554,-35017.235
1512178958,26.000,41.100,-294.800,-52490.000,53160.000,1030270.000,637000.000,239000.000,-309000.000,-147.926,-118.634,-111.557,-54.165,64.263,-146.334,12098.282,-27553.337,-35093.544
1512178958,89.100,45.700,-288.800,-63110.000,110350.000,1112610.000,637000.000,239000.000,-309000.000,-11.817,-254.248,-33.304,-85.116,118.111,-121.885,12097.610,-27703.331,-35093.620
1512178958,21.200,5.600,-283.500,-127140.000,145510.000,1080690.000,641000.000,218000.000,-309000.000,200.910,-315.798,-70.944,-97.865,134.326,-46.183,11573.959,-27404.121,-35089.012
1512178958,92.300,34.800,-294.700,-4880.000,61520.000,1072630.000,641000.000,218000.000,-309000.000,385.535,-248.140,-112.276,-90.596,89.106,106.839,11423.889,-27441.849,-34900.261
1512178958,43.900,19.800,-277.800,-45780.000,56340.000,1131590.000,641000.000,218000.000,-309000.000,208.237,-147.705,10.235,-58.457,23.461,158.089,11609.154,-27966.568,-34639.588
1512178958,-41.000,-6.000,-280.300,-83620.000,52670.000,965450.000,641000.000,218000.000,-309000.000,-28.230,-148.959,192.300,-43.128,26.460,113.831,11194.687,-28379.692,-34861.283
1512178958,-58.200,-4.700,-281.800,-16170.000,122500.000,901670.000,637000.000,232000.000,-309000.000,-126.997,-132.172,266.614,-33.047,32.371,51.081,10784.325,-27892.799,-34970.047
1512178958,-20.400,13.000,-275.000,-59270.000,90580.000,1010740.000,637000.000,232000.000,-309000.000,-209.532,-156.447,325.034,-31.707,31.688,9.123,10070.252,-28231.377,-35076.652
1512178958,14.200,16.800,-284.600,-27470.000,37230.000,1059940.000,637000.000,232000.000,-309000.000,-214.925,-41.042,302.438,-36.433,48.003,-43.294,9847.107,-27781.708,-35412.025
1512178958,76.700,40.500,-277.500,-1770.000,88010.000,1014770.000,637000.000,232000.000,-309000.000,-21.981,32.672,177.564,-21.759,37.690,-58.973,9397.705,-27632.386,-35558.128
1512178958,66.000,25.200,-268.600,-85020.000,48710.000,966430.000,637000.000,232000.000,-309000.000,94.820,195.334,116.390,-4.341,-16.326,2.906,9170.524,-28120.224,-35518.944
1512178958,-34.400,-4.500,-273.000,-15750.000,43820.000,918520.000,629000.000,220000.000,-308000.000,122.554,357.666,155.735,6.756,-37.035,-48.488,9471.504,-27932.274,-35258.911
1512178958,-65.000,-7.100,-271.600,-14650.000,19840.000,1035100.000,629000.000,220000.000,-308000.000,315.422,387.327,162.899,-8.440,-67.067,-30.000,9844.650,-28381.714,-34924.804
1512178958,26.100,16.500,-272.400,-64880.000,60850.000,964360.000,629000.000,220000.000,-308000.000,258.319,714.878,311.924,8.324,-142.178,-4.924,10067.383,-28943.878,-34401.969
1512178958,8.500,7.900,-276.700,-59140.000,56580.000,1053530.000,629000.000,220000.000,-308000.000,-544.740,668.610,943.496,55.884,-110.245,-203.895,10554.603,-29055.656,-33956.177
1512178959,59.400,17.200,-279.500,-30330.000,55300.000,1032710.000,629000.000,220000.000,-308000.000,-932.389,114.370,1377.835,37.671,51.556,-365.828,9244.385,-28457.619,-34769.737
1512178959,94.000,22.600,-279.800,-87460.000,87520.000,1072020.000,625000.000,209000.000,-294000.000,-721.189,-244.173,1352.996,10.142,181.519,-326.169,8646.408,-27933.510,-35439.400
1512178959,151.000,18.500,-271.100,-53340.000,114380.000,1051330.000,625000.000,209000.000,-294000.000,-358.871,-461.019,1092.041,-10.877,238.210,-195.874,7520.309,-28160.194,-35579.933
1512178959,61.100,1.200,-262.600,-73000.000,62500.000,934330.000,625000.000,209000.000,-294000.000,-9.204,-441.687,769.895,-8.622,219.761,-20.878,6994.675,-28310.997,-35500.542
1512178959,58.300,-7.100,-247.100,-49190.000,64090.000,1020260.000,625000.000,209000.000,-294000.000,321.053,-153.384,537.949,24.514,189.960,116.726,6694.412,-28386.436,-35348.030
1512178959,-53.000,-31.600,-249.000,-14770.000,61830.000,888850.000,625000.000,199000.000,-304000.000,634.705,254.326,414.920,52.565,160.990,197.608,6466.415,-29061.775,-35271.431
1512178959,-70.000,-43.500,-242.200,-3170.000,38940.000,971980.000,625000.000,199000.000,-304000.000,788.173,561.228,368.107,64.991,133.017,212.816,6538.712,-29736.671,-34597.389
1512178959,-23.000,-27.200,-233.300,-30270.000,69210.000,1083310.000,625000.000,199000.000,-304000.000,714.558,636.940,374.765,71.289,110.272,216.442,6759.811,-30636.345,-34299.706
1512178959,93.200,4.700,-236.400,6590.000,59570.000,1084050.000,625000.000,199000.000,-304000.000,436.092,624.612,452.775,73.401,83.786,202.487,6913.193,-29961.113,-33625.679
1512178959,90.300,-2.400,-231.200,-39790.000,43270.000,1036440.000,625000.000,199000.000,-304000.000,41.135,567.085,611.027,72.943,70.671,131.446,6910.156,-30636.116,-33625.984
1512178959,-2.900,-22.800,-228.000,-43270.000,64760.000,944460.000,627000.000,197000.000,-296000.000,-297.474,368.630,770.668,62.438,97.893,26.904,6685.486,-30561.455,-33624.046
1512178959,9.700,-13.200,-227.000,-83980.000,111510.000,960330.000,627000.000,197000.000,-296000.000,-521.875,75.442,853.816,31.161,131.077,-38.795,6386.688,-30261.894,-33921.349
1512178959,49.700,9.100,-225.800,-29970.000,52310.000,977970.000,627000.000,197000.000,-296000.000,-658.048,-152.238,825.465,-14.527,157.264,-54.205,5711.945,-30187.904,-34065.575
1512178959,80.700,22.800,-218.200,-34000.000,65800.000,1000060.000,627000.000,197000.000,-296000.000,-638.086,-209.538,646.457,-34.416,187.512,-51.326,5339.493,-29588.478,-34362.114
1512178959,90.800,25.800,-218.800,-7870.000,39250.000,1030460.000,627000.000,197000.000,-296000.000,-514.256,-126.573,382.026,-45.410,176.761,-46.207,4666.229,-29139.488,-34956.169
1512178959,-19.200,-17.600,-211.200,7080.000,3050.000,975460.000,606000.000,186000.000,-316000.000,-253.711,50.623,106.043,-26.822,145.897,-25.982,4667.801,-28764.488,-35180.992
1512178959,140.700,25.600,-201.500,-7200.000,122800.000,1046570.000,606000.000,186000.000,-316000.000,66.560,274.779,-104.948,-3.054,89.945,17.112,4818.130,-28689.262,-35182.228
1512178959,-121.600,-49.700,-199.500,-18310.000,40340.000,828310.000,606000.000,186000.000,-316000.000,229.607,409.860,-223.645,17.162,31.677,50.503,4816.483,-29064.262,-35107.399
1512178959,-146.900,-39.800,-195.500,-13790.000,58170.000,926760.000,606000.000,186000.000,-316000.000,188.353,401.291,-243.461,34.109,-13.647,55.236,5267.990,-28763.588,-34811.089
1512178959,-10.500,12.800,-200.300,-52800.000,94300.000,948790.000,625000.000,178000.000,-308000.000,61.259,254.609,-172.257,34.125,-38.336,43.402,5641.342,-29138.023,-34739.449
1512178959,43.700,44.900,-194.500,-15560.000,97110.000,884220.000,625000.000,178000.000,-308000.000,-99.164,3.176,-88.036,22.832,-32.036,40.726,5863.937,-29662.682,-34816.612
1512178959,42.100,27.400,-183.000,-104920.000,55300.000,1082150.000,625000.000,178000.000,-308000.000,-247.121,-169.118,-46.007,4.905,-8.011,58.728,6241.974,-28987.114,-34819.481
1512178959,72.300,32.800,-184.600,21180.000,10190.000,1139470.000,625000.000,178000.000,-308000.000,-317.064,-154.222,-70.422,-21.147,7.534,49.106,6241.074,-29137.123,-35269.554
1512178959,17.000,12.400,-169.600,-10500.000,22640.000,1010440.000,625000.000,178000.000,-308000.000,-312.912,-106.035,-125.628,-28.538,32.024,-11.516,6242.126,-28912.117,-35194.450
1512178959,9.700,-12.400,-163.500,58230.000,-17460.000,974980.000,600000.000,174000.000,-321000.000,-261.236,-150.628,-223.112,-24.787,36.813,-31.242,5868.332,-28612.679,-35491.112
1512178959,-194.700,-49.000,-165.600,34790.000,-77820.000,972110.000,600000.000,174000.000,-321000.000,-164.850,-233.614,-319.017,-30.601,38.464,-61.325,5866.196,-29062.675,-35716.331
1512178959,-202.300,-59.400,-138.500,11900.000,-40160.000,961610.000,600000.000,174000.000,-321000.000,-85.302,-252.449,-457.051,-28.783,39.233,-46.660,5907.471,-28237.625,-35566.261
1512178959,-50.300,-14.200,-147.300,41690.000,5250.000,1136170.000,600000.000,174000.000,-321000.000,134.393,-172.143,-651.874,-2.992,50.491,-55.185,6282.471,-28237.053,-35569.450
1512178959,45.300,18.400,-137.700,7140.000,-80630.000,990480.000,600000.000,174000.000,-321000.000,267.833,-287.613,-765.476,19.000,31.122,-22.875,6843.872,-28498.718,-35424.355
1512178959,98.900,20.000,-123.300,37540.000,-44130.000,1183960.000,616000.000,179000.000,-313000.000,223.814,-392.331,-784.604,10.181,11.249,54.294,7031.441,-28498.436,-35275.948
1512178959,4.800,37.200,-129.200,4460.000,-147460.000,1000060.000,616000.000,179000.000,-313000.000,89.296,-213.651,-763.541,6.527,22.123,6.239,7743.195,-28684.868,-35094.589
1512178959,-62.500,-6.300,-115.200,35460.000,-89420.000,792540.000,616000.000,179000.000,-313000.000,61.126,-348.394,-710.584,0.158,49.769,-71.328,8382.050,-28383.911,-35099.868
1512178959,-80.400,-9.700,-113.300,-3170.000,-73300.000,1037480.000,616000.000,179000.000,-313000.000,108.941,-452.415,-738.504,-12.201,61.613,-35.230,8570.130,-28233.627,-35288.895
1512178959,134.900,50.100,-104.800,35520.000,9640.000,1163570.000,613000.000,172000.000,-330000.000,129.779,-355.648,-768.779,-10.927,46.124,26.118,8645.691,-28121.010,-35176.987
1512178959,221.800,82.300,-98.500,11230.000,-70130.000,1189820.000,613000.000,172000.000,-330000.000,45.602,-302.967,-736.769,11.480,24.537,26.233,8871.727,-27895.676,-35141.289
1512178959,165.900,77.400,-92.900,94420.000,-120610.000,992310.000,613000.000,172000.000,-330000.000,-4.517,-318.190,-639.470,31.223,32.151,7.922,9397.835,-27632.386,-35295.639
1512178959,-121.300,15.300,-87.600,26120.000,-97110.000,1044370.000,613000.000,172000.000,-330000.000,-2.934,-295.353,-572.739,34.545,31.585,10.258,9736.870,-27294.380,-35260.849
1512178959,-99.700,15.800,-65.000,43520.000,-24110.000,1024840.000,613000.000,172000.000,-330000.000,36.898,-184.289,-525.934,38.641,36.986,-6.533,10112.999,-27031.311,-35376.412
1512178960,88.800,73.600,-60.700,0.000,29720.000,1089900.000,604000.000,167000.000,-308000.000,63.675,-166.736,-467.917,49.213,31.016,-15.462,10301.178,-26881.035,-35377.937
1512178960,214.000,96.700,-57.400,34000.000,-64700.000,1073360.000,604000.000,167000.000,-308000.000,48.573,-169.043,-392.453,53.935,25.152,-8.638,10675.583,-27030.464,-35231.194
1512178960,-16.200,50.300,-44.100,70620.000,-132690.000,832340.000,604000.000,167000.000,-308000.000,1.016,-180.001,-288.705,50.883,17.384,-13.466,10375.275,-27105.919,-35153.679
1512178960,-46.300,31.200,-38.300,61100.000,-96010.000,941650.000,604000.000,167000.000,-308000.000,-64.687,-226.237,-185.344,41.341,26.397,-21.290,10300.385,-27031.029,-35603.004
1512178960,-88.300,4.300,-24.200,26180.000,-35770.000,966130.000,604000.000,167000.000,-308000.000,-78.547,-260.575,-123.839,29.778,44.244,-9.612,10449.631,-27180.809,-35754.341
1512178960,-87.200,-5.500,-20.200,16480.000,-68540.000,1019100.000,607000.000,171000.000,-318000.000,-34.117,-234.908,-100.715,24.535,52.337,9.307,10376.022,-26880.913,-35678.566
1512178960,-52.200,6.300,-9.600,5310.000,-53220.000,854430.000,607000.000,171000.000,-318000.000,-3.182,-159.028,-98.940,20.204,50.808,27.421,10074.600,-27181.374,-35826.149
1512178960,-8.400,20.100,2.500,11350.000,-56460.000,1153560.000,607000.000,171000.000,-318000.000,-28.943,-104.613,-85.263,20.666,34.850,17.306,10076.996,-26656.364,-35750.908
1512178960,-107.600,-0.300,9.900,80810.000,-32410.000,898800.000,607000.000,171000.000,-318000.000,-69.099,-140.004,-43.324,23.372,24.274,7.929,10152.298,-26581.261,-35826.515
1512178960,127.200,59.500,3.300,51390.000,-93750.000,1044190.000,592000.000,172000.000,-313000.000,-90.912,-178.545,-14.989,14.425,24.408,24.412,10003.006,-26431.480,-35750.175
1512178960,33.300,28.200,14.800,154300.000,-88990.000,908330.000,592000.000,172000.000,-313000.000,-106.879,-146.525,-15.110,11.204,17.935,36.408,10077.927,-26431.358,-35900.810
1512178960,133.000,62.100,20.800,29540.000,-105410.000,1082890.000,592000.000,172000.000,-313000.000,-107.816,-85.632,-20.243,13.242,8.153,37.403,9702.454,-26506.935,-36197.655
1512178960,58.100,22.000,23.000,113400.000,-193660.000,1078800.000,592000.000,172000.000,-313000.000,-85.638,-5.516,-3.652,14.817,-1.514,29.771,10077.667,-26431.358,-36425.804
1512178960,-7.300,15.200,31.400,93320.000,-112180.000,937930.000,592000.000,172000.000,-313000.000,-89.214,29.681,20.938,20.501,-6.350,6.990,9779.205,-26131.813,-36048.119
1512178960,83.400,17.200,46.200,5680.000,-41990.000,970150.000,600000.000,171000.000,-311000.000,-138.704,-5.695,46.750,21.043,-10.449,-18.221,9852.829,-26431.709,-36123.894
1512178960,124.800,23.400,47.300,43090.000,-57250.000,1144170.000,600000.000,171000.000,-311000.000,-155.313,-59.200,81.503,20.557,-11.342,-27.876,9778.305,-26281.807,-36498.192
1512178960,-16.200,14.200,65.200,58170.000,-105830.000,935300.000,600000.000,171000.000,-311000.000,-129.605,-55.940,74.425,17.721,-0.068,-25.307,9478.729,-26207.268,-36345.604
1512178960,-84.600,-2.100,73.600,51270.000,-100220.000,945560.000,600000.000,171000.000,-311000.000,-66.062,19.004,39.362,24.252,-1.166,-30.927,9404.694,-25982.368,-36419.868
1512178960,145.900,48.200,67.100,64150.000,-73730.000,1155580.000,600000.000,171000.000,-311000.000,26.950,97.142,26.052,39.740,-10.792,-38.206,9554.810,-25982.155,-36196.144
1512178960,77.400,24.900,75.900,110350.000,-156310.000,1062010.000,599000.000,179000.000,-330000.000,77.785,114.275,48.174,51.460,-22.795,-40.859,9628.128,-26357.033,-36196.953
1512178960,27.200,-11.200,80.000,85940.000,-199890.000,1031130.000,599000.000,179000.000,-330000.000,79.987,70.362,105.616,56.443,-34.707,-31.601,9703.842,-26206.932,-36122.520
1512178960,-107.900,-20.000,76.200,172240.000,-185180.000,919680.000,599000.000,179000.000,-330000.000,51.232,34.947,166.909,49.006,-32.028,-15.281,9329.208,-26132.484,-36044.289
1512178960,124.500,41.300,87.100,82030.000,-146730.000,1111880.000,599000.000,179000.000,-330000.000,22.830,26.277,208.043,43.254,-19.622,-13.417,9626.740,-26657.036,-36272.087
1512178960,107.700,40.100,100.300,131040.000,-103880.000,1052000.000,592000.000,179000.000,-323000.000,37.363,43.344,232.834,39.424,-11.453,-12.713,9402.740,-26432.381,-36270.073
1512178960,34.400,28.400,104.400,60490.000,-159240.000,979490.000,592000.000,179000.000,-323000.000,74.492,77.555,245.215,33.697,-8.739,-3.845,9100.388,-26957.832,-36267.754
1512178960,-93.600,-9.300,119.800,87710.000,-160340.000,926330.000,592000.000,179000.000,-323000.000,84.812,106.372,267.855,29.050,-14.393,-4.712,8949.554,-27183.052,-35891.594
1512178960,-88.200,9.100,120.100,108760.000,-116460.000,949220.000,592000.000,179000.000,-323000.000,88.382,96.148,309.447,20.010,-11.834,-2.528,9100.914,-26882.828,-35892.731
1512178960,49.700,36.800,135.300,81910.000,-106810.000,1053530.000,592000.000,179000.000,-323000.000,109.767,73.691,336.329,10.073,-7.374,17.681,8838.593,-26845.718,-35852.982
1512178960,116.400,54.900,136.600,110350.000,-75870.000,1038270.000,592000.000,193000.000,-323000.000,131.663,104.641,367.669,1.032,-13.321,38.092,8798.111,-27520.782,-35740.471
1512178960,31.300,25.000,139.500,106990.000,-141420.000,1002990.000,592000.000,193000.000,-323000.000,58.950,76.137,412.359,-15.132,-13.080,38.055,8535.522,-27558.678,-35588.257
1512178960,-61.000,-4.300,147.000,101380.000,-108640.000,863400.000,592000.000,193000.000,-323000.000,0.324,62.698,411.463,-28.652,1.283,28.573,7972.359,-27709.526,-35546.051
1512178960,-78.700,1.600,135.700,122920.000,-119570.000,895810.000,592000.000,193000.000,-323000.000,-11.973,55.265,381.411,-32.730,5.983,8.624,7595.818,-28047.592,-35580.513
1512178960,77.500,33.600,147.800,75930.000,-94480.000,1077030.000,592000.000,193000.000,-323000.000,-16.129,20.621,340.719,-35.463,0.860,3.288,7446.823,-27822.815,-35616.638
1512178960,-28.800,2.000,148.900,95950.000,-114690.000,835820.000,597000.000,181000.000,-328000.000,-21.655,3.628,287.278,-44.459,2.083,10.881,6695.191,-28198.937,-35497.940
1512178960,-33.200,-9.100,151.800,97110.000,-159790.000,986390.000,597000.000,181000.000,-328000.000,-40.990,13.916,199.082,-45.961,-4.530,13.043,6581.352,-28461.609,-35797.104
1512178960,-67.900,-38.100,159.900,67200.000,-140260.000,1018680.000,597000.000,181000.000,-328000.000,-52.125,12.430,130.687,-39.152,-11.312,4.250,6507.400,-28236.718,-35721.359
1512178960,-121.700,-54.500,169.800,33200.000,-164310.000,940120.000,597000.000,181000.000,-328000.000,-29.839,9.909,71.834,-39.025,-13.341,7.288,6207.382,-28237.167,-35756.302
1512178960,-42.700,-26.900,181.400,115480.000,-108400.000,965700.000,607000.000,188000.000,-318000.000,-6.734,-4.322,-4.101,-39.644,-16.811,7.718,6096.039,-27974.839,-35792.732
1512178961,-8.100,-10.000,181.200,89840.000,-144470.000,1068240.000,607000.000,188000.000,-318000.000,-19.950,-18.154,-44.321,-38.291,-23.566,16.013,6244.492,-28312.111,-35869.164
1512178961,-14.200,-22.100,187.000,76170.000,-158630.000,1042540.000,607000.000,188000.000,-318000.000,-30.350,-18.134,-59.393,-35.859,-29.135,9.683,6246.109,-27937.111,-36018.990
1512178961,-16.400,-16.100,190.300,126040.000,-149840.000,980100.000,607000.000,188000.000,-318000.000,-39.850,-37.363,-65.994,-36.371,-26.256,4.039,6020.538,-28087.456,-35792.152
1512178961,76.800,6.100,195.600,144470.000,-116520.000,1131900.000,607000.000,188000.000,-318000.000,-41.825,-54.439,-76.744,-38.709,-19.835,-6.522,5946.167,-27937.553,-35866.432
1512178961,96.100,11.500,196.500,88130.000,-111330.000,1054200.000,597000.000,213000.000,-321000.000,-29.436,-62.884,-117.103,-44.260,-13.620,-3.360,6398.163,-27486.885,-35945.061
1512178961,50.700,15.000,194.400,148320.000,-181030.000,997560.000,597000.000,213000.000,-321000.000,-23.307,-53.165,-164.953,-41.611,-13.375,1.353,6321.518,-27861.992,-35869.591
1512178961,-0.900,2.300,195.700,86060.000,-138610.000,1053470.000,597000.000,213000.000,-321000.000,-24.940,-45.631,-194.800,-37.473,-15.432,-8.699,6171.890,-27787.224,-35793.282
1512178961,57.000,0.000,205.100,117860.000,-121640.000,1085390.000,597000.000,213000.000,-321000.000,-8.507,-73.327,-223.444,-35.234,-3.666,-10.325,6396.774,-27786.888,-36020.195
1512178961,92.300,6.000,201.900,129820.000,-167050.000,1001770.000,597000.000,213000.000,-321000.000,11.328,-96.717,-263.748,-29.145,-4.120,3.487,6696.930,-27786.430,-35722.755
1512178961,37.700,-8.800,210.500,119930.000,-140870.000,941650.000,604000.000,209000.000,-318000.000,0.977,-120.198,-284.237,-29.349,-6.477,12.032,6697.144,-27711.433,-35947.716
1512178961,-19.200,-23.800,218.100,79830.000,-102360.000,912660.000,604000.000,209000.000,-318000.000,-2.900,-123.354,-306.687,-31.928,-3.532,29.768,6772.858,-27561.317,-35873.283
1512178961,10.300,-28.400,230.500,63480.000,-89290.000,1007930.000,604000.000,209000.000,-318000.000,-13.170,-99.824,-329.140,-28.272,-0.916,36.762,6770.950,-27936.317,-36323.448
1512178961,64.700,-10.300,239.200,90030.000,-118350.000,1009340.000,604000.000,209000.000,-318000.000,-23.544,-80.585,-346.284,-14.932,-5.286,33.799,6923.813,-27336.098,-36024.452
1512178961,56.700,-10.900,242.500,108950.000,-157900.000,984920.000,611000.000,216000.000,-318000.000,-32.346,-75.290,-329.335,-15.161,-12.169,27.754,7149.597,-27185.753,-35801.292
1512178961,-56.900,-47.400,255.700,69820.000,-150510.000,935490.000,611000.000,216000.000,-318000.000,-78.621,-94.635,-303.419,-19.143,-4.610,14.960,6996.964,-27710.991,-36325.264
1512178961,-107.300,-69.600,256.700,83500.000,-143190.000,964540.000,611000.000,216000.000,-318000.000,-131.917,-139.579,-306.482,-26.150,13.076,-5.291,7448.166,-27485.313,-35953.987
1512178961,-80.000,-59.900,262.200,114870.000,-148010.000,1007570.000,611000.000,216000.000,-318000.000,-134.435,-184.357,-349.314,-36.111,23.601,-6.929,7223.877,-27260.643,-36551.964
1512178961,-61.400,-50.500,267.800,100280.000,-116760.000,963380.000,611000.000,216000.000,-318000.000,-121.689,-195.967,-412.069,-36.788,23.574,0.433,7223.984,-27260.643,-36326.973
1512178961,-74.700,-64.200,275.000,67440.000,-113100.000,1030210.000,609000.000,218000.000,-319000.000,-99.585,-154.183,-457.444,-26.871,14.010,6.734,7526.047,-26810.188,-36254.311
