unixtime,rx,ry,rz,ax,ay,az,mx,my,mz,apprx,appry,apprz,appax,appay,appaz,appmx,appmy,appmz
1512179097,-26.600,-0.500,-7.100,-22770.000,34240.000,920470.000,96000.000,-15000.000,40000.000,-15.941,239.750,403.448,71.849,12.211,-23.892,746.598,-14556.465,17975.845
1512179097,-27.300,9.900,-7.900,-20260.000,-1770.000,1015140.000,96000.000,-15000.000,40000.000,116.969,345.650,429.194,58.985,46.870,0.146,671.220,-14631.569,17901.459
1512179097,-22.100,-5.700,-5.200,-5250.000,-10560.000,978030.000,96000.000,-15000.000,40000.000,128.966,390.566,415.668,60.720,55.398,-2.052,295.655,-14782.143,18129.562
1512179097,-4.100,-5.700,0.800,-15870.000,84110.000,930420.000,101000.000,-24000.000,45000.000,52.223,402.200,415.664,101.987,52.169,1.029,519.486,-15006.798,17827.545
1512179097,-19.700,-10.400,-2.100,-50050.000,-19100.000,928410.000,101000.000,-24000.000,45000.000,-9.053,396.575,510.700,147.852,42.637,-15.633,746.217,-14631.462,17900.818
1512179097,-10.300,3.100,-11.700,-19650.000,-67380.000,1006160.000,101000.000,-24000.000,45000.000,-41.272,323.611,650.699,166.386,45.708,-30.494,448.884,-14031.914,17828.644
1512179097,-47.000,-2.100,-12.900,-3360.000,-14770.000,946470.000,101000.000,-24000.000,45000.000,-19.807,313.798,771.443,174.391,57.972,-12.211,73.091,-14182.472,17606.750
1512179097,-32.100,2.800,-13.300,7570.000,-48770.000,950070.000,101000.000,-24000.000,45000.000,34.371,338.290,848.000,194.069,71.902,-9.425,73.838,-14032.478,17756.821
1512179097,0.300,-2.500,-8.000,-27590.000,39250.000,911320.000,115000.000,-10000.000,35000.000,75.759,331.798,924.269,196.026,71.523,-0.093,-601.241,-14033.485,17612.564
1512179097,-10.500,8.700,-8.500,-32590.000,-10740.000,925050.000,115000.000,-10000.000,35000.000,70.381,324.179,991.326,199.632,76.636,-6.911,-1050.704,-13959.160,17991.425
1512179097,-15.200,6.800,-9.700,-52490.000,-7140.000,931580.000,115000.000,-10000.000,35000.000,62.236,287.767,1030.524,193.931,74.803,-1.654,-1801.238,-14035.286,17622.757
1512179097,-30.000,9.700,-12.100,-43700.000,-33630.000,951420.000,115000.000,-10000.000,35000.000,72.633,298.438,1047.772,193.644,56.559,3.376,-2468.093,-12236.290,17704.330
1512179097,-22.000,6.900,-10.400,-9770.000,21970.000,1005130.000,115000.000,-10000.000,35000.000,38.527,267.281,1110.065,188.654,40.036,8.143,-2318.328,-12311.058,17928.024
1512179097,-1.100,14.000,-10.400,180.000,37600.000,1028750.000,115000.000,0.000,38000.000,-43.779,278.753,1188.868,169.109,49.003,8.473,-2690.993,-11786.613,17856.445
1512179097,-6.400,0.800,-8.800,-16780.000,17640.000,1013550.000,115000.000,0.000,38000.000,-59.977,307.540,1202.591,151.184,63.964,-18.280,-3516.036,-11787.849,17788.467
1512179097,-5.700,5.600,-12.000,-15930.000,-980.000,927860.000,115000.000,0.000,38000.000,-37.784,315.152,1149.634,152.379,61.300,-31.685,-3663.863,-11263.069,17414.978
1512179097,3.700,2.700,-6.400,-53410.000,12630.000,981450.000,115000.000,0.000,38000.000,9.694,381.517,1118.573,148.138,45.524,-29.290,-4111.770,-10813.759,17569.016
1512179097,26.800,3.100,-9.200,490.000,43640.000,994930.000,126000.000,-14000.000,15000.000,102.645,464.998,1110.617,155.671,28.829,-41.759,-4561.538,-10739.418,17347.870
1512179097,-26.800,-6.400,-7.200,-2080.000,12080.000,856080.000,126000.000,-14000.000,15000.000,153.531,466.106,1127.347,145.758,12.846,-49.865,-4632.049,-9764.534,17573.959
1512179097,-9.700,-9.700,-6.300,-21610.000,-16420.000,919800.000,126000.000,-14000.000,15000.000,162.129,437.291,1122.042,133.124,15.305,-44.610,-5229.537,-9165.428,17204.346
1512179097,-20.600,-2.500,-8.500,23800.000,-44620.000,962950.000,126000.000,-14000.000,15000.000,128.422,387.086,1094.727,113.521,8.113,-28.717,-5228.744,-9015.419,17429.413
1512179097,-38.700,-20.800,-6.500,9220.000,-67440.000,898250.000,126000.000,-14000.000,15000.000,75.695,396.692,1060.951,108.389,11.109,-21.439,-5904.754,-9241.447,17435.043
1512179097,-20.800,-23.300,5.300,-29360.000,5190.000,922730.000,128000.000,-8000.000,13000.000,37.275,412.645,1063.646,92.694,14.581,-42.155,-6427.016,-8642.220,17514.771
1512179097,-12.800,-11.300,1.900,27040.000,-3300.000,939510.000,128000.000,-8000.000,13000.000,34.176,405.175,1057.178,72.446,26.383,-50.798,-6123.351,-7816.765,17437.607
1512179097,27.800,-15.300,10.700,6960.000,39860.000,1011600.000,128000.000,-8000.000,13000.000,88.902,453.366,1037.884,66.332,43.168,-49.924,-6047.072,-7516.655,17287.109
1512179097,-56.100,-6.500,7.500,53590.000,-61280.000,825130.000,128000.000,-8000.000,13000.000,195.814,561.446,1024.885,54.928,45.293,-40.169,-6344.329,-6917.107,17364.944
1512179097,3.300,-1.300,15.300,-26860.000,25760.000,1004880.000,128000.000,-8000.000,13000.000,244.447,620.343,987.415,53.033,44.366,-35.359,-6118.621,-6766.762,17438.095
1512179097,-11.300,-14.500,16.100,-29360.000,-20810.000,997740.000,126000.000,7000.000,32000.000,172.277,626.680,968.269,76.866,-3.633,-5.851,-6418.441,-6692.207,17140.671
1512179097,-30.500,-9.300,19.800,13670.000,-20750.000,975590.000,126000.000,7000.000,32000.000,46.544,702.201,1032.805,90.322,-12.348,-6.406,-6265.365,-6016.975,17214.722
1512179097,-10.300,-7.900,29.600,-7750.000,-12210.000,970340.000,126000.000,7000.000,32000.000,-44.109,741.452,1101.989,93.480,17.676,-42.340,-6414.351,-5792.198,17216.095
1512179097,-12.300,1.600,29.400,16420.000,-25880.000,898380.000,126000.000,7000.000,32000.000,-4.049,697.667,1126.936,61.305,55.217,-63.952,-6412.810,-5417.198,16916.260
1512179097,9.200,3.100,34.600,8970.000,29540.000,982540.000,128000.000,-12000.000,23000.000,67.690,545.203,1035.764,21.625,68.380,-76.874,-6185.592,-4891.853,16614.594
1512179097,-3.200,-7.600,40.200,-27220.000,5000.000,1064390.000,128000.000,-12000.000,23000.000,114.331,437.490,981.694,-27.228,54.036,-31.821,-6410.598,-4892.189,16616.516
1512179097,-36.000,0.700,40.300,76660.000,-47420.000,886350.000,128000.000,-12000.000,23000.000,112.389,524.027,974.505,-68.101,59.550,7.440,-6632.476,-4217.537,16768.738
1512179097,-36.100,4.100,43.100,39730.000,-74890.000,975950.000,128000.000,-12000.000,23000.000,129.229,712.954,1061.759,-73.179,37.610,12.706,-6406.127,-3917.183,16766.953
1512179097,8.000,-10.300,51.700,7930.000,-44740.000,993290.000,128000.000,-12000.000,23000.000,96.457,750.855,1047.024,-61.311,104.492,-29.194,-5916.099,-3353.950,16763.077
1512179097,-4.100,-7.500,53.000,57250.000,-103820.000,896550.000,119000.000,-10000.000,15000.000,211.120,648.563,1005.686,-72.107,75.597,21.375,-6105.078,-3654.235,16502.044
1512179097,-24.400,-19.700,64.400,36010.000,-12450.000,871460.000,119000.000,-10000.000,15000.000,30.913,571.724,1101.953,-64.210,19.102,74.621,-5914.168,-2903.953,16575.790
1512179098,6.800,-14.600,71.100,17520.000,14770.000,936220.000,119000.000,-10000.000,15000.000,-291.209,536.838,1207.501,-41.571,43.728,39.044,-6173.141,-2116.844,16540.878
1512179098,-17.800,-18.100,77.500,550.000,-87650.000,1004270.000,119000.000,-10000.000,15000.000,-301.787,438.565,1197.410,-35.347,62.074,8.955,-6621.490,-1742.516,16469.879
1512179098,-12.400,-21.600,87.400,55540.000,-101200.000,994020.000,110000.000,-19000.000,13000.000,-168.926,376.896,1153.278,-37.855,55.074,37.479,-6768.203,-992.729,16321.503
1512179098,-27.300,-36.500,98.700,61650.000,-31010.000,954830.000,110000.000,-19000.000,13000.000,-82.510,408.015,1151.443,-49.083,14.145,57.335,-6390.151,-317.162,16318.634
1512179098,-23.600,-40.500,107.500,57500.000,-47360.000,920100.000,110000.000,-19000.000,13000.000,-126.249,418.627,1154.045,-54.905,-0.558,51.039,-6688.201,132.393,16171.387
1512179098,-38.100,-28.600,110.100,97470.000,-82760.000,971440.000,110000.000,-19000.000,13000.000,-253.760,385.373,1127.564,-46.171,-14.949,33.792,-7132.689,1406.715,15725.800
1512179098,-37.800,-22.600,116.900,88620.000,-28140.000,954650.000,110000.000,-19000.000,13000.000,-285.934,405.593,1139.959,-29.774,-14.785,16.562,-7355.071,2006.386,15577.988
1512179098,10.700,-16.500,125.800,75560.000,11960.000,999330.000,112000.000,-35000.000,8000.000,-180.014,453.740,1184.306,-17.982,-9.935,-2.598,-7351.577,2756.386,15803.329
1512179098,-20.100,-17.200,126.500,62680.000,-68660.000,988100.000,112000.000,-35000.000,8000.000,-65.566,469.853,1226.530,-17.423,-2.202,-0.400,-7649.642,3205.940,15656.097
1512179098,39.100,1.500,131.800,86300.000,-16540.000,1013060.000,112000.000,-35000.000,8000.000,-50.833,391.879,1233.933,-15.692,0.921,8.882,-7873.015,3580.605,15508.179
1512179098,-2.900,6.300,138.400,23860.000,-108520.000,1021120.000,112000.000,-35000.000,8000.000,-139.337,281.729,1230.136,-33.238,-1.597,38.802,-8169.387,4405.174,15361.115
1512179098,-33.600,-2.100,147.100,125790.000,-47730.000,840940.000,112000.000,-35000.000,8000.000,-162.346,304.177,1204.295,-41.829,-1.288,63.356,-8318.679,4554.939,15437.454
1512179098,45.500,11.700,152.500,27160.000,-86910.000,1061340.000,108000.000,-24000.000,5000.000,-127.326,342.786,1150.565,-23.095,-11.970,66.372,-8464.324,5529.732,15364.182
1512179098,-40.100,8.400,150.700,123660.000,-108340.000,805660.000,108000.000,-24000.000,5000.000,-125.076,387.670,1146.493,2.269,-40.081,67.693,-8541.167,5154.610,15064.636
1512179098,1.100,8.900,165.900,46750.000,-28020.000,931820.000,108000.000,-24000.000,5000.000,-155.098,396.144,1156.746,27.609,-54.948,42.952,-8459.670,6579.735,15214.661
1512179098,-10.300,2.100,166.800,59270.000,-121150.000,876950.000,108000.000,-24000.000,5000.000,-164.829,326.686,1161.694,25.746,-72.636,28.762,-8681.716,7254.402,15066.895
1512179098,9.200,12.800,174.000,81670.000,-109130.000,874690.000,108000.000,-24000.000,5000.000,-136.949,347.041,1152.573,2.691,-75.925,57.224,-8904.235,7779.060,15294.037
1512179098,-71.100,5.500,177.400,106690.000,-147520.000,819580.000,114000.000,-29000.000,33000.000,-58.689,476.456,1132.838,-13.620,-77.204,61.960,-8679.458,7779.396,14842.133
1512179098,12.100,1.200,188.800,56520.000,-74040.000,954040.000,114000.000,-29000.000,33000.000,-14.233,535.363,1091.048,-19.217,-91.002,45.428,-8527.129,8304.634,14766.113
1512179098,-8.300,-8.700,190.300,84840.000,-143800.000,940610.000,114000.000,-29000.000,33000.000,-31.829,519.374,1057.687,-36.003,-100.984,29.667,-8375.182,8754.845,14615.036
1512179098,1.500,4.900,189.500,135560.000,-82950.000,942440.000,114000.000,-29000.000,33000.000,-52.236,456.430,998.536,-57.483,-110.539,16.058,-8519.485,10029.640,14541.901
1512179098,12.800,-1.700,191.900,57920.000,-101930.000,1073910.000,107000.000,-22000.000,40000.000,-82.007,418.072,927.613,-74.355,-124.604,10.831,-8294.188,10104.973,14465.027
1512179098,-4.300,-4.900,199.900,102360.000,-125980.000,869020.000,107000.000,-22000.000,40000.000,-65.047,474.823,871.555,-73.908,-141.268,-15.001,-7993.285,10330.421,14237.579
1512179098,-12.000,-10.100,200.000,88010.000,-86790.000,916080.000,107000.000,-22000.000,40000.000,18.550,533.749,847.385,-78.979,-143.473,-50.945,-7989.608,11155.434,14162.964
1512179098,-2.100,-18.500,207.600,45290.000,-101260.000,997440.000,107000.000,-22000.000,40000.000,108.200,487.093,741.915,-86.887,-130.665,-86.451,-7576.728,11268.555,13897.003
1512179098,-20.500,-14.200,211.600,94360.000,-61460.000,900090.000,107000.000,-22000.000,40000.000,123.251,474.100,572.052,-81.461,-131.232,-125.511,-7312.095,11756.454,13782.502
1512179098,10.700,0.500,218.400,76840.000,-112980.000,1038510.000,100000.000,-29000.000,33000.000,325.127,536.598,454.731,-50.460,-123.714,-111.582,-6676.452,11382.408,13439.407
1512179098,10.800,-0.700,215.400,109370.000,-149350.000,962460.000,100000.000,-29000.000,33000.000,61.406,470.990,475.733,4.255,-112.981,-105.571,-6377.166,11270.356,13024.307
1512179098,22.800,-4.700,219.600,69270.000,-192870.000,1035220.000,100000.000,-29000.000,33000.000,-474.712,553.524,732.639,83.854,15.796,-180.412,-5508.338,12696.655,12830.139
1512179098,18.900,8.100,227.200,125430.000,-90390.000,998840.000,100000.000,-29000.000,33000.000,139.520,621.518,853.710,69.185,198.206,-160.233,-5055.243,13447.334,12264.160
1512179098,15.200,32.900,226.500,146790.000,-151120.000,987490.000,100000.000,-29000.000,33000.000,845.088,523.944,502.730,15.901,196.215,23.698,-4755.546,13410.286,11999.100
1512179098,69.900,47.500,227.600,67500.000,-77940.000,1013240.000,107000.000,-26000.000,27000.000,690.290,546.898,387.563,49.638,111.487,115.868,-4160.170,12398.681,11843.529
1512179098,44.100,51.400,227.300,105220.000,-80140.000,907230.000,107000.000,-26000.000,27000.000,524.933,360.465,547.627,54.270,72.902,116.498,-3601.592,11537.018,11763.351
1512179098,38.900,46.300,228.200,49070.000,-147400.000,945680.000,107000.000,-26000.000,27000.000,412.733,91.915,679.924,-2.291,75.323,136.931,-3715.072,11311.844,11839.203
1512179098,24.800,41.800,238.900,55850.000,-57250.000,922240.000,107000.000,-26000.000,27000.000,150.636,-49.456,663.909,-13.808,69.559,123.938,-4427.513,11310.776,11957.764
1512179098,27.200,49.500,237.700,67990.000,-38820.000,913760.000,93000.000,-37000.000,23000.000,-77.035,-222.054,530.484,20.431,76.877,75.947,-5024.795,11909.881,12000.633
1512179098,7.900,41.300,238.200,93510.000,-88260.000,892760.000,93000.000,-37000.000,23000.000,54.568,-343.966,430.690,48.089,35.392,123.900,-5736.007,12171.318,12231.811
1512179099,-14.900,-0.300,243.000,98750.000,-109190.000,856570.000,93000.000,-37000.000,23000.000,333.914,105.729,385.665,35.184,0.865,164.849,-6259.276,12508.034,12648.926
1512179099,-37.600,-13.700,244.200,118840.000,-137330.000,832760.000,93000.000,-37000.000,23000.000,369.049,80.268,322.120,61.446,-23.770,70.948,-6785.888,12132.240,12803.223
1512179099,6.800,-20.600,250.900,65860.000,-121890.000,979550.000,93000.000,-37000.000,23000.000,96.638,-291.783,274.238,57.525,-76.332,69.865,-7085.937,12131.783,12730.774
1512179099,35.800,-3.200,252.600,116640.000,-137080.000,1010130.000,86000.000,-47000.000,10000.000,-116.038,-417.012,235.541,57.629,-72.086,88.168,-7160.522,12206.673,12881.439
1512179099,16.500,2.900,252.600,144290.000,-116090.000,986940.000,86000.000,-47000.000,10000.000,-89.084,-354.985,220.156,63.563,-78.741,79.039,-8059.585,12430.336,12739.197
1512179099,8.000,5.700,251.300,136660.000,-102360.000,988400.000,86000.000,-47000.000,10000.000,73.873,-212.700,235.803,19.385,-100.518,44.760,-8058.349,12655.327,13189.285
1512179099,9.700,-3.100,255.300,109620.000,-78120.000,932370.000,86000.000,-47000.000,10000.000,248.773,-194.139,168.042,-4.342,-90.562,28.545,-8583.541,12579.536,13493.713
1512179099,-26.900,5.900,257.500,149410.000,-146970.000,969480.000,77000.000,-49000.000,25000.000,335.432,-226.012,147.866,14.363,-5.619,9.839,-9261.458,11903.526,13724.136
1512179099,8.900,18.000,265.900,141050.000,-86670.000,1005980.000,77000.000,-49000.000,25000.000,503.202,-439.965,436.322,27.934,-35.806,-58.325,-9933.913,12427.513,14105.118
1512179099,1.300,14.400,263.400,176210.000,-112120.000,948430.000,77000.000,-49000.000,25000.000,684.649,-637.515,542.737,-14.490,-111.384,-89.702,-10535.415,12051.613,14485.046
1512179099,5.600,-7.600,270.300,75070.000,-129030.000,1041260.000,77000.000,-49000.000,25000.000,715.462,-522.938,425.250,-71.344,-100.933,-89.046,-10908.767,12351.067,15088.364
1512179099,-49.000,-29.400,274.700,120610.000,-98690.000,965760.000,77000.000,-49000.000,25000.000,665.828,-381.454,145.718,-85.015,-71.039,-127.172,-11212.111,11600.609,15165.573
1512179099,-23.000,-20.200,263.300,109370.000,-160950.000,988280.000,61000.000,-54000.000,27000.000,581.456,-492.178,-109.614,-38.897,-57.368,-133.669,-11888.152,11299.583,15771.164
1512179099,-0.300,0.000,261.400,108520.000,-117860.000,1032350.000,61000.000,-54000.000,27000.000,511.862,-630.660,-356.296,-40.453,-128.307,-80.500,-12494.536,9873.680,15850.616
1512179099,47.100,22.600,252.500,121030.000,-129760.000,1042660.000,61000.000,-54000.000,27000.000,290.673,-532.284,-578.767,-72.425,-181.879,-14.745,-12944.716,9797.997,16154.404
1512179099,49.500,33.700,251.400,122560.000,-136110.000,999510.000,61000.000,-54000.000,27000.000,94.532,-497.463,-513.260,-62.572,-165.881,4.768,-13545.440,9572.105,16759.384
1512179099,43.300,47.100,248.500,108400.000,-171020.000,1004940.000,61000.000,-54000.000,27000.000,-277.305,-395.727,-392.500,-107.707,-168.283,20.095,-13995.086,9646.431,16763.245
1512179099,52.700,54.100,255.800,109370.000,-156070.000,973570.000,45000.000,-49000.000,35000.000,-778.476,-179.935,-244.429,-107.511,-60.339,-103.606,-14220.763,9496.086,16765.091
1512179099,14.500,69.400,257.900,144230.000,-166080.000,722720.000,45000.000,-49000.000,35000.000,-1108.508,-161.293,-206.506,-79.599,76.157,-282.470,-14218.551,10021.095,16465.332
1512179099,56.600,77.100,268.200,46750.000,-118100.000,934940.000,45000.000,-49000.000,35000.000,-1002.020,-242.061,-332.103,-55.614,223.167,-341.906,-14512.954,11220.650,16843.430
1512179099,23.200,67.500,270.800,55660.000,-113890.000,777400.000,45000.000,-49000.000,35000.000,-426.333,-350.682,-597.051,-27.584,265.295,-240.416,-14363.524,11070.869,17067.093
1512179099,-3.100,47.300,273.200,82520.000,-46020.000,898130.000,68000.000,-51000.000,23000.000,184.824,-380.428,-746.075,-37.331,190.629,-40.831,-14814.879,10770.195,17070.786
1512179099,21.200,49.300,271.600,70740.000,-62500.000,946110.000,68000.000,-51000.000,23000.000,445.017,-296.714,-747.348,-58.057,114.541,122.135,-15192.794,10094.627,17298.660
1512179099,34.200,29.600,272.000,62070.000,-100460.000,927190.000,68000.000,-51000.000,23000.000,223.524,-202.088,-692.659,-81.247,72.668,200.227,-15496.657,9194.176,17675.797
1512179099,30.900,31.600,269.900,108150.000,-104800.000,935610.000,68000.000,-51000.000,23000.000,-162.137,-79.943,-637.055,-94.639,41.908,193.287,-15496.657,9194.176,17675.797
1512179099,48.600,43.400,264.600,99120.000,-140560.000,980530.000,68000.000,-51000.000,23000.000,-478.058,120.326,-605.759,-70.648,48.282,132.551,-16023.468,8818.382,17455.078
1512179099,62.200,32.900,265.000,101320.000,-137570.000,1008790.000,54000.000,-54000.000,23000.000,-617.952,178.578,-458.332,12.802,74.064,-1.663,-15495.177,9569.176,17263.466
1512179099,40.500,34.400,258.100,137080.000,-113890.000,954410.000,54000.000,-54000.000,23000.000,-327.328,-105.052,-221.108,4.656,103.776,-5.854,-15645.469,9493.950,17377.205
1512179099,51.400,26.400,260.700,106690.000,-114810.000,958560.000,54000.000,-54000.000,23000.000,6.641,82.537,-294.505,-49.742,82.776,132.143,-16059.364,9193.328,17268.067
1512179099,39.000,19.000,264.100,66530.000,-81480.000,1040530.000,54000.000,-54000.000,23000.000,-159.393,290.192,-364.948,-20.844,16.929,111.927,-16023.277,8893.387,17155.113
1512179099,-13.000,20.200,265.900,89720.000,-112980.000,893620.000,54000.000,-54000.000,23000.000,-110.551,140.794,-134.493,-14.837,-19.812,53.287,-15801.070,8293.724,16965.424
1512179099,8.500,24.000,273.800,103760.000,-40770.000,1029540.000,33000.000,-54000.000,33000.000,33.666,131.651,8.284,-59.786,-10.325,70.922,-16176.124,8255.653,17193.596
1512179099,10.800,23.300,266.600,79770.000,-75930.000,999760.000,33000.000,-54000.000,33000.000,75.377,224.720,-27.567,-71.834,-24.543,20.428,-16025.825,8330.879,17117.356
1512179099,0.700,12.900,269.900,86000.000,-94420.000,1021480.000,33000.000,-54000.000,33000.000,186.496,178.797,51.704,-64.713,-66.570,-33.211,-15840.919,7768.662,17002.998
1512179099,34.900,-1.100,277.000,73430.000,-57250.000,1062440.000,33000.000,-54000.000,33000.000,272.269,209.242,121.284,-79.189,-77.975,-41.481,-15768.149,7281.265,16927.139
1512179099,-39.500,-22.000,275.500,99300.000,-158140.000,958010.000,49000.000,-74000.000,49000.000,154.161,157.755,137.516,-66.332,-58.228,-65.801,-15918.746,7131.042,17078.339
1512179099,0.400,-15.400,273.100,105770.000,-61100.000,926700.000,49000.000,-74000.000,49000.000,295.863,47.538,72.023,-67.057,-62.435,-71.512,-16148.453,6080.696,17117.272
1512179099,29.700,-2.100,266.700,97660.000,-88930.000,915220.000,49000.000,-74000.000,49000.000,479.925,222.603,6.005,-67.434,-94.663,-11.430,-15960.990,6005.974,17715.645
1512179100,66.600,2.100,264.200,59750.000,-80510.000,931580.000,49000.000,-74000.000,49000.000,163.439,382.626,134.699,-37.669,-54.393,-23.244,-16189.926,5143.135,17604.660
1512179100,33.000,-0.400,261.300,105830.000,-94850.000,829280.000,49000.000,-74000.000,49000.000,-194.042,511.148,226.978,-9.029,20.096,-83.337,-15814.178,5293.694,17751.541
1512179100,54.700,-10.400,271.500,44980.000,-46510.000,862730.000,31000.000,-66000.000,18000.000,-475.158,477.646,205.732,53.672,82.246,-247.956,-15591.537,4844.032,17074.417
1512179100,28.200,-19.700,276.400,34970.000,-75260.000,951970.000,31000.000,-66000.000,18000.000,-399.514,110.331,190.625,88.875,120.461,-292.112,-15511.809,5894.157,17074.265
1512179100,38.500,-6.900,278.700,41080.000,-57430.000,1009220.000,31000.000,-66000.000,18000.000,-53.665,-299.364,208.069,73.246,142.026,-182.548,-15135.756,6119.713,17146.179
1512179100,11.200,-7.700,275.900,69580.000,-133850.000,967470.000,31000.000,-66000.000,18000.000,196.357,-361.930,170.964,16.607,130.134,-14.952,-15585.616,6119.041,17450.012
1512179100,-0.300,4.800,279.100,126770.000,-117610.000,831420.000,28000.000,-74000.000,25000.000,174.529,-232.524,79.420,-15.208,128.690,97.496,-15962.371,5668.480,17977.982
1512179100,56.600,22.600,278.800,87890.000,-88200.000,1002930.000,28000.000,-74000.000,25000.000,-35.350,-85.179,-51.036,-7.158,116.280,137.173,-15962.905,5518.471,18277.924
1512179100,81.000,43.900,269.900,107730.000,-55970.000,995000.000,28000.000,-74000.000,25000.000,-228.131,57.799,-119.428,20.999,95.460,134.508,-16266.098,4843.025,17980.148
1512179100,62.200,51.800,267.800,77270.000,-106750.000,1035460.000,28000.000,-74000.000,25000.000,-288.057,138.855,-101.892,47.712,87.403,89.662,-15966.170,4843.468,17827.606
1512179100,43.800,46.500,265.400,99910.000,-71410.000,989200.000,28000.000,-74000.000,25000.000,-258.616,60.751,-16.453,57.174,88.039,57.641,-15515.975,4844.139,18198.776
1512179100,38.200,40.600,267.400,91980.000,-80080.000,1039790.000,31000.000,-84000.000,28000.000,-200.365,-138.000,61.521,53.830,97.021,62.939,-15737.563,5593.819,18276.047
1512179100,20.800,31.700,267.000,76230.000,-115480.000,987550.000,31000.000,-84000.000,28000.000,-205.716,-238.412,57.896,22.214,93.014,114.642,-15663.756,5293.922,18575.256
1512179100,26.800,32.600,269.500,49560.000,-116460.000,956300.000,31000.000,-84000.000,28000.000,-265.405,-199.924,-5.733,10.689,77.667,131.667,-15889.892,5068.581,18352.066
1512179100,38.600,30.900,273.100,35640.000,-120480.000,952090.000,31000.000,-84000.000,28000.000,-344.153,-165.714,-76.044,4.455,61.817,142.646,-15962.188,5668.480,18352.982
1512179100,25.700,43.500,268.400,48710.000,-112550.000,964480.000,31000.000,-84000.000,28000.000,-416.487,-189.179,-151.800,7.676,48.851,139.291,-15812.713,5518.700,18651.642
1512179100,1.100,32.600,269.900,110780.000,-110720.000,900570.000,35000.000,-84000.000,25000.000,-439.770,-192.270,-226.771,20.879,37.320,126.691,-15737.746,5518.806,18576.004
1512179100,-19.200,16.600,270.800,88750.000,-129270.000,910280.000,35000.000,-84000.000,25000.000,-380.992,-178.281,-235.468,31.440,4.649,102.522,-15137.069,5669.716,18570.969
1512179100,-22.200,3.900,271.400,45720.000,-123470.000,963810.000,35000.000,-84000.000,25000.000,-303.101,-204.980,-175.797,37.730,-24.965,84.138,-15285.384,6044.487,18572.418
1512179100,-17.700,5.600,273.600,50840.000,-104430.000,957340.000,35000.000,-84000.000,25000.000,-268.551,-202.870,-137.979,36.704,-21.065,78.825,-15138.350,5369.713,18720.825
1512179100,-10.800,5.300,271.000,44430.000,-155880.000,963750.000,38000.000,-105000.000,28000.000,-247.921,-191.044,-160.026,26.630,-24.318,67.792,-15060.317,6044.838,18720.505
1512179100,-5.100,28.600,277.100,79650.000,-126890.000,928890.000,38000.000,-105000.000,28000.000,-197.813,-157.727,-223.147,24.290,-31.202,52.455,-14909.713,6195.061,18569.305
1512179100,-23.800,26.400,274.600,107060.000,-133300.000,959290.000,38000.000,-105000.000,28000.000,-132.747,-129.722,-288.201,27.144,-51.728,21.163,-14387.069,5670.845,18564.590
1512179100,-43.000,22.800,269.000,79770.000,-160950.000,1025760.000,38000.000,-105000.000,28000.000,-45.430,-173.265,-348.918,28.122,-61.147,10.332,-14537.078,5670.616,18565.872
1512179100,-46.100,18.200,270.400,88200.000,-189150.000,992130.000,38000.000,-105000.000,28000.000,1.689,-173.044,-427.126,34.892,-75.561,10.458,-14614.058,5220.497,18641.296
1512179100,-24.100,-1.500,280.000,27400.000,-117610.000,986630.000,7000.000,-95000.000,28000.000,28.019,-206.025,-473.765,45.541,-127.741,2.246,-14014.617,5071.404,18861.130
1512179100,-59.400,13.000,277.200,134580.000,-144900.000,816530.000,7000.000,-95000.000,28000.000,8.137,-175.826,-365.743,37.872,-142.315,-26.637,-14052.742,4921.341,18973.885
1512179100,-40.600,14.600,275.900,102230.000,-166870.000,915590.000,7000.000,-95000.000,28000.000,-163.771,-169.776,-316.510,0.283,-113.838,-124.370,-13754.218,4584.282,19046.165
1512179100,-15.300,30.800,272.800,133610.000,-163390.000,879090.000,7000.000,-95000.000,28000.000,-54.116,-257.684,-344.545,-29.875,-110.237,-189.086,-13454.749,4472.237,19043.571
1512179100,20.500,31.300,272.000,89170.000,-134580.000,1013980.000,7000.000,-95000.000,28000.000,62.200,-80.055,-406.735,-51.162,-166.970,-89.942,-13192.313,4435.127,19228.821
1512179100,22.200,15.600,273.100,71840.000,-160580.000,1034000.000,14000.000,-109000.000,25000.000,-644.791,159.786,-156.557,-22.811,-41.242,-204.800,-12780.639,4323.243,18587.769
1512179100,19.600,15.300,271.600,58530.000,-168640.000,980410.000,14000.000,-109000.000,25000.000,-341.582,196.619,-181.885,-17.508,227.150,-182.234,-12626.967,5185.974,18174.392
1512179100,20.000,7.500,273.500,75680.000,-151550.000,941590.000,14000.000,-109000.000,25000.000,377.781,-6.089,-567.148,-42.208,242.247,-9.087,-11840.178,5037.155,18092.628
1512179100,7.300,8.100,275.000,26120.000,-151790.000,991520.000,14000.000,-109000.000,25000.000,456.758,-103.492,-673.477,-106.691,100.977,230.796,-11509.521,3500.153,18239.052
1512179100,-4.400,6.700,277.100,56400.000,-111210.000,945130.000,12000.000,-107000.000,27000.000,30.951,394.666,-654.462,-80.642,62.152,189.196,-10722.594,3351.326,18419.784
1512179100,-0.800,22.100,275.800,67020.000,-152040.000,959230.000,12000.000,-107000.000,27000.000,-178.036,258.907,-496.987,2.338,42.750,31.565,-9750.746,2677.796,18186.196
1512179100,29.000,14.100,277.200,34850.000,-157590.000,1002010.000,12000.000,-107000.000,27000.000,-272.603,-83.755,-144.551,-39.496,43.781,78.316,-9262.328,2941.024,17657.173
1512179100,-0.300,8.800,275.200,84960.000,-121640.000,962280.000,12000.000,-107000.000,27000.000,-221.162,46.598,-122.565,-92.811,68.484,118.076,-9034.720,3541.367,17468.040
1512179101,4.900,2.700,277.800,26980.000,-116090.000,999150.000,12000.000,-107000.000,27000.000,-145.280,90.187,-228.985,-81.912,39.803,103.853,-8922.423,3504.036,17392.059
1512179101,-29.700,-10.900,274.600,44490.000,-107180.000,887330.000,8000.000,-121000.000,20000.000,-143.040,26.117,-238.771,-59.077,5.618,90.394,-8772.429,3504.265,17390.793
1512179101,1.200,-0.800,270.700,37960.000,-107180.000,1018490.000,8000.000,-121000.000,20000.000,-113.800,-11.292,-203.296,-41.963,-24.914,99.394,-8999.602,3053.917,17092.499
1512179101,-11.200,-2.000,269.800,85020.000,-178410.000,956970.000,8000.000,-121000.000,20000.000,-41.594,24.969,-120.039,-46.684,-66.592,102.965,-8547.881,3429.604,17163.834
1512179101,23.600,9.600,266.000,89900.000,-150630.000,960940.000,8000.000,-121000.000,20000.000,45.552,113.596,-34.248,-54.402,-79.738,96.380,-8773.055,3429.268,16790.756
1512179101,31.000,10.500,263.800,69090.000,-161620.000,997800.000,5000.000,-125000.000,20000.000,38.148,177.550,29.830,-54.912,-89.390,58.194,-8697.875,3429.375,17165.115
1512179101,41.800,16.200,261.800,76720.000,-193910.000,981260.000,5000.000,-125000.000,20000.000,-54.176,164.512,67.890,-48.570,-102.118,-40.759,-8697.768,3504.372,16715.149
1512179101,14.100,15.400,263.800,92100.000,-132390.000,900150.000,5000.000,-125000.000,20000.000,-93.006,42.635,89.290,-29.207,-99.331,-94.026,-8321.715,3729.942,16787.064
1512179101,5.500,20.400,262.300,48650.000,-101140.000,877200.000,5000.000,-125000.000,20000.000,-39.505,36.209,142.283,-14.604,-117.313,-118.709,-8469.192,4329.720,16413.620
1512179101,43.400,28.000,263.500,55790.000,-62260.000,970460.000,5000.000,-125000.000,20000.000,9.409,113.985,282.916,-2.173,-124.871,-145.470,-8320.357,4029.945,16787.201
1512179101,-2.000,22.200,259.800,99430.000,-88500.000,883970.000,10000.000,-133000.000,28000.000,22.249,155.409,411.172,-2.668,-87.863,-181.698,-8320.739,3954.933,16712.173
1512179101,1.700,26.100,260.100,66410.000,-102170.000,989690.000,10000.000,-133000.000,28000.000,51.209,59.342,395.265,3.523,-41.516,-201.838,-8845.092,4104.149,16641.708
1512179101,3.900,23.300,253.800,93380.000,-119690.000,946170.000,10000.000,-133000.000,28000.000,148.613,-78.117,300.253,-3.176,-54.337,-157.257,-8619.460,4254.494,16564.865
1512179101,25.200,28.000,248.900,39120.000,-138610.000,1051090.000,10000.000,-133000.000,28000.000,184.472,-98.275,258.060,2.546,-83.452,-72.128,-8919.692,4179.039,16792.374
1512179101,-10.400,15.200,248.200,22950.000,-128720.000,957950.000,10000.000,-133000.000,28000.000,-32.862,42.274,321.498,20.419,-97.054,-28.588,-9066.985,4778.816,16793.930
1512179101,-49.500,12.500,240.600,65860.000,-135680.000,926270.000,-5000.000,-135000.000,27000.000,-527.438,277.190,521.963,69.684,-65.228,-96.978,-8839.812,5304.161,16417.267
1512179101,-26.900,18.800,235.800,83620.000,-162480.000,910460.000,-5000.000,-135000.000,27000.000,-908.416,253.881,675.209,122.793,68.202,-249.591,-9212.371,5903.603,15895.737
1512179101,-9.300,24.100,238.000,91550.000,-115660.000,912660.000,-5000.000,-135000.000,27000.000,-780.627,-23.647,669.698,128.171,157.324,-291.185,-9133.285,6803.719,15970.505
1512179101,7.900,20.800,240.100,3780.000,-111270.000,994200.000,-5000.000,-135000.000,27000.000,-141.511,-270.149,494.736,89.879,184.967,-188.987,-9956.557,7177.483,16052.689
1512179101,22.000,15.000,242.700,35520.000,-50780.000,1025090.000,8000.000,-142000.000,30000.000,486.801,-141.785,346.507,56.517,131.770,-19.604,-9956.786,7102.486,16277.664
1512179101,-4.500,20.900,233.200,59080.000,-144780.000,977290.000,8000.000,-142000.000,30000.000,612.550,40.107,293.527,67.983,91.938,65.526,-9882.461,6952.599,16276.947
1512179101,-39.400,9.200,234.500,77090.000,-121220.000,922490.000,8000.000,-142000.000,30000.000,293.202,31.002,329.378,104.784,86.877,110.507,-10258.666,6652.031,16580.002
1512179101,-36.000,10.300,232.500,39120.000,-111330.000,898070.000,8000.000,-142000.000,30000.000,-228.151,-130.143,389.493,132.103,81.899,120.318,-10409.118,6576.805,16356.232
1512179101,-6.400,14.500,232.600,59570.000,-117860.000,943300.000,8000.000,-142000.000,30000.000,-568.943,-254.777,491.794,156.052,98.641,125.534,-10779.647,7551.247,16509.872
1512179101,-8.800,12.000,226.800,69890.000,-153930.000,956790.000,3000.000,-151000.000,8000.000,-552.886,-301.991,615.528,130.999,103.649,118.562,-11227.660,8000.572,16438.904
1512179101,5.200,9.700,231.000,67380.000,-91190.000,890260.000,3000.000,-151000.000,8000.000,-439.869,-445.077,671.031,110.081,100.364,172.115,-11673.812,8824.913,16743.103
1512179101,32.600,20.500,225.000,75870.000,-94970.000,945980.000,3000.000,-151000.000,8000.000,-371.687,-540.695,734.587,77.425,58.221,320.306,-12569.190,9836.067,16863.724
1512179101,37.700,26.400,221.000,75810.000,-116030.000,957580.000,3000.000,-151000.000,8000.000,-543.895,-360.137,584.005,37.127,23.068,321.054,-13313.422,11109.954,16945.686
1512179101,18.000,23.800,216.200,89110.000,-141660.000,934020.000,3000.000,-151000.000,8000.000,-1044.711,-693.398,456.723,52.175,-27.665,183.546,-14053.809,13208.840,17253.029
1512179101,28.600,11.100,218.600,96680.000,-65920.000,936280.000,17000.000,-151000.000,5000.000,-934.831,-638.810,487.289,-21.168,-21.226,83.749,-15396.819,14744.324,17415.215
1512179101,37.600,8.100,218.800,29790.000,-94060.000,1026250.000,17000.000,-151000.000,5000.000,-617.475,-459.379,-66.104,-103.055,68.468,65.248,-16551.690,16355.095,18175.835
1512179101,31.400,4.400,218.000,55970.000,-75620.000,977780.000,17000.000,-151000.000,5000.000,-412.404,103.288,-579.279,-129.770,-29.454,-79.962,-16625.580,16617.485,18026.596
1512179101,12.400,14.400,210.800,50110.000,-66160.000,935490.000,17000.000,-151000.000,5000.000,-428.245,704.470,-752.784,-124.100,-113.093,-245.198,-16064.476,16355.828,17609.199
1512179101,22.800,4.000,209.500,84660.000,-98630.000,901000.000,5000.000,-153000.000,16000.000,-897.753,944.338,-876.019,-81.739,-103.509,-369.351,-14829.642,15907.676,16285.973
1512179101,12.000,3.300,204.700,77700.000,-70010.000,956240.000,5000.000,-153000.000,16000.000,-1447.373,1041.200,-1125.104,4.859,-25.960,-296.687,-12874.671,17148.109,15107.483
1512179101,25.600,5.200,202.700,60730.000,-89110.000,994140.000,5000.000,-153000.000,16000.000,-695.358,40.717,-1298.389,-44.330,-137.909,-240.650,-12010.551,17599.404,14275.368
1512179101,9.700,-4.100,207.900,29970.000,-79350.000,936400.000,5000.000,-153000.000,16000.000,179.958,448.745,202.863,5.223,33.900,-156.535,-12049.896,17186.852,14312.989
1512179101,2.400,-3.600,202.000,58410.000,-66160.000,903260.000,5000.000,-153000.000,16000.000,1277.566,1118.939,294.124,-63.136,254.113,-51.845,-10513.870,16964.149,13362.320
1512179102,13.800,8.900,194.800,41380.000,-68540.000,977660.000,-3000.000,-151000.000,15000.000,1743.795,573.846,-272.428,-119.713,157.827,52.182,-9098.525,14903.770,12599.258
1512179102,12.800,4.000,187.800,50350.000,-100160.000,928340.000,-3000.000,-151000.000,15000.000,1572.120,245.932,-414.641,-85.477,77.690,130.294,-8803.206,13854.210,12671.219
1512179102,11.300,2.100,186.400,43520.000,-97170.000,920350.000,-3000.000,-151000.000,15000.000,1220.966,635.198,-370.404,-81.233,46.429,174.529,-8887.328,11829.094,12670.929
1512179102,14.000,-8.700,183.800,82760.000,-86240.000,958980.000,-3000.000,-151000.000,15000.000,1004.171,1171.817,-191.513,-70.456,78.612,145.984,-7537.276,11831.108,12734.451
1512179102,20.100,-7.500,180.800,56880.000,-52190.000,964420.000,-3000.000,-151000.000,15000.000,1055.254,1170.690,-121.483,4.745,132.250,108.924,-7017.150,10781.898,12429.504
1512179102,21.800,-18.400,182.000,17760.000,7260.000,1019960.000,10000.000,-165000.000,5000.000,1123.844,922.105,-219.428,8.955,236.294,197.340,-6122.069,9733.238,12046.371
1512179102,8.900,-4.500,171.400,22030.000,-36070.000,985720.000,10000.000,-165000.000,5000.000,1389.080,850.616,-598.552,-38.977,198.812,163.253,-4926.711,8760.033,11510.727
1512179102,4.500,-3.500,161.500,18430.000,-46140.000,940610.000,10000.000,-165000.000,5000.000,1742.185,876.387,-935.553,-83.966,177.658,222.317,-4108.535,7186.256,12027.985
1512179102,0.900,4.100,159.100,23860.000,-49380.000,924190.000,10000.000,-165000.000,5000.000,2061.783,996.732,-1045.637,-63.831,101.233,272.266,-3141.219,5462.700,12168.900
1512179102,-16.900,-0.100,153.900,37170.000,-35340.000,929320.000,15000.000,-171000.000,10000.000,2096.542,666.183,-777.637,-33.839,47.594,212.686,-2024.245,3664.375,12308.517
1512179102,-18.400,-0.500,147.300,21970.000,-85140.000,925960.000,15000.000,-171000.000,10000.000,1527.843,47.430,-2.344,39.250,-32.366,131.110,-1130.019,2315.727,12900.238
1512179102,-36.900,-2.400,142.200,45470.000,-116940.000,846620.000,15000.000,-171000.000,10000.000,657.701,-738.499,814.909,57.810,14.453,69.566,-1362.288,665.382,13201.385
1512179102,-8.700,2.500,144.500,27590.000,-50720.000,973630.000,15000.000,-171000.000,10000.000,-38.038,-1337.351,1149.212,143.764,120.874,168.197,-2185.302,1039.146,13808.563
1512179102,-8.000,1.900,139.500,40340.000,-48950.000,892700.000,15000.000,-171000.000,10000.000,-552.009,-1365.366,1414.579,122.287,51.335,185.454,-3608.504,1412.010,14045.853
1512179102,34.900,-0.900,136.800,-15500.000,-26790.000,1013370.000,3000.000,-172000.000,11000.000,-871.728,-1147.648,1807.279,99.417,27.674,225.772,-5180.022,2159.645,14284.576
1512179102,10.100,2.900,124.100,41870.000,-7570.000,981260.000,3000.000,-172000.000,11000.000,-1084.915,-738.586,2213.915,88.126,21.187,241.846,-6973.876,3506.950,14450.500
1512179102,-39.800,-2.900,116.600,38940.000,-72940.000,935120.000,3000.000,-172000.000,11000.000,-1268.659,-85.877,2591.974,82.727,-28.829,152.412,-8167.510,4930.168,14386.368
1512179102,-16.600,-17.700,112.100,-9340.000,-64330.000,883420.000,3000.000,-172000.000,11000.000,-1179.457,321.725,2892.118,77.812,-107.150,-61.984,-9499.434,9053.169,13424.744
1512179102,-29.700,1.200,101.500,6100.000,-87340.000,891910.000,5000.000,-185000.000,20000.000,-417.671,202.651,2654.348,107.420,-46.628,-158.419,-10241.714,10777.061,13356.903
1512179102,17.400,22.600,101.300,-310.000,-58350.000,897460.000,5000.000,-185000.000,20000.000,580.952,140.902,1697.419,16.334,-42.416,-159.820,-10389.007,11376.839,13358.459
1512179102,5.700,24.200,97.700,40650.000,-89170.000,917660.000,5000.000,-185000.000,20000.000,1271.706,233.971,541.484,-24.423,-54.939,-102.747,-10390.929,10926.826,13583.252
1512179102,27.700,3.500,98.700,16600.000,-37960.000,955690.000,5000.000,-185000.000,20000.000,1387.040,649.867,-97.168,125.433,29.541,-3.871,-9946.471,9727.501,13278.885
1512179102,-35.800,-7.300,96.300,-16300.000,-48650.000,873900.000,5000.000,-185000.000,20000.000,975.150,789.922,62.591,146.610,-91.291,-16.874,-9575.255,8903.053,13125.305
1512179102,-18.400,-6.700,89.900,-370.000,-26060.000,931880.000,22000.000,-181000.000,10000.000,-235.321,607.680,536.939,131.266,-155.835,-93.218,-8750.823,8829.292,12668.259
1512179102,-20.600,3.500,81.900,-21360.000,-24840.000,999390.000,22000.000,-181000.000,10000.000,-1594.749,206.923,659.769,217.435,-24.244,-201.364,-8967.391,10703.972,12671.051
1512179102,-6.300,7.500,74.400,9640.000,-3420.000,992250.000,22000.000,-181000.000,10000.000,-2321.018,-207.065,398.348,248.197,107.095,-308.196,-9109.618,12503.746,11998.154
1512179102,-34.100,2.400,72.800,-5860.000,-23930.000,961850.000,22000.000,-181000.000,10000.000,-1907.865,-439.507,-36.222,200.567,173.192,-179.661,-9661.566,14865.425,11854.026
1512179102,-27.000,-12.000,59.700,-6230.000,-81910.000,1027160.000,22000.000,-181000.000,10000.000,-472.138,386.394,438.392,176.703,93.811,91.707,-9991.080,16664.940,11632.728
1512179102,-47.700,-20.200,61.400,-3420.000,10930.000,883730.000,3000.000,-179000.000,18000.000,265.458,1150.306,935.195,197.832,75.669,72.455,-8864.478,17116.623,10760.880
1512179102,-10.800,-12.300,56.300,-16050.000,-27040.000,988100.000,3000.000,-179000.000,18000.000,-234.706,588.769,919.065,60.317,128.926,146.488,-7249.610,17756.546,9734.970
1512179102,-17.300,-8.500,46.700,12210.000,-36620.000,908510.000,3000.000,-179000.000,18000.000,162.948,860.868,834.627,-56.263,70.557,360.046,-5970.771,18658.462,9312.050
1512179102,-1.700,-9.200,48.900,-12330.000,-2500.000,963870.000,3000.000,-179000.000,18000.000,306.729,1429.833,870.672,-121.174,37.778,337.700,-3907.477,18961.555,8169.655
1512179102,-12.900,-18.200,50.200,-18620.000,-26730.000,964600.000,19000.000,-185000.000,10000.000,-208.440,1339.803,623.562,-109.327,22.714,64.814,-1319.274,19227.936,7172.798
1512179102,-32.800,-17.800,54.600,-5980.000,-32040.000,941160.000,19000.000,-185000.000,10000.000,-477.871,481.122,338.430,-94.983,-35.403,-101.978,449.487,20693.100,6520.996
1512179102,-33.400,-14.000,54.600,10800.000,-47850.000,893680.000,19000.000,-185000.000,10000.000,-27.264,-167.012,553.250,-125.400,-124.231,-229.414,377.511,21405.487,6146.965
1512179102,-22.100,-6.300,53.300,26980.000,13370.000,936160.000,19000.000,-185000.000,10000.000,199.108,-25.846,376.325,-105.916,-206.208,-353.954,226.915,21292.755,5960.686
1512179102,12.100,-1.100,49.000,22030.000,-27220.000,1045170.000,19000.000,-185000.000,10000.000,250.536,-117.634,646.996,-29.959,-291.613,-503.516,37.515,20879.982,5887.085
1512179102,-0.900,-8.900,47.100,16850.000,-42910.000,986270.000,8000.000,-206000.000,23000.000,536.137,-534.903,664.605,-93.508,-211.391,-435.584,-712.692,20841.355,5818.444
1512179103,2.000,-6.700,43.700,46080.000,16300.000,967040.000,8000.000,-206000.000,23000.000,918.726,-377.201,-192.811,-118.836,-153.540,-203.735,-1655.547,19639.931,5938.354
1512179103,-1.300,5.100,41.000,3780.000,-48460.000,912600.000,8000.000,-206000.000,23000.000,1006.249,133.189,-562.891,-72.456,-160.993,-147.362,-2032.485,19189.369,6091.339
1512179103,21.700,12.900,33.300,10680.000,9030.000,937620.000,8000.000,-206000.000,23000.000,1024.546,467.941,-750.150,30.127,-114.848,-190.493,-1813.262,17914.696,6013.840
1512179103,17.200,43.800,29.800,20140.000,-32780.000,911070.000,8000.000,-206000.000,23000.000,1196.116,414.915,-813.946,94.051,-41.627,-99.531,-1296.096,16190.468,5858.582
1512179103,21.600,33.700,28.100,1770.000,-40710.000,1018010.000,22000.000,-206000.000,23000.000,1439.190,347.062,-882.083,27.070,47.580,49.969,-1076.583,14990.807,5706.116
1512179103,7.300,17.600,31.300,-25880.000,-730.000,962040.000,22000.000,-206000.000,23000.000,1598.938,453.275,-997.737,-39.748,120.656,211.024,-709.899,13116.356,5927.063
1512179103,-25.400,-2.500,32.100,-37720.000,-23250.000,960020.000,22000.000,-206000.000,23000.000,1761.319,767.719,-1066.779,-86.366,176.320,369.288,-118.148,11317.238,5621.140
1512179103,-17.400,-5.500,36.900,-19590.000,-4210.000,946590.000,22000.000,-206000.000,23000.000,1910.953,1242.228,-1067.225,-78.381,213.046,423.595,925.248,9818.810,5911.514
1512179103,-8.300,-6.800,33.200,-14400.000,-42420.000,947450.000,29000.000,-199000.000,16000.000,2017.737,1539.343,-1063.578,-84.790,295.190,475.520,2112.962,7045.586,6275.040
1512179103,14.000,-22.500,35.300,25450.000,-10500.000,974060.000,29000.000,-199000.000,16000.000,2053.503,1817.173,-1085.546,-97.561,380.857,528.199,4355.012,5248.955,6555.069
1512179103,11.600,-27.800,31.800,-9950.000,-109990.000,1031560.000,29000.000,-199000.000,16000.000,2015.764,2128.263,-1238.523,-103.264,418.049,516.438,6671.159,3227.425,7059.372
1512179103,8.500,-43.500,33.800,18620.000,-61220.000,895870.000,29000.000,-199000.000,16000.000,1798.594,2310.867,-1377.490,-71.843,437.031,444.637,9061.463,1056.007,7187.973
1512179103,-7.300,-38.200,36.600,-20260.000,-19170.000,927370.000,29000.000,-199000.000,16000.000,1369.134,2192.872,-1456.611,-21.294,427.607,337.532,11603.288,-815.178,7690.430
1512179103,31.300,-30.400,35.700,-29540.000,-25700.000,1030330.000,21000.000,-193000.000,25000.000,778.754,1690.797,-1365.640,19.292,436.362,255.561,14222.108,-2236.244,8117.462
1512179103,-1.300,-11.600,29.800,34480.000,-39250.000,927370.000,21000.000,-193000.000,25000.000,192.264,1023.008,-1194.163,-4.669,465.334,233.330,16247.299,-2233.208,8475.250
1512179103,-21.400,-9.700,31.000,40280.000,-45900.000,940730.000,21000.000,-193000.000,25000.000,-268.006,409.123,-1175.249,-31.776,523.774,266.187,17745.285,-2680.962,8462.296
1512179103,-2.800,-9.500,35.200,49800.000,-37290.000,949950.000,21000.000,-193000.000,25000.000,-654.571,193.078,-1340.445,-40.951,488.078,291.585,18646.896,-2304.604,8304.810
1512179103,-4.100,-12.700,38.200,30330.000,-60180.000,915590.000,21000.000,-193000.000,25000.000,-981.879,312.332,-1397.007,53.620,408.928,263.876,19699.081,-1778.038,7921.127
1512179103,20.500,2.400,40.200,24350.000,-1950.000,952450.000,10000.000,-193000.000,8000.000,-1311.008,684.119,-1137.165,144.926,296.804,53.286,20302.078,-1027.122,7166.382
1512179103,8.500,13.800,33.700,19650.000,-64760.000,945740.000,10000.000,-193000.000,8000.000,-1385.291,675.928,-835.511,227.596,287.350,-171.011,21356.308,-50.545,6857.925
1512179103,28.600,23.700,30.400,28500.000,-57560.000,958130.000,10000.000,-193000.000,8000.000,-1296.943,356.305,-648.781,243.776,291.761,-219.638,23391.937,2427.513,5791.855
1512179103,22.400,17.400,32.100,14650.000,-48220.000,953370.000,10000.000,-193000.000,8000.000,-1525.624,96.216,-563.450,292.859,161.014,-345.522,23248.383,3927.299,5193.817
1512179103,2.400,3.900,32.900,21670.000,-27650.000,906920.000,10000.000,-197000.000,11000.000,-1905.142,-243.207,-450.731,345.753,66.367,-452.166,23329.498,5352.409,4593.842
1512179103,5.500,9.600,35.200,-6960.000,-8540.000,960450.000,10000.000,-197000.000,11000.000,-2045.151,-447.856,-245.592,367.461,-41.899,-502.471,22888.153,7376.747,3698.608
1512179103,47.900,18.900,33.000,-35340.000,-23250.000,1011600.000,10000.000,-197000.000,11000.000,-1963.889,-554.081,57.977,353.633,-136.926,-577.851,22594.604,8876.305,3101.852
1512179103,34.200,21.700,32.100,22160.000,-51270.000,944210.000,10000.000,-197000.000,11000.000,-1792.351,-763.561,247.360,344.935,-169.089,-641.035,21776.764,10525.078,2584.625
1512179103,30.200,23.700,28.600,14530.000,-71040.000,960570.000,10000.000,-197000.000,11000.000,-1321.824,-986.000,471.414,344.921,-195.732,-520.528,20059.188,12210.007,2262.573
1512179103,39.800,8.700,36.900,30330.000,-13000.000,875980.000,29000.000,-192000.000,30000.000,-1549.101,-767.964,1044.018,166.627,-264.842,-433.197,17782.066,14569.100,1795.616
1512179103,27.200,0.900,36.800,6840.000,-24720.000,947810.000,29000.000,-192000.000,30000.000,-1092.412,-852.982,1176.133,93.304,-167.308,-492.210,16031.326,17191.467,1699.303
1512179103,24.900,0.000,40.300,30030.000,-28020.000,919740.000,29000.000,-192000.000,30000.000,-24.619,-894.273,1003.833,12.188,-38.372,-96.889,13894.906,17413.269,1867.577
1512179103,11.900,13.000,38.900,48460.000,-44620.000,880550.000,29000.000,-192000.000,30000.000,277.885,-227.116,664.068,36.411,-1.109,114.724,12655.923,17036.408,2290.405
1512179103,40.600,21.600,38.200,41320.000,-31740.000,1026370.000,29000.000,-192000.000,30000.000,444.271,47.963,510.189,53.648,-6.554,225.870,12804.291,16624.123,2738.945
1512179103,47.900,19.000,38.900,14400.000,10740.000,1051940.000,8000.000,-199000.000,20000.000,680.284,-2.209,676.541,50.079,-35.616,362.630,12498.856,15386.169,3003.418
1512179103,31.300,12.900,34.500,-370.000,-35710.000,1033330.000,8000.000,-199000.000,20000.000,274.956,-373.714,1060.622,-18.549,35.696,492.980,11968.980,14260.376,3382.363
1512179103,28.100,17.700,37.800,25270.000,-9280.000,1010740.000,8000.000,-199000.000,20000.000,-346.842,-274.580,953.346,-55.224,71.392,442.747,10845.018,14483.688,3467.034
1512179103,-5.100,19.400,41.400,26860.000,9340.000,977230.000,8000.000,-199000.000,20000.000,-437.666,-121.087,779.864,19.538,-8.875,155.529,10360.543,15120.460,3771.469
1512179103,-23.400,5.600,44.500,4820.000,-24480.000,933900.000,12000.000,-188000.000,16000.000,-102.633,-84.418,860.534,62.277,-99.063,-51.220,9878.084,16244.743,3738.625
1512179103,-11.200,-7.900,47.000,28930.000,34120.000,912410.000,12000.000,-188000.000,16000.000,-463.861,-453.978,832.694,12.784,-154.352,-131.917,9354.302,16468.956,4155.686
1512179104,8.900,-6.500,46.200,-22160.000,-12210.000,963130.000,12000.000,-188000.000,16000.000,-818.154,-564.318,720.574,-2.450,-198.575,-272.343,7932.603,17179.314,4355.637
1512179104,11.300,-3.100,44.100,-62560.000,-15690.000,978270.000,12000.000,-188000.000,16000.000,-613.572,-544.539,597.809,-6.141,-166.590,-343.277,7333.863,17478.416,4210.861
1512179104,8.800,18.000,43.500,15380.000,-18860.000,857670.000,12000.000,-188000.000,16000.000,-74.229,-509.036,345.628,-11.509,-124.426,-351.345,6812.852,18302.635,4740.707
1512179104,60.900,29.400,47.700,-33630.000,-51760.000,985780.000,7000.000,-197000.000,15000.000,472.050,-480.933,60.474,-16.208,-150.671,-294.581,6739.228,18602.531,4816.483
1512179104,27.200,25.400,44.100,42420.000,-50720.000,867490.000,7000.000,-197000.000,15000.000,617.856,-628.952,-61.593,-33.800,-162.654,-228.138,6359.574,17551.964,4969.193
1512179104,-10.900,15.400,41.900,27040.000,-50170.000,904720.000,7000.000,-197000.000,15000.000,376.445,-895.205,-109.724,-84.694,-143.124,-161.592,5532.411,17025.719,5350.952
1512179104,14.900,15.300,46.600,1460.000,-13610.000,989200.000,7000.000,-197000.000,15000.000,-30.497,-1070.708,-265.480,-117.565,-92.203,-119.968,4781.236,16724.586,5732.193
1512179104,-9.100,24.400,45.100,21970.000,-28990.000,934510.000,7000.000,-197000.000,15000.000,-316.002,-1071.679,-536.135,-86.424,-22.062,-128.922,3581.056,16647.789,6042.358
1512179104,19.000,37.700,46.100,15260.000,-36930.000,989620.000,12000.000,-192000.000,30000.000,-165.533,-876.518,-793.389,-11.711,49.993,-163.162,2456.574,16721.107,6426.956
1512179104,10.400,39.000,50.100,11600.000,-54320.000,900330.000,12000.000,-192000.000,30000.000,378.089,-614.832,-907.205,48.060,76.929,-146.133,1633.698,17169.868,6659.164
1512179104,1.200,29.300,49.800,3050.000,-36380.000,935060.000,12000.000,-192000.000,30000.000,915.679,-420.648,-915.797,52.701,69.726,-73.434,1480.180,16344.643,7035.065
1512179104,4.000,19.800,47.500,28260.000,-22280.000,920350.000,12000.000,-192000.000,30000.000,1091.741,-330.765,-856.431,52.466,43.178,9.568,1249.513,15069.298,7186.386
1512179104,-6.800,18.500,49.900,14400.000,-30150.000,906250.000,1000.000,-192000.000,16000.000,905.184,-374.028,-729.225,48.352,22.471,84.327,1245.728,14169.289,7710.953
1512179104,20.100,27.000,50.700,60.000,-14470.000,968690.000,1000.000,-192000.000,16000.000,508.991,-459.352,-562.561,53.595,-0.946,129.118,942.735,13493.828,7788.208
1512179104,32.100,32.900,54.600,36010.000,-43820.000,910030.000,1000.000,-192000.000,16000.000,165.543,-524.367,-360.948,53.415,21.990,165.501,564.881,12818.275,8166.077
1512179104,39.400,32.000,52.700,39060.000,-93320.000,921510.000,1000.000,-192000.000,16000.000,121.719,-527.910,-225.141,44.668,84.584,179.254,190.293,12892.708,8319.305
1512179104,54.600,17.600,50.900,53770.000,-124450.000,885800.000,1000.000,-192000.000,16000.000,422.998,-457.001,-196.007,46.625,147.838,178.893,-410.918,12591.805,8624.252
1512179104,22.800,4.400,51.300,79710.000,-98450.000,845340.000,7000.000,-193000.000,15000.000,909.898,-288.473,-235.274,31.480,161.695,234.344,-412.032,12291.801,9074.127
1512179104,22.800,-19.200,54.600,32040.000,-81240.000,866330.000,7000.000,-193000.000,15000.000,1201.211,-6.017,-238.600,33.021,141.904,272.130,-793.120,10941.231,9076.691
1512179104,67.900,-20.200,58.500,-8300.000,-39370.000,1005310.000,7000.000,-193000.000,15000.000,1152.953,141.146,-149.237,51.853,101.798,237.629,-645.507,10341.454,9675.125
1512179104,53.400,-24.100,60.100,-11050.000,-30210.000,979800.000,7000.000,-193000.000,15000.000,732.617,-57.514,53.996,77.050,102.693,192.211,-498.107,9741.676,9898.575
1512179104,34.800,-30.900,70.300,-36320.000,-40530.000,949770.000,-1000.000,-223000.000,13000.000,176.605,-331.057,205.963,69.374,100.109,185.005,-501.372,8991.676,10123.230
1512179104,11.300,-51.900,73.200,3420.000,9640.000,946170.000,-1000.000,-223000.000,13000.000,-169.207,-453.529,289.007,71.183,120.503,142.134,-1103.728,8465.767,10128.082
1512179104,-19.800,-47.700,75.200,27340.000,-9520.000,952270.000,-1000.000,-223000.000,13000.000,-189.266,-435.503,343.150,70.804,122.858,118.568,-1329.711,8240.425,10204.895
1512179104,19.700,-44.900,80.000,-33750.000,-33750.000,1075260.000,-1000.000,-223000.000,13000.000,18.936,-222.910,496.157,65.011,81.444,113.254,-2037.330,9251.869,10848.915
1512179104,40.500,-24.600,82.600,45170.000,-28870.000,1009520.000,-1000.000,-223000.000,13000.000,-397.187,6.795,690.278,41.983,59.452,17.522,-2595.007,10301.033,11041.679
1512179104,1.900,-17.000,83.400,59570.000,-110110.000,952580.000,1000.000,-199000.000,20000.000,-709.364,98.326,619.980,85.570,79.759,-236.724,-2663.588,11763.420,10742.997
1512179104,26.200,-6.700,90.500,39370.000,-77030.000,1012020.000,1000.000,-199000.000,20000.000,-0.300,77.785,480.932,128.810,47.927,-209.813,-2622.351,12588.486,10780.556
1512179104,-6.500,2.100,96.900,75500.000,-52430.000,912900.000,1000.000,-199000.000,20000.000,-350.093,254.067,464.750,115.549,-61.218,-167.523,-2620.208,13075.996,10668.281
1512179104,17.300,9.100,100.700,68790.000,-76480.000,916990.000,1000.000,-199000.000,20000.000,-791.124,-152.916,393.514,194.250,10.364,-301.530,-2501.472,14463.669,10667.969
1512179104,59.700,11.900,106.400,58720.000,-29540.000,1001530.000,1000.000,-199000.000,20000.000,60.111,-248.025,259.998,196.530,34.138,-68.962,-3172.256,15362.664,11011.612
1512179104,31.700,12.700,112.500,38940.000,-87650.000,942990.000,-8000.000,-209000.000,16000.000,636.982,603.738,228.142,222.099,-4.775,118.812,-2763.442,14538.276,11045.227
1512179104,15.200,2.100,116.200,45650.000,-64760.000,847410.000,-8000.000,-209000.000,16000.000,461.260,629.560,542.842,211.190,30.164,147.537,-1153.434,14015.694,10768.783
1512179104,36.800,3.100,121.400,52060.000,-70130.000,915650.000,-8000.000,-209000.000,16000.000,27.895,-33.024,898.849,107.688,110.128,283.033,-1228.797,13940.582,10731.887
1512179104,32.400,0.300,126.000,45840.000,-2990.000,955380.000,-8000.000,-209000.000,16000.000,-55.342,-46.703,1000.471,11.451,135.409,401.692,-1600.303,14690.025,10960.419
1512179104,41.500,15.300,125.000,59080.000,-39730.000,934510.000,-17000.000,-204000.000,5000.000,16.959,435.757,970.680,0.152,93.227,293.219,-1559.768,15365.082,10960.411
1512179104,25.400,35.400,128.600,64700.000,-68050.000,909670.000,-17000.000,-204000.000,5000.000,-48.978,306.027,889.851,12.789,43.966,37.762,-995.497,15778.428,10768.326
1512179105,34.500,26.500,132.800,61710.000,-64150.000,961550.000,-17000.000,-204000.000,5000.000,19.084,-113.586,847.269,-23.929,-63.051,-41.101,-768.249,16266.273,10879.135
1512179105,14.600,23.400,134.000,46750.000,-66280.000,946170.000,-17000.000,-204000.000,5000.000,-40.991,-256.973,927.988,-60.252,-131.515,-50.208,-1141.112,16715.706,11107.529
1512179105,-20.100,33.000,137.200,75500.000,-71530.000,769350.000,-17000.000,-204000.000,5000.000,-260.338,-365.285,971.338,-118.132,-135.628,-54.083,-1439.803,17015.266,11035.217
1512179105,-0.300,39.000,143.000,44800.000,-36380.000,945430.000,1000.000,-230000.000,6000.000,-441.664,-283.069,852.801,-169.215,-134.191,-91.639,-1660.644,17914.925,11262.543
1512179105,-30.400,31.600,146.200,32290.000,-19900.000,896790.000,1000.000,-230000.000,6000.000,-529.022,-92.442,534.509,-169.885,-121.416,-171.039,-2109.588,18139.259,11341.476
1512179105,-12.900,34.800,153.900,5800.000,-54320.000,1045040.000,1000.000,-230000.000,6000.000,-462.621,8.861,132.853,-125.113,-111.311,-283.854,-1808.730,18364.708,11039.032
1512179105,14.900,20.800,164.300,-550.000,39060.000,1085080.000,1000.000,-230000.000,6000.000,-119.240,-44.306,-264.261,-78.221,-117.946,-334.430,-1958.236,18439.476,11340.332
1512179105,0.500,12.300,164.800,1890.000,-3170.000,913700.000,1000.000,-230000.000,6000.000,272.118,-89.109,-531.656,-84.013,-147.782,-258.224,-17715.683,3890.039,-18739.288
1512179105,9.500,4.400,168.200,11050.000,-57860.000,949770.000,-3000.000,-225000.000,8000.000,338.258,42.755,-722.131,-110.657,-193.731,-179.047,-17867.264,3514.811,-18513.199
1512179105,-19.000,4.400,168.700,56760.000,-32780.000,953860.000,-3000.000,-225000.000,8000.000,16.979,262.624,-881.667,-84.901,-177.666,-193.321,-17646.088,2690.149,-18740.479
1512179105,19.300,0.300,172.400,55850.000,-65310.000,1050350.000,-3000.000,-225000.000,8000.000,-252.509,347.814,-955.634,-4.524,-93.026,-276.182,-17346.085,2690.592,-18743.042
1512179105,17.400,8.700,173.600,60550.000,-62320.000,948360.000,-3000.000,-225000.000,8000.000,-63.711,231.690,-968.230,52.589,41.475,-301.467,-16973.785,2091.150,-18746.506
1512179105,13.400,11.500,173.500,102540.000,-91980.000,934630.000,0.000,-222000.000,11000.000,486.745,3.071,-1065.519,50.423,122.958,-184.536,-16447.433,2391.947,-18750.824
1512179105,17.400,9.100,177.400,90330.000,-83860.000,955440.000,0.000,-222000.000,11000.000,949.837,-85.764,-1160.395,0.588,100.989,-4.001,-16602.875,1191.706,-18825.104
1512179105,47.500,19.300,190.900,38570.000,-36930.000,990300.000,0.000,-222000.000,11000.000,1104.625,10.627,-1168.478,-14.352,77.052,141.459,-16231.125,442.270,-18603.638
1512179105,18.800,23.700,189.600,66280.000,-30460.000,928890.000,0.000,-222000.000,11000.000,982.356,168.295,-1052.439,-29.844,62.630,205.921,-16012.512,-982.412,-18531.204
1512179105,66.400,29.300,192.400,64210.000,-68600.000,1080380.000,0.000,-222000.000,11000.000,697.466,225.250,-904.988,-25.007,71.676,198.450,-15867.035,-2032.187,-18157.974
1512179105,-12.800,25.200,197.500,115360.000,-56880.000,831670.000,0.000,-236000.000,8000.000,465.319,188.226,-728.317,-15.292,87.207,166.925,-15194.519,-2556.173,-18388.947
1512179105,-17.600,32.100,199.100,79350.000,-54630.000,846560.000,0.000,-236000.000,8000.000,379.780,64.856,-524.233,1.584,116.004,129.709,-15122.513,-3231.070,-18314.896
1512179105,23.200,33.700,205.300,75620.000,-77390.000,969060.000,0.000,-236000.000,8000.000,412.102,-128.761,-360.265,3.410,135.054,124.039,-14975.250,-3830.847,-18391.449
1512179105,28.400,27.200,211.900,91370.000,-57800.000,1018010.000,0.000,-236000.000,8000.000,414.370,-275.328,-246.675,-22.335,154.926,165.574,-14975.250,-3830.847,-18391.449
1512179105,39.400,32.400,220.200,118040.000,-66710.000,911500.000,0.000,-236000.000,8000.000,362.385,-318.231,-199.606,-36.815,154.466,191.131,-15126.083,-4056.082,-18015.274
1512179105,37.800,31.200,225.700,63660.000,-90760.000,878540.000,3000.000,-246000.000,11000.000,266.286,-283.270,-123.050,-29.713,122.111,189.989,-15276.230,-4131.308,-17639.038
1512179105,35.200,48.600,231.400,144170.000,-70680.000,915410.000,3000.000,-246000.000,11000.000,128.824,-217.504,6.314,-9.900,105.660,151.687,-15428.177,-4581.533,-17487.961
1512179105,48.600,44.700,239.200,77090.000,-115480.000,1008850.000,3000.000,-246000.000,11000.000,8.516,-172.003,127.322,9.590,104.180,100.008,-15352.798,-4506.414,-17413.574
1512179105,54.500,24.800,251.100,86180.000,-79900.000,1045230.000,3000.000,-246000.000,11000.000,-39.630,-149.796,203.457,19.216,97.707,52.517,-15576.874,-4281.759,-17561.554
1512179105,-13.700,13.800,260.200,110110.000,-96680.000,911560.000,12000.000,-245000.000,6000.000,-139.186,-191.779,291.419,39.466,51.188,-14.017,-15802.117,-4357.092,-17372.177
1512179105,14.400,8.000,271.100,79770.000,-75500.000,1013730.000,12000.000,-245000.000,6000.000,-280.177,-302.296,431.844,49.809,24.321,-45.866,-16173.699,-3607.649,-17293.656
1512179105,-12.300,-10.400,280.800,70130.000,-54750.000,976200.000,12000.000,-245000.000,6000.000,-261.813,9.647,432.663,83.194,-0.054,-81.457,-16695.664,-2933.432,-17288.879
1512179105,-49.500,-12.400,284.700,147770.000,-112370.000,953120.000,12000.000,-245000.000,6000.000,-378.670,155.846,414.954,186.110,-5.998,-194.788,-16803.322,-1808.592,-17737.397
1512179105,-67.200,-19.700,294.300,115480.000,-61890.000,922360.000,12000.000,-245000.000,6000.000,229.504,212.248,450.078,195.279,-20.005,-101.038,-16313.240,-1245.360,-17628.784
1512179105,-21.700,-14.000,298.700,112790.000,-133060.000,993960.000,10000.000,-239000.000,18000.000,182.462,493.223,666.252,145.941,6.839,-10.358,-15638.443,-1281.843,-17709.533
1512179105,-52.100,-0.700,310.800,154540.000,-101870.000,799380.000,10000.000,-239000.000,18000.000,-502.231,229.733,767.885,146.473,92.833,-10.842,-15335.007,-493.887,-17936.722
1512179105,-18.900,7.100,315.500,140690.000,-91490.000,892580.000,10000.000,-239000.000,18000.000,-834.018,198.692,813.609,114.547,159.348,72.344,-15177.674,1156.351,-18124.733
1512179105,23.400,24.600,320.600,132450.000,-143800.000,984990.000,10000.000,-239000.000,18000.000,-516.965,809.621,558.076,146.276,166.175,39.990,-13550.925,3498.309,-15464.542
1512179105,36.900,25.800,323.400,190920.000,-103520.000,948120.000,10000.000,-239000.000,18000.000,399.781,907.935,437.378,179.710,74.400,78.919,-11067.036,4641.560,-12774.735
1512179105,5.600,18.800,332.800,137330.000,-149660.000,877500.000,12000.000,-252000.000,20000.000,688.911,506.539,532.380,83.586,28.552,239.196,-9869.892,4043.354,-13085.205
1512179105,51.000,19.000,346.300,128540.000,-52490.000,1023380.000,12000.000,-252000.000,20000.000,248.190,199.748,577.703,-23.073,-3.517,344.511,-9496.524,3668.919,-12976.067
1512179106,37.700,12.900,352.600,32590.000,-42420.000,951480.000,12000.000,-252000.000,20000.000,-138.227,199.689,575.299,-69.428,-32.124,315.545,-9307.858,3931.698,-13015.038
1512179106,19.400,0.000,356.300,122990.000,-12020.000,1005680.000,12000.000,-252000.000,20000.000,-241.440,320.253,569.961,-83.013,-55.866,250.610,-9159.542,3556.927,-13016.487
1512179106,-25.800,-24.900,365.400,90390.000,-32410.000,927060.000,10000.000,-271000.000,8000.000,-188.844,492.339,556.397,-88.238,-81.687,196.754,-7065.788,6423.119,-7937.950
1512179106,11.200,-46.500,377.000,67200.000,-45530.000,1029360.000,10000.000,-271000.000,8000.000,-79.246,773.515,517.384,-125.609,-108.899,200.791,-6391.243,6349.129,-8168.709
1512179106,-33.200,-40.700,371.200,86180.000,-111940.000,971440.000,10000.000,-271000.000,8000.000,-80.429,1122.896,477.007,-119.881,-193.571,101.789,-5716.347,6350.136,-8399.452
1512179106,10.800,-28.100,386.800,65430.000,-15990.000,1164920.000,10000.000,-271000.000,8000.000,-126.833,1128.916,641.598,-40.734,-209.625,-88.066,-4513.985,6876.930,-8409.401
1512179106,-47.500,-12.000,366.700,140200.000,-218440.000,950680.000,10000.000,-271000.000,8000.000,-340.170,849.543,764.394,-31.539,-225.109,-223.185,-3688.042,7103.172,-8566.322
1512179106,-44.600,-1.500,392.500,199520.000,-119450.000,843260.000,26000.000,-266000.000,0.000,-847.479,516.603,739.894,-25.792,-215.094,-345.314,-3008.919,8004.189,-8421.638
1512179106,-61.400,9.500,380.700,202580.000,-129210.000,930790.000,26000.000,-266000.000,0.000,-1359.528,61.026,609.360,-11.631,-158.917,-500.762,-1509.151,10080.189,-5300.819
1512179106,-41.500,21.700,393.300,189700.000,-100100.000,1008420.000,26000.000,-266000.000,0.000,-1419.795,-472.671,359.305,-30.227,-93.758,-590.315,-1654.690,11054.966,-5149.101
1512179106,-27.400,31.600,396.100,153630.000,-106260.000,1026370.000,26000.000,-266000.000,0.000,-1038.451,-848.399,-28.788,-93.754,-78.496,-557.408,-1874.035,12329.639,-5296.593
1512179106,24.900,30.000,410.500,123540.000,-101500.000,1090940.000,26000.000,-266000.000,0.000,-653.790,-859.759,-471.001,-129.319,-93.433,-433.788,-2696.819,12778.400,-4914.375
1512179106,-24.000,21.300,416.100,136600.000,-85210.000,946660.000,38000.000,-285000.000,28000.000,-431.625,-431.232,-927.892,-78.777,-80.170,-358.811,-3595.806,13002.048,-4906.624
1512179106,-42.500,-7.200,427.300,113280.000,-139400.000,879210.000,38000.000,-285000.000,28000.000,6.707,140.332,-1170.078,29.518,-46.095,-407.897,-3629.723,13982.254,-5064.735
1512179106,-14.400,-19.700,437.600,97050.000,-101440.000,952820.000,38000.000,-285000.000,28000.000,736.423,269.558,-1131.338,88.189,58.387,-411.832,-3482.155,13457.489,-5216.255
1512179106,4.000,-7.100,432.500,147770.000,-110660.000,1016720.000,38000.000,-285000.000,28000.000,1350.157,-105.640,-1066.185,27.324,162.447,-238.103,-3637.215,12332.245,-5215.492
1512179106,29.000,-1.200,436.100,103820.000,-127810.000,1007630.000,31000.000,-292000.000,28000.000,1532.428,-427.673,-1209.648,-56.211,177.757,9.144,-3568.367,10982.346,-5366.753
1512179106,-28.800,4.900,434.500,206300.000,-143920.000,851560.000,31000.000,-292000.000,28000.000,1419.042,-467.161,-1318.036,-87.306,145.946,201.532,-4022.499,10081.665,-5513.344
1512179106,-33.700,34.200,429.200,234190.000,-164250.000,798460.000,31000.000,-292000.000,28000.000,1165.921,-293.506,-1281.657,-99.467,117.334,304.302,-4404.655,8431.091,-4985.924
1512179106,25.700,56.200,433.700,205140.000,-169310.000,905520.000,31000.000,-292000.000,28000.000,902.532,-0.318,-1198.101,-100.623,98.064,307.715,-4556.725,7980.865,-5059.853
1512179106,-24.400,54.500,434.200,217960.000,-202880.000,885740.000,31000.000,-292000.000,28000.000,679.833,240.492,-1062.966,-54.629,92.494,224.784,-4711.189,7005.630,-5209.023
1512179106,-28.500,56.100,443.900,195130.000,-214110.000,887940.000,40000.000,-297000.000,20000.000,511.844,238.708,-831.941,-14.428,100.591,134.662,-3966.652,5806.763,-5365.959
1512179106,-1.600,60.700,452.900,130490.000,-62260.000,997190.000,40000.000,-297000.000,20000.000,440.778,7.422,-606.706,10.221,131.865,74.820,-4343.910,5281.189,-5138.023
1512179106,21.000,61.500,467.700,187870.000,-193540.000,881160.000,40000.000,-297000.000,20000.000,470.645,-331.501,-430.487,14.245,143.509,79.357,-4566.887,5730.850,-5135.902
1512179106,-1.700,68.700,458.600,151430.000,-90390.000,796690.000,40000.000,-297000.000,20000.000,491.970,-548.543,-311.532,-2.717,121.223,129.640,-4418.755,5281.082,-4837.379
1512179106,29.300,55.000,467.500,86610.000,-187680.000,967770.000,49000.000,-299000.000,15000.000,467.110,-591.602,-163.861,-5.274,97.628,165.879,-4871.758,4605.392,-4758.873
1512179106,-7.900,29.300,467.500,155820.000,-161320.000,866330.000,49000.000,-299000.000,15000.000,379.201,-492.373,97.462,11.215,73.098,170.694,-5585.541,4304.329,-4602.951
1512179106,43.900,33.200,469.200,135130.000,-83010.000,1066890.000,49000.000,-299000.000,15000.000,110.305,-390.852,408.407,38.567,67.028,110.193,-6561.668,4040.359,-4482.284
1512179106,34.500,30.900,466.500,145570.000,-120300.000,942500.000,49000.000,-299000.000,15000.000,-58.835,-354.664,614.497,37.745,56.778,80.934,-7049.485,3964.630,-4440.682
1512179106,22.800,26.400,466.300,140810.000,-130000.000,981200.000,49000.000,-299000.000,15000.000,-394.382,-29.506,678.994,49.039,17.502,20.575,-8096.978,4525.559,-4468.994
1512179106,27.300,26.100,459.800,168210.000,-175960.000,1025940.000,59000.000,-313000.000,35000.000,-719.099,233.466,601.649,163.809,3.142,-154.791,-8240.807,5912.842,-4617.081
1512179106,54.200,12.300,464.900,142330.000,-109920.000,1031620.000,59000.000,-313000.000,35000.000,-666.495,-118.284,529.760,157.258,-8.343,-197.186,-8086.136,6963.074,-4730.369
1512179106,23.800,9.900,466.600,176570.000,-138060.000,992430.000,59000.000,-313000.000,35000.000,-884.136,65.990,354.545,86.875,-16.060,-114.035,-8338.646,9212.699,-4989.593
1512179106,20.600,-6.100,470.000,159240.000,-148990.000,1043400.000,59000.000,-313000.000,35000.000,-825.570,200.973,203.951,210.535,33.672,-290.057,-7879.494,11275.886,-5254.967
1512179106,54.700,-8.400,474.800,152770.000,-84660.000,1010500.000,66000.000,-313000.000,28000.000,232.757,41.403,147.303,212.148,14.581,-63.896,-7941.605,11337.818,-4914.276
1512179106,73.600,-13.200,482.800,92770.000,-129030.000,985840.000,66000.000,-313000.000,28000.000,634.344,758.633,492.492,231.976,-16.814,153.026,-7381.370,10851.155,-5069.283
1512179106,36.600,-0.500,480.300,164310.000,-134460.000,837220.000,66000.000,-313000.000,28000.000,316.827,673.837,995.573,213.033,70.158,194.462,-5770.577,10516.071,-5458.153
1512179106,20.600,26.800,476.000,173460.000,-126280.000,862920.000,66000.000,-313000.000,28000.000,-293.375,-11.586,1148.518,131.336,125.470,270.098,-5843.360,11003.460,-5419.792
1512179107,113.200,20.500,486.400,104800.000,-136900.000,1041930.000,66000.000,-313000.000,28000.000,-367.561,-225.988,1209.065,62.114,132.084,330.844,-5728.203,11603.642,-5495.461
1512179107,44.900,23.000,473.100,176270.000,-109800.000,911740.000,70000.000,-324000.000,28000.000,-244.994,-73.069,1217.767,2.094,127.091,350.429,-5725.655,12203.632,-5795.189
1512179107,61.300,23.200,473.000,113590.000,-109620.000,975340.000,70000.000,-324000.000,28000.000,-197.499,171.798,1129.760,-48.295,117.410,321.189,-5874.214,12503.422,-5643.776
1512179107,97.300,11.300,463.400,153810.000,-135500.000,987610.000,70000.000,-324000.000,28000.000,-187.607,381.454,993.113,-67.378,92.743,249.260,-5648.888,12578.754,-5645.653
1512179107,37.000,17.800,463.100,150450.000,-137020.000,886780.000,70000.000,-324000.000,28000.000,-123.566,549.503,866.696,-72.501,33.266,162.435,-5271.965,13029.316,-5873.634
1512179107,30.800,26.000,460.700,142940.000,-185240.000,825740.000,70000.000,-324000.000,28000.000,-93.530,558.246,791.472,-71.133,-29.418,81.676,-5045.052,13479.664,-6100.334
1512179107,59.500,19.000,462.600,165770.000,-121830.000,843810.000,68000.000,-322000.000,23000.000,-248.808,401.038,760.955,-107.373,-71.784,77.148,-4070.061,13481.129,-6108.620
1512179107,53.800,33.200,459.700,128110.000,-149900.000,923770.000,68000.000,-322000.000,23000.000,-528.113,341.996,693.808,-166.851,-103.835,43.473,-3541.649,14231.922,-6037.743
1512179107,79.200,22.000,459.700,138730.000,-101930.000,952760.000,68000.000,-322000.000,23000.000,-731.269,390.057,538.583,-180.064,-118.725,-79.765,-3465.324,14532.032,-6113.228
1512179107,53.700,15.700,459.500,132140.000,-135010.000,904720.000,68000.000,-322000.000,23000.000,-702.029,340.210,378.924,-167.235,-98.453,-229.656,-2935.265,15657.825,-6117.180
1512179107,77.600,12.900,458.900,74100.000,-99300.000,997070.000,75000.000,-350000.000,20000.000,-515.468,206.307,179.681,-165.135,-82.707,-326.452,-3010.597,15582.706,-6116.570
1512179107,31.300,9.900,457.700,133790.000,-58840.000,934450.000,75000.000,-350000.000,20000.000,-276.666,42.690,-88.211,-178.184,-78.442,-365.003,-3004.494,16932.728,-6040.947
1512179107,48.300,14.500,450.700,40280.000,-138120.000,1050110.000,75000.000,-350000.000,20000.000,-99.961,-61.105,-400.498,-190.239,-102.855,-365.299,-3081.551,16482.609,-6115.517
1512179107,75.200,18.400,453.300,101810.000,-98080.000,1041440.000,75000.000,-350000.000,20000.000,-29.987,-55.066,-700.093,-197.807,-143.774,-351.287,-3005.165,16782.719,-6041.023
1512179107,31.400,15.700,447.300,105530.000,-104740.000,985350.000,75000.000,-350000.000,20000.000,-40.822,108.822,-940.611,-169.235,-161.269,-350.991,-3305.534,16707.264,-6113.503
1512179107,53.000,17.400,443.800,115170.000,-177060.000,1028630.000,82000.000,-347000.000,27000.000,-95.063,392.054,-1064.075,-86.439,-137.881,-400.376,-3156.441,16482.487,-5889.885
1512179107,3.500,18.600,439.600,175350.000,-108400.000,816890.000,82000.000,-347000.000,27000.000,-22.301,492.600,-1075.463,6.155,-43.074,-476.058,-2854.820,16857.944,-6042.259
1512179107,-0.400,13.000,439.300,118350.000,-163390.000,801270.000,82000.000,-347000.000,27000.000,213.585,90.195,-1047.860,47.002,58.471,-449.793,-2705.879,16633.167,-6118.645
1512179107,73.200,13.300,439.300,67630.000,-100280.000,988830.000,82000.000,-347000.000,27000.000,507.120,-531.073,-1036.175,-11.745,126.928,-253.960,-3006.218,16557.713,-6116.127
1512179107,53.700,12.300,440.900,25700.000,-100650.000,921080.000,82000.000,-347000.000,27000.000,658.241,-790.292,-1097.785,-86.348,151.231,-18.535,-4061.165,15506.138,-6557.686
1512179107,46.700,10.900,436.600,57130.000,-81240.000,1037600.000,96000.000,-364000.000,37000.000,693.124,-661.845,-1202.371,-125.954,162.149,143.357,-4889.351,14754.887,-6176.018
1512179107,31.600,22.400,439.200,114200.000,-124940.000,949650.000,96000.000,-364000.000,37000.000,736.244,-337.964,-1280.575,-118.302,141.712,206.171,-5716.682,14228.657,-6094.246
1512179107,23.300,25.600,432.000,113650.000,-169070.000,898860.000,96000.000,-364000.000,37000.000,844.614,-65.477,-1245.009,-78.821,136.651,192.499,-5572.868,12878.864,-6321.144
1512179107,42.700,18.900,430.600,121700.000,-90390.000,934140.000,96000.000,-364000.000,37000.000,951.679,14.593,-1139.772,-52.717,143.712,172.190,-5649.178,12578.754,-6245.644
1512179107,24.800,22.000,422.800,86850.000,-103940.000,1036990.000,101000.000,-373000.000,28000.000,978.822,-47.507,-1042.580,-39.730,150.872,175.472,-6028.694,11603.184,-6467.903
1512179107,21.700,19.300,418.600,120300.000,-185240.000,930730.000,101000.000,-373000.000,28000.000,914.101,-158.905,-937.299,-28.549,145.692,187.789,-6035.439,10103.168,-6468.590
1512179107,-0.400,30.200,417.200,138180.000,-123350.000,893740.000,101000.000,-373000.000,28000.000,701.413,-312.355,-750.625,-19.397,127.209,206.390,-6455.231,8490.040,-6540.841
1512179107,-9.900,22.600,419.300,135500.000,-113040.000,834230.000,101000.000,-373000.000,28000.000,435.680,-324.991,-507.726,-1.610,99.468,185.991,-7170.884,7738.972,-6085.137
1512179107,66.000,19.700,417.300,89720.000,-99790.000,995970.000,101000.000,-373000.000,28000.000,290.978,-255.323,-198.292,60.897,43.691,100.418,-7811.119,7138.012,-6154.991
1512179107,31.000,21.000,410.000,106810.000,-106080.000,946110.000,107000.000,-371000.000,30000.000,-39.677,-388.120,258.593,78.871,31.556,-4.608,-8564.384,6386.875,-5923.966
1512179107,9.900,28.200,401.600,68730.000,-92710.000,910830.000,107000.000,-371000.000,30000.000,-329.822,-716.273,415.289,65.820,34.415,-37.332,-9349.075,6985.707,-5691.993
1512179107,39.700,31.800,395.100,104740.000,-119510.000,937740.000,107000.000,-371000.000,30000.000,-289.575,-324.252,450.284,63.463,19.331,-49.101,-10810.379,7246.006,-5641.945
1512179107,67.200,44.200,390.000,59080.000,-74040.000,1056150.000,107000.000,-371000.000,30000.000,-164.886,8.898,339.179,83.940,13.961,-113.484,-11367.798,8370.174,-5599.144
1512179107,24.000,40.600,381.200,108090.000,-92650.000,942440.000,122000.000,-373000.000,32000.000,-516.621,298.491,286.057,22.610,-31.889,-21.553,-11402.954,8857.624,-5298.592
1512179107,59.800,50.700,381.000,102720.000,-37050.000,1021060.000,122000.000,-373000.000,32000.000,-1614.971,552.773,220.390,127.072,89.952,-277.645,-10759.079,10321.087,-5715.843
1512179107,8.800,48.900,368.800,116210.000,-86790.000,961850.000,122000.000,-373000.000,32000.000,-766.353,-275.328,-81.488,135.872,182.906,-241.099,-10482.689,13396.504,-5604.157
1512179107,36.800,43.500,364.500,55300.000,-109680.000,1000550.000,122000.000,-373000.000,32000.000,381.322,364.940,-216.145,111.590,15.059,83.733,-10520.881,13246.441,-5641.403
1512179107,-22.800,28.200,364.100,56700.000,-105960.000,879330.000,122000.000,-373000.000,32000.000,177.408,749.816,273.159,173.536,-20.357,72.889,-9361.397,12648.190,-6289.062
1512179108,25.300,14.600,369.500,46390.000,-101930.000,993410.000,130000.000,-377000.000,35000.000,-177.414,-50.409,611.169,131.810,42.101,134.842,-9095.482,13398.579,-6215.950
1512179108,17.800,11.100,368.400,84110.000,-81850.000,919980.000,130000.000,-377000.000,35000.000,-340.818,-567.905,733.865,54.954,72.856,265.509,-9320.061,13473.240,-6064.003
1512179108,12.500,3.300,364.600,9890.000,-119320.000,946470.000,130000.000,-377000.000,35000.000,-364.122,-720.788,782.034,-23.473,89.241,382.059,-10143.227,13847.019,-5756.813
1512179108,19.600,6.100,362.200,66280.000,-81360.000,928280.000,130000.000,-377000.000,35000.000,-322.829,-487.784,746.132,-95.506,89.053,429.637,-10515.800,14371.449,-5603.386
1512179108,6.700,13.400,349.700,97720.000,-113400.000,963380.000,130000.000,-377000.000,35000.000,-258.704,-40.952,628.148,-131.957,74.070,368.729,-11178.225,14619.659,-6330.910
1512179108,27.800,6.400,348.100,68240.000,-140750.000,935970.000,138000.000,-364000.000,33000.000,-184.724,250.114,422.349,-123.535,43.675,202.585,-10950.640,15220.001,-6557.549
1512179108,18.200,11.700,333.400,116150.000,-104190.000,927730.000,138000.000,-364000.000,33000.000,11.184,243.296,243.938,-76.949,-11.472,50.328,-10650.667,15220.459,-6635.094
1512179108,22.000,17.000,329.300,109620.000,-88440.000,982730.000,138000.000,-364000.000,33000.000,251.955,47.239,178.513,-43.988,-84.328,-43.578,-10501.574,14995.682,-6411.476
1512179108,22.000,12.800,328.400,82820.000,-95830.000,931880.000,138000.000,-364000.000,33000.000,380.972,-197.284,229.636,-42.320,-143.888,-93.455,-10954.012,14470.001,-6557.899
1512179108,47.400,26.400,326.600,71040.000,-89420.000,1018740.000,147000.000,-380000.000,15000.000,410.597,-447.323,296.360,-72.218,-171.078,-117.395,-11329.317,14394.440,-6479.729
1512179108,11.600,25.300,324.900,48830.000,-103520.000,933720.000,147000.000,-380000.000,15000.000,319.140,-640.764,273.039,-120.258,-185.079,-107.370,-11480.593,14094.208,-6328.606
1512179108,8.700,27.000,323.600,78120.000,-107670.000,884700.000,147000.000,-380000.000,15000.000,127.935,-731.636,162.280,-163.788,-170.122,-105.913,-12607.134,13717.514,-6019.218
1512179108,1.500,31.300,315.900,89230.000,-171630.000,931090.000,147000.000,-380000.000,15000.000,-4.150,-679.106,-35.606,-178.220,-146.523,-117.271,-12830.065,14167.191,-5942.101
1512179108,45.500,31.200,318.500,86430.000,-113340.000,1027340.000,147000.000,-380000.000,15000.000,0.833,-454.327,-261.821,-158.711,-123.523,-134.876,-13581.636,13791.061,-5710.884
1512179108,64.800,40.300,324.900,70740.000,-97350.000,984190.000,144000.000,-384000.000,1000.000,111.468,-200.537,-493.868,-115.499,-94.972,-168.080,-13880.861,13940.613,-5483.284
1512179108,21.600,21.000,318.800,79040.000,-133730.000,845030.000,144000.000,-384000.000,1000.000,258.914,-139.950,-769.764,-83.577,-106.657,-192.500,-14112.078,12590.256,-5781.990
1512179108,-13.700,18.000,314.900,146060.000,-73970.000,913820.000,144000.000,-384000.000,1000.000,261.561,-124.543,-993.541,-88.460,-185.828,-171.005,-14108.675,13340.271,-5706.642
1512179108,62.100,12.900,321.600,37350.000,-78800.000,1113650.000,144000.000,-384000.000,1000.000,-39.646,91.062,-1142.141,-81.681,-242.665,-166.800,-14488.283,12289.703,-5478.935
1512179108,79.400,13.300,314.700,37720.000,-35280.000,1148010.000,144000.000,-384000.000,1000.000,-405.219,462.343,-1193.049,6.120,-182.013,-257.438,-14113.924,12140.259,-5407.204
1512179108,7.300,7.600,316.600,72630.000,-38150.000,978820.000,170000.000,-379000.000,13000.000,-363.874,590.550,-1172.815,95.377,-32.406,-382.148,-13963.991,12140.488,-5558.464
1512179108,14.000,-12.100,318.200,24230.000,-66590.000,1014340.000,170000.000,-379000.000,13000.000,127.983,202.301,-1088.156,97.674,103.138,-351.269,-13439.669,11991.272,-5562.996
1512179108,24.900,-8.800,318.000,63350.000,-57250.000,1004030.000,170000.000,-379000.000,13000.000,639.070,-211.285,-1135.493,22.445,135.943,-179.167,-13669.847,10865.921,-5786.613
1512179108,-31.400,-4.800,310.300,109440.000,-101810.000,900330.000,170000.000,-379000.000,13000.000,928.046,-261.718,-1336.164,-13.386,79.224,8.326,-14121.798,10415.253,-5632.988
1512179108,27.800,2.400,314.900,77450.000,-71530.000,1054990.000,179000.000,-384000.000,18000.000,1019.423,-84.440,-1244.675,-15.095,49.013,129.021,-14350.740,9514.908,-5406.502
1512179108,6.100,-1.100,307.200,121090.000,-110470.000,1059880.000,179000.000,-384000.000,18000.000,977.327,143.625,-1007.826,-31.336,48.633,175.467,-14433.199,7864.777,-5481.621
1512179108,5.300,0.500,308.000,123170.000,-111450.000,960210.000,179000.000,-384000.000,18000.000,877.123,308.645,-806.152,-38.122,93.289,168.667,-14663.225,6739.441,-5405.235
1512179108,-10.800,5.100,319.600,95460.000,-100830.000,881040.000,179000.000,-384000.000,18000.000,771.153,209.782,-591.089,-23.872,149.775,120.993,-14105.837,5615.273,-5523.033
1512179108,-16.800,3.200,311.900,130680.000,-77150.000,923770.000,179000.000,-384000.000,18000.000,679.879,-107.570,-339.791,-37.366,168.693,140.734,-13887.010,4190.606,-5038.101
1512179108,25.000,1.600,314.500,61460.000,-96250.000,987370.000,172000.000,-387000.000,18000.000,580.792,42.376,-77.389,-29.284,160.226,162.507,-14268.198,2802.529,-4923.058
1512179108,6.900,11.300,309.700,101620.000,-130130.000,937680.000,172000.000,-387000.000,18000.000,353.901,116.711,238.333,29.846,179.698,87.276,-14383.921,2052.353,-4622.444
1512179108,-5.900,11.500,306.000,119750.000,-97410.000,926940.000,172000.000,-387000.000,18000.000,-29.573,-380.417,421.872,45.422,201.605,95.257,-14646.654,1976.959,-4395.256
1512179108,1.900,3.700,308.300,105770.000,-120610.000,908330.000,172000.000,-387000.000,18000.000,-238.565,-406.503,488.047,9.410,142.505,163.397,-15659.678,1825.439,-4086.708
1512179108,8.900,-2.100,306.400,137510.000,-89540.000,874210.000,172000.000,-387000.000,18000.000,-747.617,45.249,414.017,38.751,59.122,99.234,-16292.963,2724.495,-3743.385
1512179108,2.000,-3.200,302.500,111940.000,-76290.000,846500.000,182000.000,-377000.000,11000.000,-1144.426,301.618,376.112,136.525,-6.101,-108.910,-16061.472,4187.340,-3932.122
1512179108,61.500,8.500,297.500,94360.000,-80260.000,983890.000,182000.000,-377000.000,11000.000,-1113.986,328.974,342.002,156.464,-115.038,-204.037,-15864.825,6250.137,-4195.259
1512179108,62.600,17.200,297.700,82210.000,-79410.000,1016360.000,182000.000,-377000.000,11000.000,-1409.870,602.822,455.400,175.418,-55.012,-355.166,-15143.732,8201.218,-4575.417
1512179108,49.400,20.600,296.300,121830.000,-66830.000,987180.000,182000.000,-377000.000,11000.000,-774.796,187.584,259.006,204.115,68.099,-378.014,-14422.434,10189.797,-4880.546
1512179108,29.600,19.700,293.700,141480.000,-72570.000,967830.000,209000.000,-396000.000,10000.000,199.735,172.732,152.077,180.764,29.933,-65.688,-14380.618,11127.357,-4692.940
1512179109,42.300,12.000,299.900,74160.000,-72630.000,1019960.000,209000.000,-396000.000,10000.000,316.778,459.346,340.797,171.968,-16.938,75.260,-14270.327,10640.030,-4731.621
1512179109,6.500,10.900,293.900,107420.000,-79280.000,896420.000,209000.000,-396000.000,10000.000,165.722,392.418,576.105,159.127,12.995,117.360,-13522.997,10041.153,-4663.277
1512179109,19.700,27.200,294.000,96250.000,-75810.000,1023620.000,209000.000,-396000.000,10000.000,18.468,84.184,763.725,121.463,71.966,197.021,-13897.585,10115.585,-4510.048
1512179109,51.700,36.200,289.900,75930.000,-53710.000,1035280.000,209000.000,-396000.000,10000.000,-15.441,-199.144,866.721,66.854,122.767,317.279,-13597.277,10191.040,-4587.563
1512179109,69.500,43.100,291.600,95640.000,-53470.000,1047490.000,210000.000,-391000.000,11000.000,110.032,-288.709,882.087,8.092,152.928,449.138,-14044.847,10715.363,-4433.495
1512179109,76.800,39.800,292.400,105160.000,-55850.000,940800.000,210000.000,-391000.000,11000.000,363.047,-99.102,804.324,-32.134,148.348,539.024,-14419.695,10714.798,-4130.302
1512179109,50.500,46.300,290.800,111690.000,-92410.000,871280.000,210000.000,-391000.000,11000.000,574.706,268.843,722.319,-50.703,123.414,554.092,-13971.834,10265.472,-4359.337
1512179109,67.500,48.600,290.200,116520.000,-56030.000,964840.000,210000.000,-391000.000,11000.000,607.905,591.605,664.224,-32.166,92.734,490.696,-13523.256,9966.141,-4513.298
1512179109,35.800,47.900,289.000,134160.000,-21300.000,902590.000,210000.000,-391000.000,11000.000,490.823,746.324,660.935,-9.946,57.186,379.827,-13224.871,9591.599,-4366.020
1512179109,96.500,42.500,295.100,57010.000,-32350.000,1087950.000,203000.000,-377000.000,22000.000,188.764,766.114,684.346,15.189,-7.907,211.451,-12327.944,8917.938,-4448.997
1512179109,3.700,45.000,295.900,103330.000,-42600.000,850950.000,203000.000,-377000.000,22000.000,-203.844,532.379,820.698,25.302,-90.799,25.729,-11873.217,9968.628,-4452.324
1512179109,31.700,42.600,298.400,62560.000,-29420.000,994380.000,203000.000,-377000.000,22000.000,-605.022,41.210,946.432,5.114,-106.758,-115.341,-11870.775,10493.622,-4302.086
1512179109,68.600,28.600,299.500,90580.000,-17580.000,1003970.000,203000.000,-377000.000,22000.000,-967.924,-403.727,951.352,-57.629,-137.796,-179.659,-12169.985,10643.173,-4074.471
1512179109,11.900,14.000,296.900,105770.000,-61160.000,932920.000,210000.000,-387000.000,8000.000,-1409.308,-618.962,879.182,-107.588,-192.734,-289.318,-12612.413,12292.511,-3769.875
1512179109,5.200,8.800,299.200,99430.000,-76540.000,959660.000,210000.000,-387000.000,8000.000,-1811.702,-870.512,831.966,-125.639,-156.369,-405.337,-13126.701,12508.118,-5167.816
1512179109,46.100,6.400,305.200,76900.000,-34300.000,1045100.000,210000.000,-387000.000,8000.000,-1826.312,-1024.987,611.609,-174.585,-80.901,-474.570,-14091.316,14756.668,-4633.484
1512179109,25.700,5.200,308.400,82820.000,-20870.000,919920.000,210000.000,-387000.000,8000.000,-1317.124,-961.288,120.290,-221.521,-33.273,-472.943,-14462.563,15506.104,-3879.959
1512179109,41.500,13.800,306.500,63420.000,-45650.000,1071170.000,210000.000,-387000.000,8000.000,-514.459,-833.953,-450.772,-276.882,-101.672,-382.422,-14834.145,16180.557,-3126.465
1512179109,24.400,8.100,307.100,56270.000,-65610.000,928470.000,224000.000,-391000.000,15000.000,136.632,-270.277,-859.404,-279.650,-200.408,-272.633,-15663.460,15204.315,-2969.910
1512179109,-44.700,6.400,302.100,159670.000,-64150.000,809330.000,224000.000,-391000.000,15000.000,180.473,671.308,-1080.433,-225.179,-285.984,-284.621,-15439.735,14904.648,-2821.960
1512179109,-51.500,0.100,309.200,142940.000,-145510.000,805480.000,224000.000,-391000.000,15000.000,-93.011,1444.378,-1137.140,-68.369,-206.261,-478.836,-14617.439,14380.875,-3504.196
1512179109,-14.900,-2.400,308.300,155580.000,-81180.000,906860.000,224000.000,-391000.000,15000.000,60.809,1399.662,-1093.491,96.780,-53.087,-622.875,-13418.114,14232.681,-3514.465
1512179109,-3.700,10.500,319.800,164430.000,-39920.000,940060.000,224000.000,-391000.000,15000.000,690.634,574.707,-991.290,131.375,58.289,-518.842,-12372.688,13259.247,-3898.849
1512179109,5.700,13.700,322.900,134160.000,-101750.000,928160.000,238000.000,-391000.000,25000.000,1233.665,-218.139,-990.447,20.333,77.799,-222.498,-12302.788,12134.354,-3975.006
1512179109,29.200,23.300,323.700,161740.000,-42300.000,948360.000,238000.000,-391000.000,25000.000,1339.005,-463.667,-990.843,-67.267,90.468,50.207,-12835.365,10408.554,-3596.344
1512179109,28.100,29.000,319.600,138670.000,-26180.000,1084840.000,238000.000,-391000.000,25000.000,1240.935,-370.891,-986.610,-123.695,120.611,228.975,-12837.715,9883.545,-3596.588
1512179109,46.600,12.700,329.600,134280.000,-9640.000,1026250.000,238000.000,-391000.000,25000.000,1116.050,121.292,-953.126,-129.681,171.527,280.056,-12922.921,7595.917,-3409.500
1512179109,1.300,14.000,319.400,157230.000,-21060.000,930240.000,247000.000,-382000.000,13000.000,1104.234,217.202,-845.823,-92.108,252.233,220.430,-11656.693,5610.313,-3083.763
1512179109,5.700,27.700,328.000,114810.000,-49260.000,980830.000,247000.000,-382000.000,13000.000,1044.420,-204.329,-826.835,-117.280,261.784,283.833,-11103.958,3398.644,-2714.561
1512179109,18.900,12.400,331.600,113590.000,-49620.000,978580.000,247000.000,-382000.000,13000.000,698.614,-136.207,-702.082,-137.508,193.289,310.272,-10885.658,1861.466,-2267.189
1512179109,11.700,41.800,330.900,147090.000,-55180.000,905880.000,247000.000,-382000.000,13000.000,327.776,35.703,-411.558,-91.098,154.524,215.071,-10404.122,512.192,-2046.952
1512179109,6.300,36.200,334.500,157170.000,-145080.000,965390.000,247000.000,-382000.000,13000.000,117.574,28.375,-109.736,-33.467,97.222,86.674,-9731.292,25.703,-2015.419
1512179109,-20.800,-7.300,339.300,142400.000,-86730.000,900630.000,245000.000,-409000.000,18000.000,-361.139,-444.440,129.008,-31.799,48.542,30.138,-9693.283,138.260,-2015.678
1512179109,-4.300,-4.100,343.300,144170.000,-88500.000,943050.000,245000.000,-409000.000,18000.000,-873.545,-261.591,180.856,16.148,-42.169,-13.666,-9915.543,737.930,-1938.492
1512179109,2.800,-8.100,343.300,157780.000,-94180.000,862240.000,245000.000,-409000.000,18000.000,-1130.940,21.346,320.430,184.229,-98.725,-230.188,-9794.518,2650.612,-2088.570
1512179109,6.300,9.900,345.300,163270.000,-106140.000,950260.000,245000.000,-409000.000,18000.000,-1071.841,-168.731,606.329,262.130,-165.014,-276.335,-9749.122,4450.684,-2500.557
1512179109,-2.700,-0.100,344.600,189640.000,-112000.000,940490.000,245000.000,-409000.000,18000.000,-1291.464,163.946,1011.540,192.138,18.052,-273.577,-9554.382,6100.967,-2876.389
1512179109,29.700,-4.700,354.200,153690.000,-96310.000,903020.000,253000.000,-409000.000,11000.000,-690.863,57.736,625.429,228.038,239.668,-285.644,-9019.081,8389.267,-2879.791
1512179110,41.800,7.900,354.300,178590.000,-97720.000,924380.000,253000.000,-409000.000,11000.000,300.011,-97.935,166.980,188.272,188.737,-48.396,-9014.732,9364.273,-2954.346
1512179110,35.300,16.200,355.500,153870.000,-77090.000,934080.000,253000.000,-409000.000,11000.000,654.669,213.636,72.991,158.719,88.401,115.493,-9165.672,9139.053,-2803.162
1512179110,10.300,6.100,355.700,169250.000,-121090.000,847960.000,253000.000,-409000.000,11000.000,580.960,632.071,167.192,127.050,13.496,202.061,-8867.058,8839.508,-2880.859
1512179110,2.900,6.500,356.200,162900.000,-132510.000,930660.000,270000.000,-394000.000,15000.000,230.400,849.063,361.155,112.643,2.046,199.776,-7894.829,8240.967,-3039.429
1512179110,14.100,3.200,360.100,156980.000,-84660.000,927860.000,270000.000,-394000.000,15000.000,-234.052,671.776,525.445,98.102,42.511,168.468,-7446.602,7866.638,-3193.420
1512179110,7.900,16.900,363.700,171080.000,-100770.000,897770.000,270000.000,-394000.000,15000.000,-565.292,194.678,612.797,67.132,90.510,154.040,-6692.909,8692.764,-3274.414
1512179110,-13.800,8.800,367.100,149350.000,-118230.000,874510.000,270000.000,-394000.000,15000.000,-581.786,-274.301,620.522,22.958,119.637,222.504,-6539.284,9517.990,-3425.308
1512179110,31.000,5.700,377.600,103210.000,-63840.000,998410.000,270000.000,-394000.000,15000.000,-359.202,-517.515,621.833,-44.162,100.846,343.906,-7137.184,9967.102,-3270.004
1512179110,-5.100,-7.200,380.600,141110.000,-56950.000,879820.000,277000.000,-394000.000,25000.000,-125.117,-446.711,653.192,-92.614,60.702,442.221,-7287.895,9816.864,-3343.796
1512179110,-1.700,5.200,377.100,100590.000,-75260.000,982730.000,277000.000,-394000.000,25000.000,-98.910,-187.183,691.782,-125.509,30.115,458.555,-6983.925,10717.331,-3495.926
1512179110,20.400,22.200,382.300,134160.000,-101990.000,924800.000,277000.000,-394000.000,25000.000,-260.235,-6.963,722.055,-129.994,12.545,385.606,-6832.680,10942.551,-3047.104
1512179110,30.500,35.000,379.200,146730.000,-83070.000,923770.000,277000.000,-394000.000,25000.000,-418.261,78.346,677.423,-113.540,-17.310,256.352,-6829.720,11617.554,-3196.793
1512179110,85.600,41.000,380.600,148680.000,-78060.000,1084410.000,279000.000,-379000.000,27000.000,-416.534,72.151,572.955,-88.456,-62.418,110.542,-6904.839,11617.447,-3421.158
1512179110,11.500,28.800,384.800,160580.000,-133610.000,904480.000,279000.000,-379000.000,27000.000,-217.016,-2.303,557.456,-47.368,-122.257,-2.265,-6527.733,12068.008,-3274.139
1512179110,30.200,34.000,387.000,169860.000,-58840.000,951110.000,279000.000,-379000.000,27000.000,21.256,22.317,720.907,-39.658,-186.725,-95.670,-6304.451,11693.344,-3351.212
1512179110,15.300,35.300,392.400,126160.000,-97530.000,929200.000,279000.000,-379000.000,27000.000,46.519,141.562,940.230,-86.753,-195.845,-194.719,-5777.092,12219.131,-3355.438
1512179110,70.800,33.700,400.500,111080.000,-74340.000,960940.000,279000.000,-379000.000,27000.000,-182.755,304.620,952.400,-124.825,-144.220,-283.245,-5474.770,12744.583,-3432.739
1512179110,60.600,46.900,405.300,132810.000,-110600.000,895140.000,288000.000,-380000.000,32000.000,-550.932,442.302,723.671,-115.197,-75.459,-427.261,-5024.132,12895.264,-3511.505
1512179110,62.300,39.000,400.700,125000.000,-105410.000,937560.000,288000.000,-380000.000,32000.000,-670.488,293.204,402.668,-54.858,11.926,-571.434,-4646.049,13570.831,-3439.377
1512179110,42.200,25.300,407.100,119510.000,-95460.000,920650.000,288000.000,-380000.000,32000.000,-330.755,-79.127,-111.809,-21.228,65.602,-596.647,-4417.900,14246.170,-3215.973
1512179110,21.800,11.900,406.300,90760.000,-63540.000,914490.000,288000.000,-380000.000,32000.000,321.064,-513.783,-743.516,-64.261,-4.836,-464.875,-4720.146,13795.715,-3663.620
1512179110,20.600,15.200,403.200,115840.000,-109740.000,936770.000,288000.000,-380000.000,32000.000,885.402,-533.596,-1091.472,-106.486,-138.697,-285.563,-5172.813,13195.038,-3585.068
1512179110,41.500,31.400,397.700,132140.000,-113890.000,869570.000,303000.000,-375000.000,30000.000,882.605,-18.598,-1154.747,-134.863,-221.085,-175.794,-5173.866,12970.047,-3660.187
1512179110,57.100,24.100,405.500,115970.000,-46200.000,918030.000,303000.000,-375000.000,30000.000,486.512,474.056,-1030.847,-65.066,-166.911,-216.579,-5253.365,11994.919,-3884.995
1512179110,62.100,11.500,390.000,102050.000,-111450.000,1034610.000,303000.000,-375000.000,30000.000,226.207,380.460,-894.221,-13.904,-4.102,-285.285,-5030.769,11470.261,-3962.143
1512179110,61.500,0.500,394.700,144230.000,-94850.000,905090.000,303000.000,-375000.000,30000.000,305.510,-118.303,-879.887,-19.129,73.859,-284.986,-4805.733,11470.596,-3889.069
1512179110,14.100,-18.200,400.800,69580.000,-38820.000,869510.000,326000.000,-366000.000,38000.000,780.685,-579.992,-1208.284,-113.263,166.512,7.271,-5483.734,10794.578,-3808.632
1512179110,12.100,-32.100,399.900,93810.000,-139220.000,868350.000,326000.000,-366000.000,38000.000,1167.159,-138.081,-1285.365,-142.322,113.314,219.813,-6092.751,8806.160,-3954.452
1512179110,44.600,-26.500,408.400,72450.000,-62930.000,906250.000,326000.000,-366000.000,38000.000,1074.420,182.422,-1108.629,-106.350,142.869,230.241,-5952.744,6593.872,-4031.754
1512179110,-8.700,-36.100,406.100,65370.000,-87100.000,927190.000,326000.000,-366000.000,38000.000,1063.112,-4.781,-981.517,-92.757,185.721,291.464,-5509.384,5094.544,-3811.264
1512179110,22.100,-50.600,409.700,25150.000,-42420.000,1088930.000,326000.000,-366000.000,38000.000,1128.515,116.276,-836.228,-96.582,116.257,319.256,-5405.617,3144.691,-3738.129
1512179110,10.800,-56.700,406.800,54870.000,-69520.000,994140.000,339000.000,-375000.000,27000.000,384.690,23.490,-405.447,-84.341,54.811,206.193,-5000.260,1570.297,-3854.859
1512179110,6.800,-52.500,408.500,42910.000,-83250.000,1065250.000,339000.000,-375000.000,27000.000,-475.293,-89.569,-74.494,-18.084,74.850,-24.881,-4849.190,1795.524,-3743.530
1512179110,-11.900,-40.300,395.500,94670.000,-134340.000,981990.000,339000.000,-375000.000,27000.000,-528.047,-403.390,38.250,61.863,89.553,-207.261,-5445.992,2544.624,-4075.584
1512179110,-43.300,-47.800,400.100,106020.000,-122440.000,898320.000,339000.000,-375000.000,27000.000,-29.271,-272.528,149.872,134.613,-0.516,-132.953,-5856.537,2994.019,-4221.870
1512179110,-30.600,-39.300,399.100,160400.000,-95460.000,913450.000,339000.000,-375000.000,27000.000,-168.752,0.799,379.070,196.483,-16.136,-85.362,-6080.330,3256.180,-4182.335
1512179110,9.200,-41.400,400.900,133360.000,-100160.000,1001400.000,326000.000,-384000.000,38000.000,-703.214,-202.935,359.426,204.728,-30.309,-43.445,-6602.600,3855.392,-4102.592
1512179110,13.200,-45.800,399.100,120000.000,-130250.000,990230.000,326000.000,-384000.000,38000.000,-1470.847,204.772,480.849,218.356,10.065,-107.637,-6896.004,5354.958,-4399.353
1512179111,3.500,-48.300,399.700,112430.000,-165650.000,930110.000,326000.000,-384000.000,38000.000,-1530.945,168.914,470.791,270.014,157.508,-314.142,-6398.247,7643.204,-4477.432
1512179111,45.500,-50.600,406.800,85880.000,-136540.000,1012150.000,326000.000,-384000.000,38000.000,-996.872,-152.324,198.105,232.817,185.457,-274.712,-6695.763,8242.752,-4924.622
1512179111,52.700,-18.400,400.700,94730.000,-146000.000,1043820.000,333000.000,-377000.000,28000.000,-343.660,-261.118,80.329,193.293,114.878,-90.275,-6689.995,9517.761,-4849.030
1512179111,78.400,10.700,397.700,145810.000,-92530.000,1033690.000,333000.000,-377000.000,28000.000,-24.638,257.428,88.886,200.522,7.766,13.715,-6688.118,9967.773,-5148.819
1512179111,64.800,51.300,386.700,137450.000,-163020.000,1033570.000,333000.000,-377000.000,28000.000,-7.312,719.457,352.992,218.819,-36.932,37.752,-6688.942,9742.767,-4773.926
1512179111,83.500,98.900,375.800,162110.000,-170040.000,997560.000,333000.000,-377000.000,28000.000,-160.274,737.753,709.038,206.873,13.673,26.663,-6086.357,10343.674,-5003.738
1512179111,71.600,96.300,380.300,122190.000,-169860.000,920100.000,333000.000,-377000.000,28000.000,-338.651,372.839,906.671,154.753,80.020,60.719,-5786.018,10419.128,-5006.256
1512179111,22.100,59.100,379.600,82030.000,-181950.000,918880.000,360000.000,-364000.000,27000.000,-381.427,-126.176,954.417,88.856,133.813,157.570,-5108.833,10945.129,-5386.749
1512179111,10.300,36.800,390.000,51700.000,-153560.000,800780.000,360000.000,-364000.000,27000.000,-227.334,-439.895,903.319,16.297,137.253,286.851,-5407.112,11319.687,-5309.036
1512179111,47.500,14.400,395.500,-29420.000,-111150.000,960630.000,360000.000,-364000.000,27000.000,45.264,-437.248,858.241,-34.491,118.505,412.679,-5554.680,11844.467,-5157.516
1512179111,21.000,-6.400,393.600,20320.000,-74950.000,884700.000,360000.000,-364000.000,27000.000,345.046,-108.859,860.528,-45.600,77.253,510.241,-5855.614,11619.019,-5005.066
1512179111,24.500,-25.800,391.500,18860.000,-133850.000,908390.000,360000.000,-364000.000,27000.000,584.967,463.759,1014.178,-6.718,-15.268,544.776,-5931.740,11393.906,-5229.538
1512179111,28.400,-40.600,391.100,73300.000,-173950.000,868840.000,358000.000,-345000.000,25000.000,762.919,1109.584,1374.002,12.172,-88.935,478.752,-5257.072,11319.916,-5235.306
1512179111,29.300,-26.000,376.000,67380.000,-149050.000,845520.000,358000.000,-345000.000,25000.000,679.406,1541.735,1545.930,12.110,-88.945,279.811,-3761.269,10422.165,-5548.462
1512179111,38.500,-14.800,368.600,145940.000,-185060.000,867860.000,358000.000,-345000.000,25000.000,344.940,1296.666,1517.847,17.476,-42.598,87.190,-3084.892,10723.175,-5479.065
1512179111,1.300,-22.800,362.500,95890.000,-211670.000,916930.000,358000.000,-345000.000,25000.000,-77.277,762.219,1365.952,-33.181,-72.603,-42.531,-2333.565,11024.307,-5560.303
1512179111,17.700,-33.600,366.900,147400.000,-190430.000,959590.000,349000.000,-354000.000,37000.000,-349.513,353.060,1176.157,-91.560,-112.648,-147.142,-1732.521,11250.198,-5490.295
1512179111,-12.700,-38.200,381.100,48030.000,-142700.000,968690.000,349000.000,-354000.000,37000.000,-488.957,101.181,956.848,-128.873,-129.176,-246.855,-1580.528,11700.424,-5566.360
1512179111,-44.100,-33.700,394.000,94360.000,-186400.000,925840.000,349000.000,-354000.000,37000.000,-670.466,-128.261,703.962,-143.353,-133.271,-339.602,-1652.824,12300.323,-5565.445
1512179111,-27.700,-28.800,394.900,83010.000,-163940.000,1068480.000,349000.000,-354000.000,37000.000,-803.054,-296.633,396.562,-144.229,-90.846,-429.551,-1801.888,12525.101,-5714.066
1512179111,-80.800,-33.400,392.300,61950.000,-230960.000,868770.000,349000.000,-354000.000,37000.000,-635.784,-532.746,2.654,-159.080,-56.131,-474.785,-2547.356,13498.978,-5407.242
1512179111,-19.300,-32.000,394.300,91000.000,-180300.000,981200.000,376000.000,-331000.000,32000.000,-206.326,-764.053,-450.330,-178.089,-51.654,-409.839,-3371.651,13647.751,-5325.165
1512179111,-61.800,-11.500,383.000,110600.000,-189880.000,791320.000,376000.000,-331000.000,32000.000,211.782,-702.940,-784.135,-188.382,-113.877,-302.115,-4122.581,13421.616,-5168.900
1512179111,-3.100,-22.100,382.600,78000.000,-229130.000,1016780.000,376000.000,-331000.000,32000.000,180.206,-51.012,-969.946,-161.436,-192.480,-263.790,-4649.345,13045.822,-5314.606
1512179111,-12.700,-30.000,377.000,88070.000,-136540.000,990300.000,376000.000,-331000.000,32000.000,-189.416,562.138,-991.294,34.416,-91.952,-428.590,-4011.451,13121.781,-5207.496
1512179111,-17.400,-28.500,379.500,82890.000,-212400.000,992070.000,384000.000,-333000.000,16000.000,408.713,-198.681,-935.704,123.474,122.936,-323.197,-3861.885,13009.507,-5058.823
1512179111,46.300,-35.300,385.400,99120.000,-177670.000,985290.000,384000.000,-333000.000,16000.000,1315.125,-692.392,-944.012,-40.473,129.216,103.338,-5260.673,10494.911,-5010.689
1512179111,-13.800,-26.600,385.600,91430.000,-225460.000,924260.000,384000.000,-333000.000,16000.000,963.192,-102.418,-842.586,-111.231,120.889,271.686,-5983.712,8131.324,-4818.222
1512179111,-9.600,-24.100,385.600,90450.000,-245360.000,960330.000,384000.000,-333000.000,16000.000,674.800,198.621,-697.001,-34.081,183.256,200.138,-5649.047,7456.825,-4408.898
1512179111,-2.900,-25.400,396.400,56760.000,-193790.000,908450.000,384000.000,-333000.000,16000.000,820.723,56.922,-502.424,-21.796,247.025,207.071,-5657.692,5544.312,-4484.787
1512179111,3.100,-20.500,389.600,51450.000,-205380.000,1065860.000,391000.000,-333000.000,33000.000,641.992,-84.956,-466.594,-39.388,205.923,268.277,-5625.663,4269.364,-3960.694
1512179111,12.900,-4.900,386.300,78550.000,-239810.000,1065980.000,391000.000,-333000.000,33000.000,315.841,13.631,-336.120,-9.308,117.735,242.131,-5516.838,3444.526,-3887.032
1512179111,2.500,11.500,381.200,98330.000,-233400.000,965640.000,391000.000,-333000.000,33000.000,-198.492,-98.741,-84.909,16.424,26.391,138.894,-5482.254,2769.577,-3625.168
1512179111,45.300,8.500,378.800,136050.000,-204350.000,992740.000,391000.000,-333000.000,33000.000,-746.309,-197.207,128.018,-11.902,-16.511,43.434,-5630.111,3219.353,-3398.682
1512179111,36.000,-11.300,370.200,180240.000,-191530.000,988650.000,391000.000,-333000.000,33000.000,-1000.366,43.158,192.870,-39.151,-9.539,-61.428,-5473.641,4644.592,-3286.804
1512179111,101.600,13.300,353.900,144230.000,-246700.000,1097660.000,391000.000,-333000.000,20000.000,-873.316,492.704,106.727,45.980,-4.092,-208.077,-5020.188,5432.770,-3477.768
1512179111,149.100,38.500,356.600,75500.000,-191220.000,1063420.000,391000.000,-333000.000,20000.000,-102.851,336.639,212.755,164.382,13.328,-318.337,-3966.476,6259.354,-3486.306
1512179112,159.500,26.800,355.800,7690.000,-236940.000,1029790.000,391000.000,-333000.000,20000.000,349.000,-9.221,173.325,108.538,-17.224,-131.050,-3553.444,6372.467,-3452.271
1512179112,108.400,42.700,352.600,78430.000,-167970.000,796810.000,391000.000,-333000.000,20000.000,93.269,214.703,176.795,104.650,-50.960,-32.042,-3482.048,5547.577,-3228.271
1512179112,82.200,35.000,359.300,20020.000,-191160.000,941100.000,402000.000,-315000.000,33000.000,-473.895,490.471,191.925,200.672,-41.674,-98.735,-3407.051,5547.684,-3228.912
1512179112,20.000,22.800,373.600,11050.000,-178340.000,822330.000,402000.000,-315000.000,33000.000,-890.049,384.986,275.077,287.534,9.926,-229.066,-2954.079,6223.373,-3382.431
1512179112,-9.600,17.300,372.700,-3170.000,-181640.000,885010.000,402000.000,-315000.000,33000.000,-888.189,-33.992,400.508,300.968,75.835,-268.252,-2275.597,6974.380,-3162.827
1512179112,-35.000,20.600,371.800,-5130.000,-205080.000,913820.000,402000.000,-315000.000,33000.000,-549.243,-367.799,387.198,260.802,140.606,-169.757,-2272.972,7574.387,-3312.546
1512179112,-27.600,43.300,364.500,40650.000,-188540.000,917110.000,402000.000,-315000.000,33000.000,-121.707,-285.707,259.356,206.946,112.231,-11.972,-2346.169,7949.280,-3086.731
1512179112,-7.300,40.700,357.700,53100.000,-217590.000,1013980.000,411000.000,-317000.000,28000.000,149.398,62.943,255.966,185.977,48.672,90.066,-2721.764,7798.721,-2933.609
1512179112,-27.300,24.100,347.400,86060.000,-225710.000,923650.000,411000.000,-317000.000,28000.000,188.234,280.569,433.187,169.898,39.115,142.204,-2647.865,7573.822,-3084.366
1512179112,-32.100,14.900,342.600,83740.000,-235840.000,924870.000,411000.000,-317000.000,28000.000,96.635,172.178,616.977,123.438,60.296,188.914,-2721.916,7723.724,-2558.655
1512179112,-24.100,5.500,329.400,69150.000,-209410.000,1009340.000,411000.000,-317000.000,28000.000,19.247,-103.711,706.578,57.884,82.712,265.608,-2273.338,7424.393,-2712.616
1512179112,-9.700,14.200,326.800,74830.000,-167180.000,957820.000,404000.000,-299000.000,42000.000,-14.859,-313.110,695.760,-1.771,89.687,377.753,-2345.268,8099.289,-2636.658
1512179112,10.100,7.700,324.400,9460.000,-244630.000,1012820.000,404000.000,-299000.000,42000.000,3.966,-260.661,655.705,-47.941,66.441,473.877,-2348.228,7424.271,-2486.969
1512179112,21.200,23.600,323.000,52800.000,-215700.000,980530.000,404000.000,-299000.000,42000.000,-5.818,75.883,619.424,-79.686,33.308,489.747,-2498.451,7349.060,-2260.727
1512179112,18.900,47.700,315.500,97900.000,-223570.000,977840.000,404000.000,-299000.000,42000.000,-17.157,418.773,612.992,-62.524,2.050,409.973,-2497.780,7499.054,-2260.666
1512179112,5.100,26.800,310.400,68480.000,-250120.000,995480.000,404000.000,-299000.000,42000.000,-135.430,400.313,673.045,-24.573,-25.917,94.385,-1297.737,7500.854,-2195.862
1512179112,-9.900,16.000,309.100,84530.000,-215450.000,976560.000,419000.000,-287000.000,27000.000,-241.599,41.320,628.680,-42.910,-46.982,-35.174,-623.039,7426.865,-2126.633
1512179112,-32.000,-15.200,306.000,41080.000,-229250.000,1041690.000,419000.000,-287000.000,27000.000,-62.595,569.220,659.760,-39.304,-15.697,253.592,-2123.756,7274.612,-2188.965
1512179112,-22.200,-29.000,301.200,39980.000,-171140.000,1082580.000,419000.000,-287000.000,27000.000,-303.021,-323.889,520.977,-75.490,-78.211,-115.838,-996.651,7726.303,-2048.309
1512179112,-17.700,-23.800,309.200,5620.000,-195740.000,1017090.000,419000.000,-287000.000,27000.000,-151.359,-348.743,244.850,-131.182,-146.228,-175.672,-1520.012,8025.528,-1443.726
1512179112,-20.000,-17.000,303.500,17460.000,-257690.000,941530.000,419000.000,-287000.000,27000.000,-161.491,76.664,104.398,-88.366,-172.936,-263.936,-1144.066,8251.083,-1596.802
1512179112,-7.200,-2.100,301.700,84170.000,-238100.000,885010.000,428000.000,-278000.000,38000.000,-100.332,304.306,91.150,-7.156,-162.048,-423.811,-695.000,8026.764,-1450.729
1512179112,-31.800,-5.300,291.900,128420.000,-240170.000,854250.000,428000.000,-278000.000,38000.000,-228.607,-501.911,396.711,-110.869,-110.829,-142.254,-1296.577,7725.861,-1895.752
1512179112,-7.700,4.000,286.000,99670.000,-261840.000,937930.000,428000.000,-278000.000,38000.000,137.945,39.720,109.672,23.361,-114.355,-516.361,-469.063,8252.106,-1602.539
1512179112,-10.500,10.000,283.000,121700.000,-283140.000,882260.000,428000.000,-278000.000,38000.000,376.489,-603.881,28.802,-39.943,-97.087,-457.616,-997.597,7426.300,-1223.465
1512179112,12.000,25.700,278.700,61650.000,-284730.000,989560.000,434000.000,-283000.000,37000.000,422.159,-1060.592,-176.808,-154.099,-109.880,-270.064,-1522.560,7425.522,-1143.997
1512179112,3.600,31.600,275.200,102970.000,-234190.000,924070.000,434000.000,-283000.000,37000.000,50.231,-812.048,-560.316,-254.847,-141.511,-24.011,-2198.197,7274.506,-1063.324
1512179112,14.400,50.500,275.200,98880.000,-195310.000,896420.000,434000.000,-283000.000,37000.000,-675.322,518.378,-844.975,-52.820,-5.614,-245.860,-1670.533,7837.799,-805.023
1512179112,15.700,38.700,267.100,68480.000,-241760.000,981810.000,434000.000,-283000.000,37000.000,503.047,-5.022,-1022.679,26.500,225.944,-295.797,-1070.564,7838.691,-885.132
1512179112,-1.600,45.800,260.500,101140.000,-229740.000,867430.000,434000.000,-283000.000,37000.000,1432.160,-308.033,-1299.711,-108.040,183.620,152.878,-1302.712,6225.846,-658.966
1512179112,42.100,55.000,255.900,24600.000,-216860.000,1012880.000,430000.000,-273000.000,23000.000,1166.556,275.800,-1260.479,-73.829,134.054,243.294,-1048.233,4426.231,-512.024
1512179112,38.000,55.500,250.500,52190.000,-196230.000,975590.000,430000.000,-273000.000,23000.000,847.925,87.704,-921.949,-11.149,154.388,179.265,73.021,3565.415,-259.475
1512179112,26.000,49.500,242.500,33140.000,-180110.000,972350.000,430000.000,-273000.000,23000.000,525.864,-297.227,-707.279,-33.782,127.335,218.743,67.559,2327.896,-35.057
1512179112,18.000,59.100,236.000,33940.000,-236150.000,928650.000,430000.000,-273000.000,23000.000,353.070,-18.768,-396.990,-1.786,77.631,187.775,515.572,1878.578,35.912
1512179112,60.200,82.700,226.500,49870.000,-174800.000,957340.000,430000.000,-273000.000,23000.000,206.016,206.089,30.752,31.976,53.513,87.000,1078.972,2066.917,143.707
1512179112,77.500,94.000,216.100,-2200.000,-184810.000,1037290.000,435000.000,-253000.000,38000.000,-458.264,-28.429,349.721,54.770,55.403,-7.173,1416.999,2217.423,-159.073
1512179112,54.300,89.600,202.100,55240.000,-205750.000,965390.000,435000.000,-253000.000,38000.000,-667.495,-456.470,572.271,51.413,64.401,-27.655,1083.793,3191.925,-343.269
1512179112,41.800,81.600,194.800,120.000,-187380.000,959050.000,435000.000,-253000.000,38000.000,-577.287,-407.311,631.849,39.904,57.334,20.947,450.111,4053.475,-449.943
1512179113,34.900,69.100,179.400,-19410.000,-175170.000,964170.000,435000.000,-253000.000,38000.000,-445.815,9.957,662.921,70.227,37.384,-44.655,112.892,4127.975,-559.540
1512179113,33.000,69.400,171.100,-6590.000,-141420.000,978030.000,444000.000,-276000.000,37000.000,-310.329,171.462,665.448,91.916,38.218,-107.205,567.848,5253.647,-787.842
1512179113,16.400,66.300,161.900,-33690.000,-144410.000,954900.000,444000.000,-276000.000,37000.000,-219.448,115.022,646.313,67.985,14.875,-100.185,414.742,4578.430,-936.890
1512179113,32.800,63.800,152.900,-32040.000,-170100.000,1004760.000,444000.000,-276000.000,37000.000,-414.714,175.581,659.684,43.350,-1.900,-56.419,641.685,5028.763,-1088.593
1512179113,41.000,60.900,143.000,-7690.000,-153260.000,981930.000,444000.000,-276000.000,37000.000,-1013.472,584.734,722.794,23.473,-15.831,15.104,868.980,5554.108,-1240.265
1512179113,35.600,48.900,136.000,-39730.000,-196960.000,974610.000,444000.000,-276000.000,37000.000,-1647.656,903.012,795.734,123.237,68.458,-157.835,1248.360,6529.678,-1242.996
1512179113,6.100,29.200,127.700,9340.000,-140810.000,915770.000,430000.000,-259000.000,50000.000,-1852.726,631.360,806.745,179.821,184.236,-358.089,430.664,-3495.827,-36857.338
1512179113,12.100,36.900,118.600,-9890.000,-136410.000,968320.000,430000.000,-259000.000,50000.000,-1526.399,-20.487,637.565,174.291,245.153,-349.525,887.726,-1920.143,-36935.432
1512179113,20.200,31.200,111.700,-34360.000,-125920.000,973330.000,430000.000,-259000.000,50000.000,-1035.099,-396.277,370.467,135.036,216.182,-151.473,516.388,-1095.711,-37006.874
1512179113,10.100,17.000,107.500,-58410.000,-166320.000,955140.000,430000.000,-259000.000,50000.000,-684.199,-240.341,108.510,132.764,154.868,50.657,895.813,-120.140,-36934.608
1512179113,3.200,10.900,110.300,-47300.000,-146060.000,896300.000,428000.000,-243000.000,52000.000,-551.829,312.218,60.114,180.188,62.102,114.749,747.543,254.646,-36858.162
1512179113,-3.500,4.700,104.400,-31740.000,-133790.000,973690.000,428000.000,-243000.000,52000.000,-601.825,714.447,267.607,236.116,21.437,76.845,1126.663,1230.217,-37385.887
1512179113,-20.500,-0.500,98.300,-16110.000,-134770.000,948000.000,428000.000,-243000.000,52000.000,-668.505,630.453,557.382,227.454,29.311,26.207,1803.314,1531.227,-36791.496
1512179113,-18.800,1.200,97.600,-35640.000,-138790.000,975650.000,428000.000,-243000.000,52000.000,-635.997,153.809,695.847,163.414,55.986,43.112,2178.467,1606.789,-37169.655
1512179113,1.300,5.200,93.200,-24410.000,-123110.000,985720.000,428000.000,-243000.000,52000.000,-448.193,-278.461,664.017,77.404,51.257,156.648,2782.257,2432.701,-37024.376
1512179113,-25.700,27.600,87.000,37720.000,-125120.000,1026610.000,435000.000,-243000.000,45000.000,-212.464,-381.564,586.051,4.041,4.423,275.864,2559.250,2882.362,-37097.252
1512179113,-42.900,21.700,79.400,-29240.000,-261350.000,988220.000,435000.000,-243000.000,45000.000,24.480,-166.481,579.572,-34.071,-34.801,346.882,2111.877,3481.697,-37243.141
1512179113,-35.800,32.900,74.700,50290.000,-136540.000,843810.000,435000.000,-243000.000,45000.000,180.807,251.342,623.803,-53.155,-81.294,338.583,2410.294,3107.140,-37020.866
1512179113,0.400,53.400,69.100,-13920.000,-161190.000,999450.000,435000.000,-243000.000,45000.000,190.119,527.830,718.712,-28.856,-94.932,253.215,2710.297,3107.582,-37023.415
1512179113,6.100,52.200,62.300,8420.000,-166990.000,937930.000,435000.000,-243000.000,45000.000,126.517,493.340,824.276,-31.615,-97.210,153.025,3007.523,2508.034,-37176.247
1512179113,-5.300,79.500,58.600,-19290.000,-145810.000,914060.000,434000.000,-245000.000,50000.000,-19.768,255.969,826.659,-35.845,-96.537,68.805,3836.990,3484.276,-37032.814
1512179113,1.300,41.100,62.200,-72080.000,-91130.000,897640.000,434000.000,-245000.000,50000.000,-340.079,-71.290,776.106,-61.724,-125.353,5.845,4510.727,3185.295,-36888.680
1512179113,21.600,43.500,51.500,-39250.000,-113160.000,1057310.000,434000.000,-245000.000,50000.000,-865.322,-415.984,739.578,-109.521,-174.606,-72.042,4513.977,3935.295,-37113.335
1512179113,21.200,45.900,51.300,-41750.000,-84050.000,956480.000,434000.000,-245000.000,50000.000,-1405.759,-790.634,718.720,-147.071,-168.815,-174.565,4143.524,4909.737,-36809.700
1512179113,5.700,64.800,37.700,-80510.000,-124880.000,1068050.000,441000.000,-245000.000,57000.000,-1686.602,-1098.478,602.709,-190.226,-114.980,-261.226,3475.983,6558.739,-36728.203
1512179113,43.300,58.100,32.000,-51450.000,-97900.000,1033570.000,441000.000,-245000.000,57000.000,-1519.488,-1152.219,356.550,-210.290,-71.395,-314.582,2954.697,7382.957,-36723.351
1512179113,-14.800,54.600,24.200,-48220.000,-151550.000,963680.000,441000.000,-245000.000,57000.000,-532.293,-816.564,-81.054,-219.436,-17.851,-306.221,2096.992,8431.671,-36565.536
1512179113,17.400,58.700,22.000,-32350.000,-104920.000,940550.000,441000.000,-245000.000,57000.000,799.182,-105.833,-594.453,-238.502,-72.421,-119.933,1608.383,8205.940,-36749.001
1512179113,10.400,60.600,20.200,-77640.000,-64030.000,968630.000,441000.000,-245000.000,57000.000,568.584,826.925,-884.516,-165.146,-150.013,-103.184,1906.433,7831.383,-37276.726
1512179113,14.400,62.200,17.600,-68480.000,-94790.000,887020.000,444000.000,-237000.000,40000.000,-233.208,781.696,-783.291,52.145,15.947,-492.990,2995.712,8245.522,-37435.768
1512179113,-18.000,53.800,17.300,-68050.000,-146120.000,960750.000,444000.000,-237000.000,40000.000,888.043,-521.769,-864.861,-28.504,182.290,-249.409,2507.820,8207.283,-37881.637
1512179113,-25.200,43.300,19.000,-97900.000,-159610.000,910340.000,444000.000,-237000.000,40000.000,1374.185,-182.929,-1140.210,-103.913,159.609,74.862,964.676,7042.473,-38694.107
1512179113,13.400,59.900,15.200,-47970.000,-113590.000,787170.000,444000.000,-237000.000,40000.000,1336.481,-13.143,-1140.699,-40.455,216.442,42.419,242.348,4941.384,-39439.018
1512179113,57.700,43.000,18.400,-102360.000,-195740.000,1184880.000,444000.000,-237000.000,40000.000,1603.530,-438.244,-1226.259,-25.508,272.560,81.949,-855.995,2614.738,-40180.847
1512179113,7.300,12.700,22.800,-57010.000,-58350.000,878420.000,426000.000,-241000.000,40000.000,1656.758,-571.281,-1164.121,-35.193,220.666,227.197,-2403.457,437.416,-40506.287
1512179113,-9.200,23.300,11.100,-32960.000,-107540.000,1097840.000,426000.000,-241000.000,40000.000,1516.472,-327.829,-952.094,-31.092,185.048,275.836,-3728.149,-2227.066,-40908.859
1512179113,13.300,12.000,6.800,-175660.000,-137210.000,896120.000,426000.000,-241000.000,40000.000,1212.304,-48.942,-691.683,20.354,125.917,280.267,-4303.101,-5002.938,-40830.360
1512179113,-18.100,16.800,-7.500,10680.000,-185790.000,798950.000,426000.000,-241000.000,40000.000,424.192,-108.154,-256.094,68.719,68.608,256.185,-4646.881,-6390.946,-40903.137
1512179114,-10.100,22.800,5.300,-118410.000,-153020.000,889340.000,435000.000,-225000.000,32000.000,-256.933,-314.367,51.536,71.083,35.717,250.686,-5211.517,-6879.295,-40786.079
1512179114,44.700,19.300,-3.900,-13790.000,-104920.000,1151430.000,435000.000,-225000.000,32000.000,-687.704,-285.379,188.251,76.447,19.391,249.359,-5884.689,-6430.305,-41155.128
1512179114,4.900,26.000,1.200,-57920.000,-161190.000,807980.000,435000.000,-225000.000,32000.000,-1036.869,-57.538,298.052,108.476,13.909,171.460,-6183.823,-6205.757,-41452.477
1512179114,52.100,13.800,-12.100,-38700.000,-23190.000,1008120.000,435000.000,-225000.000,32000.000,-1230.198,248.535,399.722,160.254,14.133,55.812,-6179.367,-5230.751,-41302.025
1512179114,-15.200,10.100,-11.300,-51390.000,-113280.000,881770.000,435000.000,-225000.000,32000.000,-1312.395,482.181,482.496,221.015,17.889,-79.785,-5796.783,-3505.165,-41679.405
1512179114,-12.400,-12.300,-17.600,-73970.000,-184270.000,890200.000,437000.000,-237000.000,30000.000,-1145.185,480.283,492.376,278.708,22.158,-185.325,-5568.481,-2754.829,-41830.986
1512179114,6.000,-28.900,-7.100,-73060.000,-85880.000,932190.000,437000.000,-237000.000,30000.000,-793.546,441.278,499.464,276.658,-40.877,-180.935,-5565.857,-2154.823,-41980.705
1512179114,-3.900,-18.500,-14.500,-63660.000,-174500.000,930910.000,437000.000,-237000.000,30000.000,-763.122,740.206,608.618,268.201,-120.375,-164.221,-4964.661,-1853.920,-42285.667
1512179114,54.300,-0.900,-17.000,-58590.000,-143680.000,1054570.000,437000.000,-237000.000,30000.000,-1169.580,1037.293,770.068,334.235,-100.327,-276.909,-4733.887,-578.575,-42211.983
1512179114,38.700,-0.400,-27.000,-52550.000,-151920.000,955990.000,437000.000,-237000.000,30000.000,-1571.914,778.964,913.657,406.599,11.168,-432.393,-3529.495,398.232,-42221.733
1512179114,53.700,4.800,-30.800,-71410.000,-105770.000,1016420.000,434000.000,-248000.000,23000.000,-1535.746,73.935,947.971,386.866,116.754,-440.593,-3448.044,1823.357,-42146.706
1512179114,43.300,0.700,-32.000,-104190.000,-94180.000,1001160.000,434000.000,-248000.000,23000.000,-1117.774,-370.687,856.533,297.615,129.924,-286.045,-3669.968,2498.024,-42069.496
1512179114,28.400,4.300,-33.600,-112790.000,-111760.000,904910.000,434000.000,-248000.000,23000.000,-593.768,-251.129,763.267,234.986,102.047,-94.795,-3966.599,3247.566,-42066.597
1512179114,80.300,60.500,-36.800,-53530.000,-61950.000,844790.000,434000.000,-248000.000,23000.000,-184.529,235.589,729.310,219.010,61.328,42.658,-4411.530,4371.910,-42062.248
1512179114,62.900,20.900,-32.100,-256160.000,-205870.000,1101500.000,428000.000,-239000.000,25000.000,52.283,728.234,809.080,221.797,32.883,110.989,-3963.409,3922.585,-41766.273
1512179114,25.000,8.100,-41.800,-47420.000,-67630.000,721190.000,428000.000,-239000.000,25000.000,114.330,1021.829,939.995,215.882,41.704,120.283,-2837.540,4149.269,-42075.737
1512179114,43.400,20.600,-36.900,-178220.000,-60610.000,947450.000,428000.000,-239000.000,25000.000,199.173,964.100,1028.440,191.220,64.858,135.952,-1936.905,4300.621,-42158.318
1512179114,75.400,0.100,-46.500,-168330.000,-106080.000,995970.000,428000.000,-239000.000,25000.000,336.960,770.887,1067.074,132.542,70.494,192.829,-1339.554,3701.515,-42088.692
1512179114,-6.300,-0.800,-49.800,-50050.000,-25150.000,833440.000,428000.000,-239000.000,25000.000,483.734,618.333,1080.397,68.492,71.739,276.696,-1115.723,3476.845,-42390.709
1512179114,28.400,-9.200,-51.300,-123780.000,-134340.000,877320.000,407000.000,-239000.000,25000.000,613.163,624.862,1118.539,-10.837,59.316,356.323,-218.002,2953.194,-42248.604
1512179114,13.600,-23.700,-61.300,-93140.000,-75870.000,869570.000,407000.000,-239000.000,25000.000,625.885,810.723,1132.164,-84.388,37.105,380.532,455.231,2579.201,-42404.518
1512179114,56.700,-5.700,-61.900,-114870.000,-57980.000,983640.000,407000.000,-239000.000,25000.000,446.286,932.275,1103.331,-121.045,31.481,322.599,1203.995,2280.327,-42186.028
1512179114,33.800,-10.300,-68.800,-90330.000,-92590.000,919980.000,407000.000,-239000.000,25000.000,160.520,833.696,1038.084,-137.862,32.040,225.134,1575.882,1605.888,-42339.531
1512179114,38.700,-8.300,-67.200,-83070.000,-69270.000,933840.000,423000.000,-237000.000,20000.000,-64.331,682.887,960.743,-141.325,3.008,130.716,2550.400,1457.344,-41972.878
1512179114,36.200,-32.200,-65.000,-77270.000,-41380.000,964480.000,423000.000,-237000.000,20000.000,-119.323,322.906,916.050,-135.753,-39.932,2.356,3186.866,1233.299,-42015.907
1512179114,30.100,-21.800,-65.000,-111330.000,-70430.000,943910.000,423000.000,-237000.000,20000.000,-324.280,-231.376,970.319,-186.554,-104.099,-86.746,3937.996,1459.427,-41797.173
1512179114,32.500,-16.600,-68.000,-57620.000,-64940.000,910400.000,423000.000,-237000.000,20000.000,-771.519,-529.424,634.456,-184.264,-76.498,-248.971,3042.008,2283.088,-41189.148
1512179114,12.300,-27.700,-72.400,-87100.000,-78060.000,913880.000,423000.000,-237000.000,20000.000,-637.365,-621.958,-6.758,-111.064,-69.715,-399.226,2334.656,3407.021,-40995.071
1512179114,19.200,-44.600,-72.400,-60120.000,-38270.000,955260.000,418000.000,-243000.000,35000.000,-189.350,-904.909,-263.502,-201.291,-119.391,-266.510,1248.062,3592.896,-40873.253
1512179114,25.000,-45.300,-77.000,-36190.000,-19900.000,908570.000,418000.000,-243000.000,35000.000,-659.247,282.953,-639.831,-114.281,-96.319,-371.930,612.342,3966.941,-40680.160
1512179114,49.800,-44.300,-81.200,-85820.000,17880.000,1000240.000,418000.000,-243000.000,35000.000,-151.133,-1.867,-985.794,76.002,149.952,-489.462,1294.517,5542.961,-40497.665
1512179114,38.600,-35.700,-88.600,-29110.000,15320.000,900880.000,418000.000,-243000.000,35000.000,1413.199,-839.825,-1149.941,-48.599,113.169,35.382,-251.068,3815.643,-41122.895
1512179114,41.500,-39.900,-92.400,-95520.000,-59450.000,915950.000,418000.000,-243000.000,35000.000,1728.378,-139.060,-1190.378,-96.189,83.063,323.161,-1161.094,1601.784,-41266.258
1512179114,39.500,-37.800,-98.300,-77150.000,-24540.000,971250.000,434000.000,-262000.000,16000.000,1292.399,122.838,-1082.780,-23.722,98.801,295.849,-1022.446,-873.009,-41681.176
1512179114,17.800,-33.600,-99.200,-64330.000,-31860.000,862920.000,434000.000,-262000.000,16000.000,563.985,-345.113,-797.000,-9.894,115.685,274.001,-1367.630,-2561.027,-41866.585
1512179114,8.000,-39.900,-100.100,-115050.000,-14160.000,905760.000,434000.000,-262000.000,16000.000,-151.508,-459.891,-565.769,-23.706,110.006,249.824,-1892.708,-2561.821,-42012.130
1512179114,-27.700,-42.700,-105.700,-70740.000,-14340.000,878970.000,434000.000,-262000.000,16000.000,-175.628,-165.468,-381.733,8.597,118.077,138.101,-2190.552,-2074.768,-42084.351
