unixtime,rx,ry,rz,ax,ay,az,mx,my,mz,apprx,appry,apprz,appax,appay,appaz,appmx,appmy,appmz
1512178335,54.500,12.100,124.200,463870.000,-341060.000,1086060.000,212000.000,-172000.000,76000.000,44.085,-14.525,7.479,4.925,15.430,14.148,-33653.278,-28672.377,-18706.932
1512178335,43.300,19.200,118.400,455020.000,-331120.000,1064640.000,212000.000,-172000.000,76000.000,52.980,23.979,-13.582,-0.116,25.496,7.670,-33804.401,-28897.596,-18930.763
1512178335,43.800,12.400,119.200,433470.000,-334050.000,1083800.000,221000.000,-156000.000,91000.000,64.805,-16.575,-21.012,7.629,4.860,-2.797,-33956.455,-29347.822,-19004.692
1512178335,24.200,5.100,114.000,455510.000,-315370.000,1102600.000,221000.000,-156000.000,91000.000,8.929,-41.278,4.745,12.519,-11.806,-8.673,-33882.435,-29572.721,-18930.443
1512178335,20.800,-0.400,116.000,454960.000,-334290.000,1113460.000,221000.000,-156000.000,91000.000,-20.899,-60.550,2.112,15.862,-3.828,2.400,-34034.718,-30097.944,-18779.411
1512178335,-20.400,-8.000,114.900,468990.000,-360110.000,1078370.000,221000.000,-156000.000,91000.000,-5.062,-13.544,14.234,12.054,-5.366,6.069,-33655.781,-29272.383,-18332.222
1512178335,-30.000,3.200,119.800,464050.000,-357850.000,1040830.000,221000.000,-156000.000,91000.000,25.473,9.954,38.210,10.913,1.648,-2.304,-33728.870,-28822.493,-18556.374
1512178335,-48.100,5.300,117.200,465210.000,-374080.000,1060300.000,231000.000,-171000.000,67000.000,40.651,-2.809,22.395,8.416,14.016,-6.041,-34106.571,-29423.048,-18553.459
1512178335,-14.400,1.300,116.200,476750.000,-374880.000,1147460.000,231000.000,-171000.000,67000.000,35.655,-27.343,0.916,0.895,12.518,-2.619,-33953.495,-28747.831,-18479.424
1512178335,5.600,1.900,118.800,498600.000,-348330.000,1139770.000,231000.000,-171000.000,67000.000,24.032,-8.123,-4.516,5.065,22.281,-4.733,-34106.800,-29498.060,-18328.499
1512178335,-1.100,1.200,114.400,478820.000,-360470.000,1074770.000,231000.000,-171000.000,67000.000,56.381,19.742,-25.271,2.009,26.914,-2.162,-34109.043,-29948.057,-18778.694
1512178335,0.500,2.700,112.900,474730.000,-342100.000,1077150.000,228000.000,-181000.000,74000.000,112.127,11.318,-44.749,4.438,10.820,-0.190,-33879.063,-28897.718,-18255.119
1512178335,14.100,0.100,113.700,469120.000,-348750.000,1138980.000,228000.000,-181000.000,74000.000,130.921,59.362,-18.725,5.234,-0.835,-4.064,-33879.841,-29047.712,-18480.202
1512178335,46.200,-1.600,115.700,458500.000,-323360.000,1185360.000,228000.000,-181000.000,74000.000,147.653,111.690,4.090,0.628,12.327,-1.206,-33882.053,-29572.721,-18180.443
1512178335,64.300,-4.500,116.800,482540.000,-295590.000,1119870.000,228000.000,-181000.000,74000.000,167.711,177.920,19.536,-2.677,17.376,-16.696,-33732.471,-29647.490,-18331.749
1512178335,35.400,0.400,115.800,411130.000,-351680.000,1093990.000,228000.000,-181000.000,74000.000,139.641,108.405,37.009,9.956,24.503,-38.260,-33809.498,-30097.609,-18331.322
1512178335,27.700,-3.300,115.300,444340.000,-350710.000,1105410.000,249000.000,-163000.000,81000.000,26.421,-10.352,44.550,2.134,37.493,-30.442,-33657.658,-29722.380,-18032.417
1512178335,73.500,-3.700,116.600,454410.000,-326110.000,1128660.000,249000.000,-163000.000,81000.000,-133.398,3.302,40.151,-11.950,50.114,-19.774,-33433.704,-29947.050,-18109.444
1512178335,88.800,-5.900,116.800,460880.000,-348510.000,1116880.000,249000.000,-163000.000,81000.000,-156.541,80.200,24.088,-4.444,53.912,-16.705,-33433.033,-29797.041,-18109.367
1512178335,7.900,13.800,118.000,510990.000,-352230.000,1001830.000,249000.000,-163000.000,81000.000,-50.419,157.212,57.879,12.373,53.055,-30.271,-33431.004,-29347.044,-18109.169
1512178335,36.800,10.300,121.700,484070.000,-352910.000,1091550.000,249000.000,-163000.000,81000.000,59.407,225.615,124.738,4.392,59.158,-48.534,-33207.096,-29571.714,-18261.177
1512178335,54.900,1.900,122.900,514040.000,-361150.000,1128480.000,240000.000,-165000.000,62000.000,107.645,238.407,173.453,9.953,84.045,-67.359,-33437.458,-30772.047,-18184.822
1512178335,61.900,-3.900,120.200,494810.000,-343630.000,1102360.000,240000.000,-165000.000,62000.000,107.247,132.616,192.267,1.924,107.205,-81.740,-32908.146,-29796.263,-18338.829
1512178335,77.400,3.700,118.100,454900.000,-367610.000,1096310.000,240000.000,-165000.000,62000.000,36.806,36.373,193.046,-11.709,118.467,-47.569,-32982.166,-29571.363,-18413.094
1512178335,26.200,17.600,119.200,487370.000,-381230.000,1049620.000,240000.000,-165000.000,62000.000,-57.597,72.603,166.220,-41.312,118.493,-42.045,-32758.701,-29946.028,-18115.181
1512178335,51.300,21.400,120.100,465090.000,-359310.000,1126160.000,254000.000,-183000.000,62000.000,-32.446,145.217,195.619,-41.520,112.328,-19.159,-32533.970,-30020.689,-17967.125
1512178335,74.600,18.000,118.100,499330.000,-350830.000,1125060.000,254000.000,-183000.000,62000.000,211.115,311.417,334.581,-40.697,94.934,5.466,-32571.018,-29908.255,-18079.262
1512178335,89.600,35.000,114.900,496580.000,-367610.000,1139220.000,254000.000,-183000.000,62000.000,341.943,488.315,652.648,-18.243,115.576,-31.842,-31931.942,-29569.791,-17972.023
1512178335,54.600,45.500,118.800,493350.000,-371830.000,1076660.000,254000.000,-183000.000,62000.000,121.868,479.719,777.355,-27.482,168.054,-60.856,-31256.954,-29568.778,-18015.258
1512178335,34.500,45.000,120.400,499820.000,-380680.000,1084900.000,254000.000,-183000.000,62000.000,132.164,525.085,801.649,-32.827,146.790,-20.309,-31067.043,-29005.995,-18241.585
1512178335,59.700,48.900,125.400,513120.000,-327760.000,1113340.000,226000.000,-172000.000,79000.000,299.988,541.226,871.830,-17.320,116.820,7.649,-29901.608,-28329.245,-18476.158
1512178335,59.700,46.100,123.400,487120.000,-393070.000,1161440.000,226000.000,-172000.000,79000.000,166.252,515.738,964.685,-30.896,85.173,73.838,-29186.696,-27803.175,-18369.468
1512178335,20.200,52.900,130.800,500920.000,-381410.000,1069580.000,226000.000,-172000.000,79000.000,-208.989,715.648,1135.310,-23.524,105.131,23.579,-28694.149,-26639.928,-18748.077
1512178335,27.600,61.400,132.000,472660.000,-379390.000,1070680.000,226000.000,-172000.000,79000.000,-182.444,546.788,1198.004,-6.457,134.524,-50.862,-27487.583,-25138.128,-19132.584
1512178335,61.400,50.700,130.100,484860.000,-361450.000,1114440.000,226000.000,-172000.000,79000.000,-72.561,329.075,1182.849,-45.484,100.701,17.124,-27443.730,-23713.056,-19244.736
1512178335,82.800,51.100,129.400,482360.000,-336360.000,1083560.000,231000.000,-156000.000,84000.000,-353.754,398.570,1203.536,-14.559,16.222,14.629,-26650.966,-22549.376,-19175.895
1512178335,63.500,50.900,127.700,459350.000,-377990.000,1112610.000,231000.000,-156000.000,84000.000,-495.455,537.367,1399.186,46.518,13.782,-95.678,-25928.356,-20298.285,-19218.415
1512178335,71.100,44.300,126.500,471500.000,-329710.000,1066650.000,231000.000,-156000.000,84000.000,-165.208,287.096,1271.441,14.069,3.589,-68.346,-25284.725,-18909.819,-19448.197
1512178336,105.900,40.500,127.800,452510.000,-335880.000,1149290.000,231000.000,-156000.000,84000.000,-376.988,240.080,1118.431,-13.726,-90.980,-15.539,-24750.904,-16959.013,-19376.747
1512178336,69.500,33.800,123.700,480160.000,-350650.000,1128660.000,242000.000,-160000.000,91000.000,-658.602,291.022,1066.554,-7.841,-119.687,-47.962,-24450.077,-16808.561,-19079.231
1512178336,61.400,37.200,128.000,478210.000,-326900.000,1054440.000,242000.000,-160000.000,91000.000,-764.866,235.487,978.470,5.069,-108.544,-98.945,-24138.828,-14333.097,-18855.644
1512178336,35.300,36.900,122.400,482850.000,-379270.000,1093260.000,242000.000,-160000.000,91000.000,-714.477,126.780,891.406,4.675,-124.413,-96.707,-23910.496,-13582.762,-18932.213
1512178336,29.400,34.600,121.300,473750.000,-354920.000,1076350.000,242000.000,-160000.000,91000.000,-605.119,204.864,922.044,1.235,-139.161,-82.925,-23904.987,-12382.750,-18706.657
1512178336,47.500,29.000,124.400,492000.000,-304990.000,1103940.000,242000.000,-160000.000,91000.000,-450.211,390.732,1040.069,18.910,-105.940,-95.088,-23376.865,-11706.953,-18560.814
1512178336,60.700,27.600,118.100,455990.000,-368100.000,1149170.000,254000.000,-162000.000,76000.000,-192.690,535.263,1075.218,37.711,-36.738,-128.372,-23147.556,-10731.611,-18712.257
1512178336,32.100,43.400,120.400,461430.000,-387510.000,1024290.000,254000.000,-162000.000,76000.000,201.834,502.894,1004.066,34.404,-1.103,-96.789,-22624.317,-11105.833,-18866.905
1512178336,64.300,61.900,124.200,498780.000,-347350.000,1036190.000,254000.000,-162000.000,76000.000,560.233,350.861,920.250,18.925,-11.705,-1.484,-21949.955,-11254.820,-18797.707
1512178336,103.600,67.900,125.800,458250.000,-355960.000,1128850.000,254000.000,-162000.000,76000.000,626.110,295.518,865.574,4.280,-50.921,78.702,-21801.044,-11479.597,-18949.089
1512178336,96.500,68.000,130.500,514400.000,-395870.000,1070430.000,254000.000,-162000.000,76000.000,418.802,309.157,831.703,11.919,-59.239,123.166,-21199.619,-11178.694,-18804.054
1512178336,79.000,27.300,136.900,456540.000,-366520.000,1040770.000,247000.000,-144000.000,79000.000,122.630,349.315,822.222,22.718,-54.589,116.748,-20750.431,-11328.016,-19107.933
1512178336,-6.900,6.500,137.700,416020.000,-331910.000,993900.000,247000.000,-144000.000,79000.000,-39.058,325.610,799.541,43.430,-56.040,90.903,-20899.006,-11028.242,-18956.535
1512178336,-18.600,21.700,145.000,446230.000,-316410.000,1090390.000,247000.000,-144000.000,79000.000,-34.656,204.814,850.357,61.972,-65.768,74.942,-19999.653,-11176.893,-18889.244
1512178336,20.500,16.000,135.300,434270.000,-322450.000,1137020.000,247000.000,-144000.000,79000.000,-22.741,157.601,965.498,91.454,-87.949,92.673,-20297.245,-10652.342,-18811.455
1512178336,40.700,14.900,130.900,467710.000,-350770.000,1154540.000,240000.000,-148000.000,79000.000,8.738,338.909,1133.956,74.128,-72.711,102.949,-19849.079,-11026.670,-19115.456
1512178336,15.300,2.500,129.600,466860.000,-400020.000,1041870.000,240000.000,-148000.000,79000.000,48.230,393.323,1198.682,100.070,-23.617,24.947,-19019.962,-10125.425,-18972.054
1512178336,20.600,-11.300,124.900,476620.000,-393800.000,1080810.000,240000.000,-148000.000,79000.000,-30.316,329.158,1174.934,87.055,13.710,-1.889,-18716.206,-9299.971,-18899.223
1512178336,36.800,-25.300,133.800,500730.000,-361390.000,1119750.000,240000.000,-148000.000,79000.000,-102.998,364.394,1122.830,68.432,39.104,2.947,-18266.575,-9374.296,-18978.081
1512178336,20.900,-30.200,129.700,497920.000,-368960.000,1106200.000,240000.000,-148000.000,79000.000,-99.988,391.338,1006.769,61.872,95.072,-40.641,-17662.189,-8398.390,-18982.735
1512178336,27.700,-32.400,135.300,468510.000,-376950.000,1149170.000,253000.000,-146000.000,77000.000,-9.736,314.786,895.875,72.049,56.376,-64.821,-17587.269,-8398.268,-19133.354
1512178336,-31.400,-24.900,141.500,501160.000,-356630.000,1042660.000,253000.000,-146000.000,77000.000,107.726,219.926,879.122,69.292,34.254,-70.858,-17437.046,-8323.042,-19359.612
1512178336,-15.800,-20.800,149.400,462520.000,-378660.000,1082090.000,253000.000,-146000.000,77000.000,210.808,231.922,834.817,76.407,26.723,-40.934,-16836.033,-8172.148,-18689.629
1512178336,-3.900,-29.600,147.700,474180.000,-378780.000,1078370.000,253000.000,-146000.000,77000.000,312.908,269.558,786.321,95.749,12.920,-15.354,-16236.134,-8171.247,-18919.731
1512178336,-22.900,-27.800,143.800,515620.000,-385010.000,1124080.000,256000.000,-160000.000,88000.000,419.959,423.329,896.615,128.967,-40.581,49.426,-15749.874,-8433.012,-19036.492
1512178336,-55.700,-28.800,138.600,522770.000,-411190.000,1103520.000,256000.000,-160000.000,88000.000,417.582,392.940,1135.803,109.535,-11.306,45.011,-14476.765,-8843.603,-19122.520
1512178336,-77.400,-22.800,144.100,508360.000,-417910.000,1088620.000,256000.000,-160000.000,88000.000,99.674,303.710,1177.259,99.939,51.321,32.032,-13313.976,-8766.859,-19244.873
1512178336,-86.300,-8.100,165.400,500000.000,-417050.000,1069400.000,256000.000,-160000.000,88000.000,66.633,332.221,1048.953,97.816,75.217,8.481,-12638.958,-8765.852,-19213.104
1512178336,-34.900,-17.200,193.900,494450.000,-400270.000,1084050.000,256000.000,-160000.000,88000.000,239.154,278.589,1025.148,115.882,43.563,2.241,-11926.289,-8727.278,-19219.139
1512178336,-21.400,-19.400,171.800,498540.000,-397090.000,1065730.000,258000.000,-151000.000,89000.000,193.337,302.084,992.584,110.501,13.708,56.951,-10988.316,-8613.371,-19302.063
1512178336,-8.900,-6.300,167.600,508610.000,-398500.000,1050050.000,258000.000,-151000.000,89000.000,105.939,439.141,1030.708,99.754,8.797,48.885,-10012.508,-8424.414,-19385.261
1512178336,-7.600,-10.300,152.700,504580.000,-440120.000,1139890.000,258000.000,-151000.000,89000.000,29.716,452.375,1031.248,61.833,47.568,7.801,-8962.070,-8347.838,-19206.650
1512178336,25.700,-14.400,171.400,495970.000,-414250.000,1104610.000,258000.000,-151000.000,89000.000,102.532,389.765,879.640,-1.995,52.208,-7.674,-7723.949,-8195.982,-19329.597
1512178336,26.500,-12.100,164.600,505740.000,-413510.000,1142700.000,258000.000,-151000.000,89000.000,104.534,465.778,794.115,-43.583,-27.710,40.038,-6674.732,-8381.903,-19226.105
1512178336,26.600,3.300,146.300,497680.000,-394780.000,1138920.000,270000.000,-135000.000,57000.000,-146.763,941.351,1025.594,3.278,-41.906,-88.391,-5060.208,-7929.480,-19239.608
1512178336,85.200,4.400,159.000,511960.000,-402040.000,1154850.000,270000.000,-135000.000,57000.000,167.555,491.140,981.676,-31.351,55.304,-124.213,-2885.327,-7963.720,-19183.113
1512178336,86.300,10.700,145.100,482240.000,-397030.000,1157230.000,270000.000,-135000.000,57000.000,152.843,442.731,868.823,-110.219,25.200,17.252,-2288.105,-8562.818,-19338.486
1512178337,68.700,19.800,153.900,503360.000,-394290.000,1094120.000,270000.000,-135000.000,57000.000,-95.939,626.298,1031.097,-97.408,25.595,47.373,-1236.179,-8148.741,-19197.227
1512178337,103.100,33.300,145.800,503850.000,-378970.000,1125920.000,267000.000,-149000.000,84000.000,-244.775,570.452,1068.192,-111.491,82.970,10.750,-335.789,-8072.401,-19129.845
1512178337,107.500,35.200,171.400,542240.000,-398990.000,1146670.000,267000.000,-149000.000,84000.000,-253.965,231.901,1027.437,-90.685,34.402,27.865,337.902,-8371.382,-19060.707
1512178337,100.800,59.300,184.000,529790.000,-361690.000,1107300.000,267000.000,-149000.000,84000.000,-263.965,76.834,1108.838,-89.889,28.381,52.104,788.906,-8145.704,-19064.430
1512178337,125.300,94.700,195.900,528630.000,-398010.000,1176760.000,267000.000,-149000.000,84000.000,-345.473,211.234,1145.439,-80.847,18.381,62.831,1169.079,-7020.140,-18842.094
1512178337,102.300,113.100,185.200,496950.000,-394960.000,1122310.000,267000.000,-149000.000,84000.000,-387.440,238.894,1170.513,-49.629,15.534,-3.468,2070.095,-6793.791,-18849.648
1512178337,-48.200,108.800,238.600,471070.000,-398320.000,1095150.000,303000.000,-123000.000,66000.000,-366.430,4.848,1242.494,-31.776,6.039,-19.368,2072.308,-6343.779,-18474.434
1512178337,-18.900,80.300,296.800,441770.000,-406980.000,963930.000,303000.000,-123000.000,66000.000,-310.065,67.931,1253.122,1.477,42.085,41.728,1997.356,-6343.901,-18398.811
1512178337,11.500,45.100,299.900,448790.000,-372310.000,1011050.000,303000.000,-123000.000,66000.000,-278.763,174.840,1235.829,-21.663,58.385,24.920,2372.356,-6343.336,-18401.985
1512178337,143.100,12.800,258.300,423520.000,-343380.000,1041930.000,303000.000,-123000.000,66000.000,-170.767,158.077,1149.915,-40.162,55.360,26.460,2748.745,-6042.768,-18330.040
1512178337,164.100,-3.900,218.200,439510.000,-332150.000,1089420.000,295000.000,-107000.000,54000.000,-90.435,3.373,1119.626,-38.257,24.204,24.974,2824.749,-5817.656,-18330.574
1512178337,17.000,10.900,181.600,447200.000,-387020.000,1046200.000,295000.000,-107000.000,54000.000,-114.358,-256.268,1135.432,-61.645,-10.139,11.572,3050.808,-5592.314,-18257.393
1512178337,-35.000,-13.600,219.700,437380.000,-363710.000,1103700.000,295000.000,-107000.000,54000.000,-257.481,-501.238,1205.000,-59.748,-19.434,41.387,2823.360,-6117.659,-18405.708
1512178337,-17.800,-38.600,231.200,466370.000,-411560.000,1103150.000,295000.000,-107000.000,54000.000,-427.645,-238.952,1322.847,-77.040,82.198,184.342,2975.201,-5742.430,-18106.819
1512178337,92.900,-45.000,291.000,437680.000,-388060.000,1061950.000,295000.000,-107000.000,54000.000,-639.469,455.018,1336.046,-75.360,-30.076,85.594,3503.094,-5066.633,-18410.957
1512178337,-18.600,-4.400,378.800,434940.000,-398130.000,1063110.000,316000.000,-96000.000,37000.000,-551.048,395.209,1402.152,-42.033,6.001,61.749,4025.387,-5665.846,-18415.703
1512178337,-110.400,17.200,504.800,427730.000,-398800.000,989140.000,316000.000,-96000.000,37000.000,-484.253,441.071,1491.764,-25.958,-15.824,-40.886,5156.353,-4389.158,-17974.678
1512178337,-130.200,10.100,573.500,426210.000,-399350.000,1099240.000,316000.000,-96000.000,37000.000,-444.965,-144.201,1473.242,-29.480,-16.646,-12.482,5457.119,-4238.707,-17827.156
1512178337,352.700,-62.900,630.200,485720.000,-396300.000,1237430.000,316000.000,-96000.000,37000.000,-297.647,-339.546,1515.204,-11.934,8.616,99.416,5083.538,-3939.268,-17673.836
1512178337,42.700,-1.900,548.500,491760.000,-413880.000,1191350.000,316000.000,-96000.000,37000.000,33.689,335.973,1560.733,-36.519,-4.096,124.937,5682.156,-4238.371,-17754.082
1512178337,-165.900,63.300,504.000,500000.000,-409240.000,1107540.000,358000.000,40000.000,-101000.000,410.149,684.511,1698.526,-56.180,-19.008,64.128,6356.319,-4462.355,-17384.911
1512178337,-445.100,196.300,498.100,457150.000,-418820.000,955260.000,358000.000,40000.000,-101000.000,774.556,881.320,1848.408,-72.692,-10.523,45.761,7626.003,-5585.447,-17921.272
1512178337,405.100,-66.600,516.100,385800.000,-362550.000,608640.000,358000.000,40000.000,-101000.000,1066.376,804.958,1796.935,-66.771,15.179,9.006,9197.369,-6408.094,-17785.042
1512178337,1547.400,1558.200,863.100,735170.000,-626950.000,1046880.000,358000.000,40000.000,-101000.000,1055.816,805.326,1595.291,-70.886,12.086,9.383,10093.578,-7231.749,-17943.077
1512178337,1094.300,1064.300,1118.500,561950.000,-665160.000,1826780.000,337000.000,37000.000,-639000.000,834.052,762.777,1337.146,-57.861,-24.350,-12.764,10912.838,-8505.522,-17950.676
1512178337,-357.700,-83.200,746.200,344600.000,-331670.000,396060.000,337000.000,37000.000,-639000.000,360.577,885.123,1223.041,-31.238,-69.642,-45.189,12035.336,-9103.834,-17585.503
1512178337,564.700,-220.200,487.600,467710.000,-314510.000,1779790.000,337000.000,37000.000,-639000.000,-52.322,1078.760,1026.909,7.438,-58.875,-80.230,13420.254,-9664.259,-17710.068
1512178337,-86.400,-569.000,206.300,305300.000,-379580.000,988590.000,337000.000,37000.000,-639000.000,3.712,460.425,992.522,32.815,-93.332,-54.691,14994.229,-9924.398,-17423.569
1512178337,-62.700,-480.200,127.800,466250.000,-423890.000,987000.000,337000.000,37000.000,-639000.000,-125.016,636.735,1405.435,-107.301,-128.197,-44.244,16154.201,-10522.665,-17096.230
1512178337,408.700,589.200,190.100,399050.000,-312500.000,1191100.000,333000.000,47000.000,-605000.000,-107.776,232.804,954.401,-201.571,6.045,-41.744,17125.790,-11308.707,-16842.377
1512178337,165.900,-8.000,133.400,416930.000,-359680.000,1009830.000,333000.000,47000.000,-605000.000,280.038,332.122,456.120,31.171,-28.866,-132.972,18100.002,-11532.240,-16400.772
1512178337,-157.400,-363.300,153.900,430660.000,-438900.000,1187680.000,333000.000,47000.000,-605000.000,841.244,-220.260,950.049,-23.067,-75.480,-81.954,18204.624,-13257.086,-16627.525
1512178337,5.100,-20.900,163.700,468990.000,-471620.000,996950.000,333000.000,47000.000,-605000.000,48.901,265.362,1087.378,-61.026,19.873,5.050,18160.656,-14682.150,-16740.356
1512178337,46.900,206.300,158.600,476500.000,-440800.000,1130190.000,333000.000,47000.000,-605000.000,-250.143,556.214,973.186,16.111,134.965,-119.816,18908.901,-15093.527,-16559.433
1512178337,-89.500,-30.400,143.400,452940.000,-453550.000,1049870.000,356000.000,38000.000,-577000.000,418.541,503.432,630.890,22.340,210.831,-66.884,19806.514,-15654.684,-16267.342
1512178337,-75.500,-91.900,149.000,488160.000,-419740.000,1072330.000,356000.000,38000.000,-577000.000,681.582,564.188,359.336,-37.879,74.156,126.230,20626.179,-16890.951,-15824.928
1512178337,-61.300,136.200,156.500,475040.000,-440310.000,1086670.000,356000.000,38000.000,-577000.000,374.966,853.098,414.001,-39.916,69.593,200.121,21745.312,-18239.272,-15422.615
1512178337,-40.500,17.200,167.800,451720.000,-457460.000,1103760.000,356000.000,38000.000,-577000.000,273.409,1233.214,417.049,-22.882,40.911,56.080,23281.017,-18724.471,-14648.407
1512178338,-24.100,-42.500,193.100,505310.000,-401250.000,1103210.000,360000.000,45000.000,-590000.000,-39.901,338.025,463.765,14.399,50.026,-75.489,25191.753,-19209.105,-13802.391
1512178338,30.900,52.600,165.500,478880.000,-470640.000,1124270.000,360000.000,45000.000,-590000.000,-231.441,-323.631,539.709,16.135,29.336,-54.211,25266.537,-19283.995,-13578.056
1512178338,59.900,33.400,165.900,488280.000,-418700.000,1143130.000,360000.000,45000.000,-590000.000,-389.253,-723.347,522.172,2.868,38.291,25.593,24815.365,-19509.672,-13874.336
1512178338,33.200,-12.100,161.000,509400.000,-423340.000,1155760.000,360000.000,45000.000,-590000.000,-491.258,-776.992,564.217,1.547,-21.966,104.942,24064.541,-19660.795,-14168.037
1512178338,81.900,23.600,166.700,461730.000,-410890.000,1076290.000,360000.000,45000.000,-590000.000,-426.557,-613.512,592.376,-12.367,-2.394,146.962,23163.296,-19887.144,-14610.481
1512178338,98.500,49.800,160.100,446840.000,-418400.000,1093320.000,353000.000,56000.000,-573000.000,-160.801,-74.496,470.173,-41.408,46.085,205.718,22941.677,-19137.480,-14608.223
1512178338,118.100,-24.800,155.000,518310.000,-386960.000,1133240.000,353000.000,56000.000,-573000.000,5.927,366.377,207.609,-66.417,-23.438,149.424,23242.657,-18912.031,-14685.677
1512178338,96.300,16.800,161.400,505310.000,-443600.000,1125790.000,353000.000,56000.000,-573000.000,59.824,267.453,37.476,-61.559,-56.010,108.180,23465.588,-19361.692,-14762.794
1512178338,207.200,96.500,142.600,503420.000,-391420.000,1265140.000,353000.000,56000.000,-573000.000,-69.070,3.573,-46.331,-29.218,-51.802,116.377,23164.608,-19587.141,-14685.356
1512178338,127.200,19.000,145.000,487300.000,-414310.000,1068420.000,339000.000,45000.000,-567000.000,-81.330,-114.682,-213.224,-56.508,-65.499,71.534,23091.228,-19287.260,-14159.569
1512178338,83.500,-3.500,162.300,471440.000,-388310.000,1068360.000,339000.000,45000.000,-567000.000,-130.141,-44.240,-224.350,11.795,-107.345,112.938,23466.640,-19136.686,-14687.691
1512178338,58.100,80.300,166.600,446660.000,-383360.000,1065250.000,339000.000,45000.000,-567000.000,-278.081,-41.236,-239.277,-23.652,-147.333,90.304,23468.670,-18686.689,-14687.492
1512178338,64.200,33.600,172.800,440310.000,-341550.000,1021730.000,339000.000,45000.000,-567000.000,-404.308,-140.683,-281.960,-17.565,-127.244,25.145,23394.146,-18611.799,-14386.818
1512178338,67.000,27.200,169.200,444150.000,-357540.000,1080570.000,339000.000,45000.000,-567000.000,-264.832,-88.024,-333.058,15.449,-147.898,32.272,23019.634,-18462.370,-14758.553
1512178338,-16.800,73.600,174.700,405640.000,-401370.000,1074400.000,361000.000,61000.000,-575000.000,66.977,302.114,-201.099,5.522,-166.183,-17.027,23322.384,-17861.906,-14685.829
1512178338,-26.600,42.700,171.100,468990.000,-362850.000,1054260.000,361000.000,61000.000,-575000.000,144.181,149.422,-170.660,14.291,-155.196,-77.721,23246.105,-18162.031,-14535.332
1512178338,10.900,33.800,175.600,452030.000,-420230.000,1082760.000,361000.000,61000.000,-575000.000,53.847,-74.855,-263.365,-14.787,-137.379,-79.393,23696.712,-18011.351,-14689.095
1512178338,-22.800,44.900,167.600,458190.000,-414250.000,1065430.000,361000.000,61000.000,-575000.000,89.662,-153.639,-370.794,-14.138,-136.999,-96.357,23473.125,-17711.683,-14537.041
1512178338,21.600,43.000,163.400,444090.000,-393490.000,1143190.000,361000.000,61000.000,-575000.000,278.320,-97.812,-365.733,-13.137,-135.768,-88.168,23396.740,-18011.793,-14611.534
1512178338,43.800,1.900,163.300,392030.000,-420780.000,1078610.000,363000.000,49000.000,-580000.000,432.601,138.440,-336.023,3.211,-107.038,-104.487,23772.152,-17936.232,-14464.699
1512178338,134.900,29.600,161.300,463320.000,-382260.000,1120790.000,363000.000,49000.000,-580000.000,546.424,112.948,-322.737,15.205,-127.408,-153.776,23695.797,-18236.341,-14464.195
1512178338,234.200,11.500,166.700,453800.000,-385740.000,1145020.000,363000.000,49000.000,-580000.000,656.298,-53.752,-205.524,100.500,-86.724,-215.695,23465.847,-19286.695,-14912.758
1512178338,202.500,-6.400,171.600,464170.000,-380980.000,1102780.000,363000.000,49000.000,-580000.000,939.910,-246.082,40.977,96.020,-97.658,-172.466,23243.404,-18762.022,-14535.606
1512178338,152.900,21.000,174.300,526180.000,-365540.000,1154170.000,358000.000,61000.000,-595000.000,960.775,-438.365,58.731,2.897,-127.897,-55.975,23463.680,-19811.705,-14538.002
1512178338,190.800,24.100,173.200,489620.000,-389220.000,1157410.000,358000.000,61000.000,-595000.000,529.456,-312.249,233.087,-52.656,-107.984,7.876,22858.944,-20862.608,-14533.394
1512178338,179.400,10.000,175.100,516050.000,-364690.000,1134280.000,358000.000,61000.000,-595000.000,-166.402,-150.802,159.603,-46.809,-34.924,-41.325,22782.528,-21162.718,-14682.899
1512178338,45.400,51.400,173.000,471310.000,-374820.000,1120790.000,358000.000,61000.000,-595000.000,-780.312,-473.586,-219.803,-63.827,20.037,-196.779,22299.015,-20263.449,-14790.824
1512178338,-9.300,43.400,170.600,437870.000,-392820.000,1095150.000,358000.000,61000.000,-595000.000,-202.398,-643.035,-784.494,44.685,190.248,-178.868,21255.124,-18840.002,-15381.241
1512178338,-0.400,55.400,165.400,514100.000,-399170.000,1100590.000,361000.000,65000.000,-595000.000,897.322,-157.435,-798.855,7.071,104.387,113.172,20542.133,-18916.075,-15675.216
1512178338,52.100,55.100,158.600,479980.000,-421450.000,1134220.000,361000.000,65000.000,-595000.000,674.640,422.433,-616.168,-25.868,20.941,212.909,20872.776,-20453.085,-15566.299
1512178338,-21.700,68.700,163.100,462770.000,-391240.000,1090450.000,361000.000,65000.000,-595000.000,-256.183,290.109,-322.022,59.542,22.022,67.959,21887.020,-20114.065,-15124.748
1512178338,32.500,63.000,164.100,464660.000,-378480.000,1130800.000,361000.000,65000.000,-595000.000,-380.126,-96.931,31.966,117.996,75.245,-26.932,22077.358,-19476.279,-15201.049
1512178338,34.900,47.300,159.400,422970.000,-367000.000,1083440.000,361000.000,65000.000,-595000.000,-126.919,-195.850,284.749,42.758,43.600,78.254,21666.821,-19026.892,-15309.837
1512178338,-21.200,26.600,159.500,439090.000,-397090.000,1094120.000,360000.000,74000.000,-577000.000,-22.817,102.670,386.439,28.738,54.261,111.729,21478.619,-19177.168,-15345.810
1512178338,11.300,46.900,162.700,457520.000,-376100.000,1075200.000,360000.000,74000.000,-577000.000,-1.142,129.977,365.524,30.618,41.566,69.005,21665.677,-19289.389,-15234.955
1512178338,127.600,6.300,155.300,480160.000,-411250.000,1109680.000,360000.000,74000.000,-577000.000,165.991,237.420,449.873,28.032,-13.195,92.564,21888.554,-19776.564,-15087.097
1512178338,33.200,64.000,173.400,473630.000,-346370.000,1150020.000,360000.000,74000.000,-577000.000,208.711,403.930,550.750,-1.863,-46.204,90.504,22410.747,-20413.274,-14979.355
1512178338,-1.100,32.900,166.600,432800.000,-403810.000,1178160.000,365000.000,68000.000,-592000.000,177.687,295.459,552.055,-27.935,-27.182,20.580,22817.868,-21650.167,-14608.437
1512178339,39.500,-50.100,170.000,480040.000,-389650.000,1087160.000,365000.000,68000.000,-592000.000,206.675,144.988,499.714,-44.160,-42.282,-2.453,23154.934,-21762.159,-14461.357
1512178339,-4.700,-3.700,177.800,443970.000,-437870.000,1029540.000,365000.000,68000.000,-592000.000,146.177,111.814,481.664,-39.168,-71.008,-33.901,23003.994,-21987.379,-14310.188
1512178339,-34.600,-12.800,166.400,500920.000,-457340.000,1034360.000,365000.000,68000.000,-592000.000,-36.642,-19.902,507.342,-41.635,-67.001,-96.684,23001.034,-22662.397,-14160.500
1512178339,-54.300,-1.500,181.200,490970.000,-458980.000,987180.000,365000.000,68000.000,-592000.000,-113.805,-198.313,458.696,-20.669,-25.157,-154.831,23151.302,-22587.172,-14311.745
1512178339,8.100,43.500,165.100,483220.000,-466920.000,1113340.000,351000.000,75000.000,-575000.000,106.570,-265.045,344.391,11.736,15.031,-171.842,22549.496,-22963.072,-14531.807
1512178339,19.300,8.500,158.500,491580.000,-435000.000,1060300.000,351000.000,75000.000,-575000.000,548.220,-140.309,267.004,46.907,4.087,-121.003,22548.977,-23113.066,-14231.880
1512178339,-41.800,24.100,186.600,448000.000,-496150.000,1040710.000,351000.000,75000.000,-575000.000,912.041,27.853,322.969,54.386,-31.894,-69.319,22246.197,-23713.530,-14379.601
1512178339,4.400,71.900,153.400,479980.000,-450930.000,1043330.000,351000.000,75000.000,-575000.000,927.684,193.129,480.478,46.353,-65.928,-0.392,22313.961,-25363.417,-14006.004
1512178339,37.200,24.600,173.400,446290.000,-450200.000,1112850.000,351000.000,75000.000,-575000.000,524.435,346.028,634.009,22.316,-76.571,28.301,22011.303,-25963.881,-13928.734
1512178339,-5.600,48.100,162.600,452510.000,-428280.000,1058470.000,365000.000,75000.000,-578000.000,-106.830,400.459,711.405,55.042,-34.075,-10.992,22458.141,-26638.197,-14157.875
1512178339,73.900,63.900,162.100,465640.000,-434390.000,1138610.000,365000.000,75000.000,-578000.000,-617.312,306.648,762.317,113.214,26.390,-99.449,22761.700,-25887.754,-13785.072
1512178339,69.000,49.100,156.600,474910.000,-458620.000,1076600.000,365000.000,75000.000,-578000.000,-763.106,120.478,802.199,133.960,88.494,-148.758,22538.769,-25438.093,-13707.954
1512178339,31.800,41.700,156.300,484860.000,-430970.000,1102910.000,365000.000,75000.000,-578000.000,-531.711,-14.806,792.290,128.717,159.329,-141.695,22462.231,-25738.203,-14082.451
1512178339,91.600,52.100,159.400,460750.000,-424800.000,1116580.000,361000.000,89000.000,-582000.000,-171.216,12.720,653.688,98.951,182.870,-46.976,21938.168,-25513.990,-14227.882
1512178339,41.800,29.400,149.000,423520.000,-430970.000,1048400.000,361000.000,89000.000,-582000.000,72.666,197.163,484.099,75.144,137.915,63.535,22162.655,-25663.649,-13929.878
1512178339,34.600,63.100,147.900,471370.000,-417910.000,1116460.000,361000.000,89000.000,-582000.000,151.386,466.674,377.436,74.025,83.551,133.689,22309.582,-26338.423,-14006.462
1512178339,40.200,75.600,145.000,427670.000,-438290.000,1071840.000,361000.000,89000.000,-582000.000,92.724,720.911,326.297,93.951,31.583,147.670,22686.153,-26037.870,-13559.502
1512178339,-9.200,46.700,149.300,453800.000,-449770.000,1088200.000,361000.000,89000.000,-582000.000,-37.843,843.489,364.281,121.921,11.861,123.970,23435.665,-26186.750,-13190.956
1512178339,-45.400,65.000,158.600,407410.000,-438110.000,1105290.000,358000.000,93000.000,-599000.000,-178.171,850.541,469.943,150.519,6.806,86.407,23883.862,-26636.061,-12744.987
1512178339,-13.200,42.700,152.600,454160.000,-444580.000,1093810.000,358000.000,93000.000,-599000.000,-270.375,592.669,618.023,162.060,25.777,31.735,24559.689,-26485.060,-12450.661
1512178339,24.000,68.200,153.700,427250.000,-441650.000,1099790.000,358000.000,93000.000,-599000.000,-260.767,178.010,726.524,153.746,61.872,20.067,24634.609,-26484.938,-12601.295
1512178339,-40.900,69.400,147.000,412900.000,-478760.000,1038150.000,358000.000,93000.000,-599000.000,-228.224,-145.638,740.792,102.582,55.112,88.730,24257.473,-26935.514,-12823.311
1512178339,7.600,57.300,150.200,457400.000,-416990.000,1106870.000,358000.000,93000.000,-599000.000,-268.756,-281.351,735.468,58.822,32.142,161.284,24031.796,-27085.844,-12821.480
1512178339,88.000,73.400,157.100,436340.000,-439270.000,1143370.000,356000.000,84000.000,-590000.000,-336.590,-304.902,710.952,27.044,29.385,198.857,23433.376,-26711.744,-13041.206
1512178339,40.600,70.600,146.500,439880.000,-426880.000,1062070.000,356000.000,84000.000,-590000.000,-330.821,-225.672,623.896,18.219,21.758,195.783,23131.420,-27162.199,-12888.863
1512178339,64.800,52.100,154.600,443120.000,-424740.000,1138670.000,356000.000,84000.000,-590000.000,-252.284,-187.957,517.492,22.738,10.559,151.628,22757.214,-26937.757,-13335.564
1512178339,80.200,76.300,144.200,422550.000,-413820.000,1114320.000,356000.000,84000.000,-590000.000,-106.364,-135.159,398.258,19.684,-25.243,109.629,22495.678,-26713.156,-13408.226
1512178339,72.600,79.200,144.900,443480.000,-436770.000,1090940.000,361000.000,89000.000,-592000.000,-60.713,-154.084,279.454,33.516,-61.535,-27.090,22157.383,-26863.653,-13667.930
1512178339,11.700,71.900,149.400,404910.000,-440250.000,1066040.000,361000.000,89000.000,-592000.000,-62.593,-239.847,162.928,1.296,-77.089,-81.359,21668.285,-27201.887,-13813.942
1512178339,29.800,68.000,135.800,391240.000,-427860.000,1070370.000,361000.000,89000.000,-592000.000,72.363,64.564,10.299,-3.373,-76.340,-145.569,21554.394,-27502.058,-13888.115
1512178339,97.900,51.700,143.700,398560.000,-406920.000,1116270.000,361000.000,89000.000,-592000.000,157.901,-12.392,-170.493,-3.353,-73.855,-221.958,21704.075,-27576.834,-13851.921
1512178339,27.400,66.400,145.500,409480.000,-413940.000,1081850.000,361000.000,89000.000,-592000.000,124.600,106.406,-310.748,-52.938,-129.160,-133.108,21440.227,-27877.234,-13849.838
1512178339,38.300,49.800,143.800,410220.000,-382930.000,1130490.000,349000.000,105000.000,-573000.000,-390.276,412.295,-361.917,-33.400,-28.821,-226.130,22418.392,-27200.765,-13595.314
1512178339,88.700,37.800,141.700,401980.000,-412600.000,1165220.000,349000.000,105000.000,-573000.000,-170.902,190.159,-487.972,79.040,142.002,-260.115,23059.398,-26449.812,-13337.883
1512178339,26.600,49.700,138.800,405330.000,-427550.000,1092770.000,349000.000,105000.000,-573000.000,442.857,56.675,-573.889,94.722,166.114,-83.535,23361.821,-25924.352,-13227.692
1512178339,44.600,38.700,142.100,430110.000,-430110.000,1138120.000,349000.000,105000.000,-573000.000,908.176,-24.581,-448.033,36.227,82.380,191.481,23659.619,-26448.904,-12930.488
1512178339,64.400,16.600,142.600,432130.000,-438420.000,1079710.000,349000.000,105000.000,-573000.000,380.390,125.224,-176.918,-45.550,-2.831,297.354,24104.832,-27535.742,-12709.816
1512178339,52.900,67.600,142.300,458740.000,-457280.000,1099180.000,344000.000,100000.000,-575000.000,-415.295,299.813,50.426,-9.351,-2.007,161.157,24367.619,-27497.839,-12487.030
1512178340,87.400,55.100,139.500,420040.000,-462100.000,1129210.000,344000.000,100000.000,-575000.000,-644.250,275.549,260.770,34.685,19.764,44.347,24554.440,-27610.060,-12826.180
1512178340,25.600,32.900,139.300,392030.000,-429380.000,1038640.000,344000.000,100000.000,-575000.000,-678.434,226.103,392.296,51.213,37.284,-2.898,24710.705,-26259.825,-12451.836
1512178340,63.100,50.500,145.000,389470.000,-414180.000,1094180.000,344000.000,100000.000,-575000.000,-649.123,146.913,485.189,54.195,57.397,-28.429,25010.250,-26334.379,-12679.405
1512178340,75.100,52.500,136.900,414920.000,-411990.000,1103580.000,356000.000,112000.000,-567000.000,-520.008,53.005,537.905,50.891,68.829,-38.372,24560.177,-26335.051,-12825.584
1512178340,39.300,66.700,141.300,415220.000,-424070.000,1074770.000,356000.000,112000.000,-567000.000,-301.302,-63.186,587.579,47.894,65.296,-11.616,24633.709,-26634.947,-13051.369
1512178340,81.100,51.900,136.600,397400.000,-419070.000,1137330.000,356000.000,112000.000,-567000.000,-106.650,-153.731,609.271,20.275,56.787,45.024,24411.861,-25960.279,-12824.135
1512178340,35.000,29.400,137.700,422300.000,-433650.000,1096250.000,356000.000,112000.000,-567000.000,16.793,-109.649,560.042,-5.752,56.484,91.926,24562.466,-25810.057,-12975.349
1512178340,52.200,51.100,133.000,399350.000,-412960.000,1120670.000,356000.000,112000.000,-567000.000,131.402,-18.499,466.071,-12.881,31.221,124.013,23809.124,-26561.171,-12894.310
1512178340,19.300,31.200,127.000,407040.000,-400020.000,1041500.000,351000.000,107000.000,-568000.000,226.084,57.588,417.605,-8.790,0.436,131.737,23959.499,-26485.945,-12820.564
1512178340,43.000,24.400,125.400,395140.000,-421390.000,1082640.000,351000.000,107000.000,-568000.000,275.165,71.557,416.235,-5.182,-17.722,122.897,23957.104,-27010.954,-12895.805
1512178340,12.400,31.300,124.400,384460.000,-387020.000,1130000.000,351000.000,107000.000,-568000.000,263.555,34.170,407.408,-17.553,-34.171,125.812,23880.520,-27386.076,-12670.341
1512178340,66.800,27.400,124.400,394530.000,-397580.000,1139040.000,351000.000,107000.000,-568000.000,180.238,42.562,416.887,-30.514,-67.337,126.394,24102.413,-28060.743,-12822.563
1512178340,29.600,31.300,124.500,407040.000,-416750.000,1077270.000,351000.000,107000.000,-568000.000,61.757,91.494,428.132,-49.725,-75.894,92.948,23801.556,-28286.192,-12520.119
1512178340,-26.500,54.700,120.400,414250.000,-421020.000,1137630.000,351000.000,125000.000,-572000.000,-31.925,104.188,421.492,-67.816,-78.109,48.392,23801.067,-28361.189,-12820.152
1512178340,34.600,32.600,121.300,404240.000,-419740.000,1114010.000,351000.000,125000.000,-572000.000,-119.207,128.633,413.913,-75.526,-87.523,24.853,23650.539,-28511.412,-12518.944
1512178340,30.200,37.300,119.700,396360.000,-410580.000,1078190.000,351000.000,125000.000,-572000.000,-336.256,149.592,454.553,-65.688,-104.220,-27.684,24249.493,-28735.518,-12599.144
1512178340,31.400,67.500,115.800,422850.000,-428770.000,1085330.000,351000.000,125000.000,-572000.000,-491.819,147.231,450.162,-30.103,-56.915,-104.769,23725.918,-28436.308,-12444.542
1512178340,73.600,32.500,113.600,405760.000,-415650.000,1132260.000,376000.000,128000.000,-582000.000,-451.116,180.553,375.176,9.116,-30.836,-168.703,24102.566,-28060.743,-12522.560
1512178340,66.800,58.500,117.800,395450.000,-406190.000,1198000.000,376000.000,128000.000,-582000.000,-217.055,249.341,342.561,48.120,-39.677,-182.526,23500.393,-28511.641,-12817.665
1512178340,52.100,87.200,110.300,373600.000,-417970.000,1070130.000,376000.000,128000.000,-582000.000,-1.277,440.785,390.062,58.371,-56.000,-132.374,24101.589,-28285.734,-12447.670
1512178340,-32.200,15.400,99.600,398740.000,-431460.000,1025820.000,376000.000,128000.000,-582000.000,-78.364,662.657,484.592,52.050,-62.947,-88.928,24175.686,-28510.633,-12223.412
1512178340,106.000,55.000,102.300,381470.000,-427370.000,1112300.000,376000.000,128000.000,-582000.000,-431.603,864.887,582.522,69.993,-43.825,-132.887,24699.856,-28734.846,-11852.974
1512178340,75.800,123.600,92.000,391420.000,-434570.000,1047240.000,372000.000,125000.000,-578000.000,-693.201,776.857,604.014,129.176,39.584,-251.116,25603.313,-27983.488,-11710.274
1512178340,20.600,19.200,95.500,361510.000,-400330.000,1137880.000,372000.000,125000.000,-578000.000,-456.061,388.614,490.962,186.359,104.673,-309.342,25753.719,-27908.262,-11561.516
1512178340,59.900,30.800,91.500,385930.000,-362430.000,1082280.000,372000.000,125000.000,-578000.000,469.846,106.453,474.610,190.521,73.781,-80.042,25826.535,-28433.157,-11224.899
1512178340,123.300,98.300,88.000,387080.000,-381530.000,1168400.000,372000.000,125000.000,-578000.000,651.788,375.467,703.121,139.454,33.345,153.322,27575.971,-19020.921,-25216.594
1512178340,10.100,73.400,88.900,370000.000,-414860.000,1057920.000,361000.000,125000.000,-561000.000,-261.069,225.657,941.498,153.110,32.083,115.563,29438.835,-9383.503,-39396.660
1512178340,35.400,70.000,89.900,367190.000,-383420.000,1086550.000,361000.000,125000.000,-561000.000,-648.775,19.584,1137.182,125.501,98.057,19.570,28649.132,-9834.690,-39727.676
1512178340,93.900,8.900,83.500,374210.000,-335880.000,1127260.000,361000.000,125000.000,-561000.000,-310.530,-104.106,1015.323,49.803,124.032,65.842,27785.561,-10023.480,-40170.433
1512178340,99.300,56.700,83.200,353880.000,-340760.000,1131650.000,361000.000,125000.000,-561000.000,123.837,124.098,738.839,-6.790,49.243,207.035,27220.169,-10661.831,-40203.438
1512178340,110.000,48.300,72.800,369080.000,-389770.000,1083800.000,361000.000,125000.000,-561000.000,51.928,74.643,571.319,-3.457,-26.119,213.467,26793.899,-12121.188,-39786.064
1512178340,28.800,12.700,73.800,420230.000,-411380.000,1192080.000,372000.000,135000.000,-589000.000,-134.390,-218.741,510.031,-11.175,-66.806,125.040,26374.176,-12080.538,-39742.996
1512178340,62.200,34.900,72.300,369690.000,-429200.000,1082520.000,372000.000,135000.000,-589000.000,-104.703,-409.111,381.874,-81.487,-72.865,5.690,25395.614,-12832.003,-40110.054
1512178340,90.100,53.000,69.200,396180.000,-415340.000,1137080.000,372000.000,135000.000,-589000.000,105.707,-205.895,140.966,-153.554,-85.288,-105.799,24531.975,-13058.306,-40365.319
1512178340,91.500,64.600,70.000,407040.000,-399170.000,1085450.000,372000.000,135000.000,-589000.000,123.837,10.400,-107.475,-169.276,-71.384,-245.223,24268.570,-13283.701,-40138.192
1512178340,127.000,63.500,61.800,385070.000,-394530.000,1153320.000,372000.000,135000.000,-589000.000,341.342,-66.471,-501.167,-123.520,-41.948,-275.371,24492.371,-13545.862,-40177.727
1512178340,82.400,46.200,65.400,354250.000,-409480.000,1056030.000,365000.000,149000.000,-572000.000,344.510,-25.499,-691.269,-94.806,-109.324,-139.109,24830.619,-13395.357,-40030.525
1512178341,76.700,78.000,69.000,395570.000,-385250.000,1121090.000,365000.000,149000.000,-572000.000,35.215,184.423,-673.169,-101.858,-97.670,-58.923,24718.781,-13283.022,-39729.523
1512178341,122.000,60.900,68.300,411190.000,-342160.000,1158810.000,365000.000,149000.000,-572000.000,-321.006,338.869,-719.363,-85.347,-18.087,-95.228,25620.239,-12981.661,-39512.039
1512178341,87.400,78.700,61.900,388120.000,-416260.000,1058720.000,365000.000,149000.000,-572000.000,-464.929,399.656,-780.937,-11.111,71.942,-179.184,26222.260,-12530.764,-39516.922
1512178341,93.200,84.300,61.900,394410.000,-388430.000,1111330.000,361000.000,135000.000,-582000.000,-337.983,286.770,-856.247,49.292,163.427,-245.683,26824.142,-12079.866,-39821.823
1512178341,105.900,54.600,56.700,382870.000,-390080.000,1113460.000,361000.000,135000.000,-582000.000,68.416,40.815,-947.161,83.741,204.113,-216.929,27126.434,-11554.415,-39974.121
1512178341,124.500,64.400,49.000,351440.000,-366820.000,1099850.000,361000.000,135000.000,-582000.000,620.063,-224.238,-990.195,62.146,175.825,-46.546,27503.052,-11253.847,-39452.179
1512178341,56.200,59.500,40.900,376590.000,-386840.000,1074580.000,361000.000,135000.000,-582000.000,938.018,-272.978,-944.181,2.537,119.054,167.891,27952.713,-11328.173,-39456.039
1512178341,54.700,65.000,51.000,364500.000,-365230.000,1162840.000,361000.000,135000.000,-582000.000,898.138,-111.935,-845.054,-68.269,59.688,314.036,28101.730,-11552.950,-39382.416
1512178341,65.500,56.500,45.000,335690.000,-390380.000,1048340.000,368000.000,142000.000,-578000.000,554.909,85.013,-773.653,-110.662,20.789,361.164,28175.949,-11777.834,-38933.151
1512178341,145.900,24.600,42.700,352780.000,-344540.000,1053220.000,368000.000,142000.000,-578000.000,88.142,203.820,-712.839,-90.030,10.851,292.432,28551.407,-11702.272,-38711.304
1512178341,73.400,64.800,62.300,443360.000,-432130.000,1251590.000,368000.000,142000.000,-578000.000,-268.723,126.149,-603.145,-35.406,21.304,169.621,29001.175,-11776.598,-38490.173
1512178341,-45.800,65.900,37.000,322750.000,-391720.000,934450.000,368000.000,142000.000,-578000.000,-355.283,-56.913,-470.715,-7.178,42.663,78.695,29306.458,-10576.143,-38717.163
1512178341,139.400,-80.600,56.200,330140.000,-396970.000,1093990.000,368000.000,142000.000,-578000.000,-230.646,-164.868,-341.359,3.333,58.714,57.402,29382.172,-10426.027,-38642.731
1512178341,0.900,150.900,43.900,375310.000,-373170.000,1252380.000,361000.000,139000.000,-599000.000,-63.646,-115.649,-251.349,-15.489,49.965,79.664,29233.780,-10051.241,-38791.275
1512178341,-56.300,22.500,-20.500,345700.000,-469480.000,898320.000,361000.000,139000.000,-599000.000,-10.334,-14.222,-181.995,-20.912,28.001,75.589,29235.031,-9751.253,-39016.144
1512178341,-132.400,30.000,95.900,352480.000,-381710.000,1228030.000,361000.000,139000.000,-599000.000,3.405,-13.277,-110.368,-14.211,19.971,60.607,29385.101,-9751.024,-38867.416
1512178341,-97.700,53.100,15.600,385310.000,-399480.000,926820.000,361000.000,139000.000,-599000.000,1.332,-74.280,-51.976,-7.556,24.414,64.098,29308.746,-10051.134,-38866.928
1512178341,17.200,34.200,47.500,371460.000,-411250.000,1109920.000,356000.000,119000.000,-594000.000,-10.333,-142.779,5.183,-7.104,20.856,76.309,29234.695,-9826.250,-39016.174
1512178341,-7.900,119.300,32.500,398740.000,-387570.000,1052120.000,356000.000,119000.000,-594000.000,-18.766,-217.676,60.234,-8.280,5.654,87.800,29008.865,-9976.580,-39314.331
1512178341,55.400,21.800,-6.400,392150.000,-383360.000,1210690.000,356000.000,119000.000,-594000.000,-45.122,-286.169,103.321,-24.326,0.345,109.375,28859.909,-9751.818,-39237.961
1512178341,-2.700,12.500,45.900,353090.000,-431210.000,1070680.000,356000.000,119000.000,-594000.000,-105.018,-276.667,116.348,-42.621,-0.473,121.462,28559.723,-9752.260,-39610.413
1512178341,72.800,86.000,24.400,411380.000,-389830.000,1125550.000,356000.000,119000.000,-594000.000,-116.832,-141.046,128.376,-44.995,-13.625,80.033,28409.836,-9752.489,-39384.140
1512178341,79.600,12.300,26.500,381840.000,-381230.000,977290.000,358000.000,135000.000,-592000.000,-33.728,-5.280,137.513,-39.539,-21.197,33.546,28410.400,-9602.480,-39609.070
1512178341,46.300,17.200,27.600,385860.000,-392270.000,1109620.000,358000.000,135000.000,-592000.000,74.796,127.310,157.672,-32.533,-31.853,-29.902,28335.480,-9602.587,-39458.420
1512178341,70.700,37.400,20.800,334590.000,-394100.000,1108340.000,358000.000,135000.000,-592000.000,114.935,145.482,180.703,-16.623,-33.067,-73.510,28333.145,-10127.596,-39383.667
1512178341,4.300,97.100,24.100,378910.000,-374510.000,1093630.000,358000.000,135000.000,-592000.000,15.919,120.654,236.751,-8.475,-52.137,-103.367,28558.594,-10052.263,-39160.538
1512178341,31.600,-19.800,8.700,325440.000,-374510.000,1107060.000,358000.000,135000.000,-592000.000,-119.926,47.222,260.109,23.330,-14.650,-155.112,28596.161,-10014.703,-39385.849
1512178341,43.500,13.600,36.000,345400.000,-382260.000,1083010.000,365000.000,146000.000,-602000.000,234.837,46.136,274.308,62.349,-37.113,-122.690,28181.663,-10465.326,-39307.548
1512178341,103.300,46.200,13.600,356990.000,-370910.000,1151000.000,365000.000,146000.000,-602000.000,-16.928,377.868,592.165,62.053,-73.308,-47.492,28215.606,-11290.277,-39008.247
1512178341,4.100,-28.200,15.400,362980.000,-405210.000,1031070.000,365000.000,146000.000,-602000.000,-616.131,-7.763,675.423,126.868,73.220,-204.542,28290.077,-11402.666,-39046.440
1512178341,58.900,42.100,15.700,356140.000,-375000.000,1075680.000,365000.000,146000.000,-602000.000,75.520,-224.431,581.283,98.234,106.691,-39.017,27503.098,-11253.840,-39339.676
1512178341,48.100,38.300,7.900,391970.000,-438050.000,1099910.000,353000.000,130000.000,-594000.000,297.094,318.265,455.788,41.606,72.445,146.282,26934.975,-12529.696,-39110.482
1512178341,22.100,-8.400,13.800,387940.000,-423520.000,1089480.000,353000.000,130000.000,-594000.000,-332.133,422.390,249.811,95.444,42.740,79.728,27498.902,-12266.351,-38627.647
1512178341,40.300,36.600,14.500,371280.000,-404420.000,1151370.000,353000.000,130000.000,-594000.000,-295.373,162.770,303.278,139.298,52.950,33.774,27573.998,-12228.731,-38778.266
1512178341,11.300,44.100,9.600,364140.000,-385010.000,1044860.000,353000.000,130000.000,-594000.000,213.573,145.379,307.925,80.732,11.118,217.555,27498.314,-12378.847,-38777.695
1512178341,46.700,14.500,14.500,297000.000,-391110.000,1104860.000,353000.000,130000.000,-594000.000,51.599,105.430,399.254,35.142,-29.509,252.174,27345.337,-13091.585,-38326.751
1512178341,22.200,34.400,5.600,334110.000,-383850.000,1030210.000,351000.000,132000.000,-592000.000,-124.363,-181.037,356.262,12.598,-14.336,161.241,26932.609,-13129.702,-38435.761
1512178341,34.800,37.200,9.900,377080.000,-377990.000,1088380.000,351000.000,132000.000,-592000.000,-3.651,-290.303,335.776,-26.053,-32.237,83.617,26257.011,-13243.219,-38617.576
1512178342,-14.600,41.300,3.200,353760.000,-416500.000,1081600.000,351000.000,132000.000,-592000.000,-179.614,-459.934,364.086,-79.804,-66.925,-5.252,25768.219,-13506.441,-38838.562
1512178342,-63.100,31.400,5.700,359190.000,-371700.000,1001460.000,351000.000,132000.000,-592000.000,-375.364,-639.493,266.815,-125.813,-36.584,-67.621,25017.197,-13657.579,-39507.248
1512178342,50.900,70.800,1.900,389770.000,-395080.000,988340.000,356000.000,130000.000,-587000.000,-478.345,-666.995,44.548,-165.116,-24.440,-96.237,25019.226,-13207.567,-39507.034
1512178342,52.600,44.900,12.000,331480.000,-409060.000,1145750.000,356000.000,130000.000,-587000.000,-466.911,-489.195,-187.066,-167.994,-13.754,-135.295,24118.622,-13283.922,-40024.414
1512178342,1.500,92.400,4.800,372990.000,-363710.000,1153810.000,356000.000,130000.000,-587000.000,-330.248,-307.003,-384.872,-136.841,5.625,-211.325,23896.622,-12609.255,-40097.198
1512178342,83.900,-76.300,-12.400,314820.000,-373350.000,1020750.000,356000.000,130000.000,-587000.000,15.558,-259.042,-600.366,-97.132,22.055,-264.722,23897.293,-12459.261,-40097.122
1512178342,47.400,112.700,0.500,354860.000,-332950.000,1161620.000,356000.000,130000.000,-587000.000,407.469,-273.877,-900.701,-70.073,13.693,-207.636,24046.021,-12684.023,-40623.505
1512178342,55.700,37.300,-24.000,294490.000,-338810.000,988590.000,358000.000,128000.000,-585000.000,659.063,-256.152,-1030.255,-85.554,-71.071,-94.082,23823.120,-12234.362,-40471.390
1512178342,73.000,-47.900,9.100,335080.000,-371150.000,1117550.000,358000.000,128000.000,-585000.000,434.498,-71.668,-1043.525,-102.425,-142.801,-19.806,23970.352,-12834.139,-40622.925
1512178342,50.700,40.700,-4.400,376460.000,-387880.000,1006350.000,358000.000,128000.000,-585000.000,-206.711,134.380,-936.960,-107.773,-145.709,-40.990,24348.618,-12158.571,-40175.812
1512178342,15.000,42.100,-10.300,350220.000,-392700.000,1109010.000,358000.000,128000.000,-585000.000,-732.621,231.792,-912.264,-90.372,-100.741,-114.893,25780.289,-10656.435,-40337.234
1512178342,66.300,-52.700,-4.100,325440.000,-362980.000,1056700.000,358000.000,128000.000,-585000.000,-634.767,202.140,-964.249,8.396,82.558,-310.967,25780.289,-10656.435,-40337.234
1512178342,116.400,30.100,-9.200,361020.000,-321040.000,1122010.000,361000.000,135000.000,-599000.000,-52.968,294.985,-1007.732,55.211,138.741,-277.781,25783.249,-9981.417,-40486.923
1512178342,108.400,13.700,-8.800,328310.000,-374450.000,1098330.000,361000.000,135000.000,-599000.000,521.209,437.608,-846.474,21.066,60.542,-161.431,26460.739,-9455.400,-40267.410
1512178342,55.400,-4.100,-16.500,342290.000,-367310.000,1044680.000,361000.000,135000.000,-599000.000,589.239,608.330,-696.711,9.447,70.749,-94.350,26908.676,-9979.738,-39671.478
1512178342,163.000,9.300,-12.900,355040.000,-343870.000,1144100.000,361000.000,135000.000,-599000.000,399.013,471.139,-610.396,6.697,73.829,-59.148,27510.773,-9528.841,-39526.382
1512178342,159.900,26.000,-15.800,314940.000,-362180.000,1086850.000,354000.000,128000.000,-589000.000,209.965,206.858,-537.299,19.509,84.780,-43.765,28712.204,-9302.034,-38711.472
1512178342,90.000,17.300,-15.400,342830.000,-346190.000,1100950.000,354000.000,128000.000,-589000.000,279.316,-43.090,-488.125,49.715,121.644,-10.843,28636.230,-9527.147,-38635.941
1512178342,130.800,7.500,-17.000,359440.000,-346130.000,1114870.000,354000.000,128000.000,-589000.000,574.488,-88.708,-417.910,49.535,114.228,79.825,28635.849,-9602.144,-38710.968
1512178342,130.600,24.200,-20.400,339290.000,-351200.000,1071960.000,354000.000,128000.000,-589000.000,843.713,-23.331,-321.037,45.166,98.721,181.554,28782.883,-10276.934,-38562.561
1512178342,105.700,-18.400,-15.200,356020.000,-314090.000,1142580.000,354000.000,128000.000,-589000.000,884.919,31.037,-230.699,30.296,79.858,249.494,28930.374,-10876.711,-38189.117
1512178342,181.400,-4.500,-16.000,320980.000,-310360.000,1128110.000,372000.000,142000.000,-589000.000,677.607,-21.808,-139.010,13.995,65.589,294.676,29005.707,-10801.592,-38189.713
1512178342,164.700,14.200,-17.000,369750.000,-357970.000,1085390.000,372000.000,142000.000,-589000.000,339.944,-93.977,-94.046,-0.173,59.784,307.019,29079.437,-11101.473,-38040.497
1512178342,106.700,11.900,-19.600,343990.000,-369200.000,1089480.000,372000.000,142000.000,-589000.000,-6.039,-155.459,-61.961,0.816,53.242,278.060,28854.095,-11176.821,-38038.620
1512178342,74.600,4.800,-23.200,367370.000,-374080.000,1133120.000,372000.000,142000.000,-589000.000,-216.893,-174.039,-11.778,10.000,39.653,221.414,28929.657,-11026.705,-38264.191
1512178342,45.900,33.000,-23.700,332030.000,-344600.000,1078740.000,351000.000,135000.000,-592000.000,-292.331,-182.797,37.204,19.560,23.678,156.679,28705.719,-10802.050,-38187.164
1512178342,3.600,-11.700,-23.300,327640.000,-358640.000,1080140.000,351000.000,135000.000,-592000.000,-255.647,-207.450,105.874,18.427,3.652,100.386,28368.095,-10765.047,-38746.781
1512178342,51.300,9.500,-23.700,347230.000,-338010.000,1107910.000,351000.000,135000.000,-592000.000,-44.385,-28.387,200.708,-2.361,-38.196,55.020,28105.720,-10727.945,-38819.535
1512178342,67.100,0.700,-26.200,353270.000,-361880.000,1104980.000,351000.000,135000.000,-592000.000,-144.865,25.306,252.745,-7.933,-55.273,-23.230,28067.681,-10840.502,-38894.264
1512178342,49.500,-37.200,-24.900,343510.000,-374630.000,1074220.000,351000.000,135000.000,-592000.000,-185.717,60.449,275.195,-1.889,-55.724,-92.285,27842.514,-10878.335,-38892.372
1512178342,-5.700,32.500,-30.600,349980.000,-389830.000,1088200.000,361000.000,135000.000,-585000.000,-123.238,117.230,238.452,29.955,-78.527,-145.917,27880.295,-10803.285,-39005.150
1512178342,24.400,10.300,-31.300,350890.000,-373410.000,1099980.000,361000.000,135000.000,-585000.000,-433.394,229.660,401.187,52.666,-102.613,-126.546,27991.295,-11140.611,-38968.766
1512178342,-13.000,-6.800,-35.300,346190.000,-378170.000,1044680.000,361000.000,135000.000,-585000.000,-1157.850,214.874,566.539,138.206,87.119,-317.866,28071.923,-9865.488,-39193.817
1512178342,33.800,11.900,-39.700,366390.000,-348270.000,1098880.000,361000.000,135000.000,-585000.000,74.663,-113.880,315.674,213.091,182.145,-290.602,27772.789,-9640.947,-39491.158
1512178342,45.900,1.900,-34.600,341980.000,-349980.000,1124690.000,361000.000,135000.000,-585000.000,1064.941,462.943,542.574,178.025,45.130,109.789,27843.002,-10765.833,-38929.825
1512178342,33.400,11.100,-35.700,340450.000,-373660.000,1084840.000,358000.000,125000.000,-592000.000,-27.359,496.460,842.417,202.121,42.885,122.286,28249.687,-12152.727,-38071.472
1512178342,53.100,1.500,-36.900,346620.000,-362670.000,1088680.000,358000.000,125000.000,-592000.000,-600.885,-92.186,974.912,198.138,98.374,61.883,27797.943,-12528.406,-38180.321
1512178342,0.000,10.700,-36.400,363710.000,-345400.000,1030090.000,358000.000,125000.000,-592000.000,-36.042,-116.381,951.028,104.630,94.624,193.408,27047.065,-12679.529,-38586.510
1512178343,36.200,8.800,-36.400,357120.000,-335690.000,1085020.000,358000.000,125000.000,-592000.000,257.785,166.859,828.881,44.402,56.247,300.677,26444.153,-13355.425,-38319.214
1512178343,38.100,26.100,-43.100,310610.000,-324520.000,1087460.000,342000.000,109000.000,-587000.000,216.551,292.993,748.765,30.708,24.147,304.352,25917.313,-13731.218,-38614.929
1512178343,56.200,16.400,-43.900,330630.000,-334290.000,1151860.000,342000.000,109000.000,-587000.000,27.412,238.305,708.522,23.338,-7.389,253.271,26139.389,-14405.886,-38392.151
1512178343,42.500,2.800,-42.100,343020.000,-351320.000,1116520.000,342000.000,109000.000,-587000.000,-206.607,56.437,669.322,13.139,-23.918,178.942,25684.296,-15531.572,-38463.852
1512178343,48.700,6.100,-47.500,332460.000,-333620.000,1058530.000,342000.000,109000.000,-587000.000,-411.922,-175.604,631.425,-0.726,-36.900,94.730,25686.691,-15006.563,-38388.611
1512178343,40.100,-16.900,-44.200,347900.000,-348450.000,1056340.000,342000.000,109000.000,-587000.000,-624.055,-498.496,614.433,-2.795,-53.320,-16.913,25240.738,-14107.241,-38384.369
1512178343,78.000,34.500,-50.300,372740.000,-322570.000,1128050.000,365000.000,121000.000,-592000.000,-816.938,-932.430,588.807,-47.058,-36.324,-84.200,24788.300,-14557.909,-39205.750
1512178343,144.900,0.000,-53.700,362730.000,-324040.000,1126400.000,365000.000,121000.000,-592000.000,-792.500,-1101.973,456.381,-122.655,-22.291,-77.478,23815.399,-14034.380,-39722.229
1512178343,61.800,-8.500,-56.900,350650.000,-363530.000,1059630.000,365000.000,121000.000,-592000.000,-388.912,-786.876,240.519,-184.933,-3.970,-82.493,22390.778,-13886.507,-40310.028
1512178343,57.400,41.400,-59.300,373290.000,-350160.000,1105770.000,365000.000,121000.000,-592000.000,248.205,-96.389,-26.090,-205.621,-4.781,-83.153,21943.390,-13287.188,-40455.933
1512178343,33.300,15.200,-63.000,373050.000,-370670.000,1041260.000,365000.000,121000.000,-592000.000,712.710,558.474,-234.557,-172.492,-38.014,-129.913,21942.749,-13437.181,-40380.997
1512178343,24.600,15.400,-58.700,352050.000,-323120.000,1084350.000,360000.000,119000.000,-597000.000,765.439,754.328,-384.493,-129.027,-44.611,-209.772,22540.955,-13886.293,-39936.310
1512178343,-33.800,32.200,-64.700,333560.000,-370300.000,1005490.000,360000.000,119000.000,-597000.000,678.751,572.963,-566.543,-81.392,-44.829,-269.284,23212.173,-14785.280,-39417.465
1512178343,-18.500,29.200,-60.900,359190.000,-350040.000,1123780.000,360000.000,119000.000,-597000.000,640.131,237.749,-697.261,-32.830,-87.370,-254.885,23886.078,-15084.276,-38898.346
1512178343,-63.800,32.600,-71.600,333370.000,-361690.000,1051510.000,360000.000,119000.000,-597000.000,551.069,30.330,-672.623,-33.334,-145.924,-181.156,24112.595,-14783.937,-38600.128
1512178343,24.100,8.500,-71.200,366640.000,-329530.000,1063600.000,356000.000,109000.000,-583000.000,322.249,-20.559,-504.481,-83.355,-174.581,-86.428,24786.316,-15082.918,-38455.994
1512178343,56.500,25.700,-76.300,324160.000,-329410.000,1081050.000,356000.000,109000.000,-583000.000,-167.919,180.332,-378.693,-129.568,-100.370,-48.373,25386.429,-15082.018,-38236.099
1512178343,100.300,14.500,-81.200,294860.000,-319700.000,1131530.000,356000.000,109000.000,-583000.000,-588.604,345.420,-459.903,-98.305,44.959,-139.545,25087.357,-14857.470,-38383.438
1512178343,135.400,-11.100,-85.000,319580.000,-275020.000,1090940.000,356000.000,109000.000,-583000.000,-448.276,343.831,-630.579,-17.753,172.811,-244.265,26366.150,-14030.550,-38243.896
1512178343,227.200,-6.100,-82.800,327880.000,-278440.000,1134400.000,356000.000,109000.000,-583000.000,170.416,176.323,-790.633,47.148,217.660,-210.175,26365.326,-14180.559,-38543.961
1512178343,89.700,2.100,-95.600,360660.000,-317870.000,1107670.000,363000.000,102000.000,-583000.000,732.173,84.255,-791.341,13.491,155.982,-25.257,27042.664,-13729.540,-37949.509
1512178343,112.700,-20.800,-91.700,353030.000,-289060.000,1108520.000,363000.000,102000.000,-583000.000,842.502,119.476,-692.610,-29.603,115.596,145.256,27567.139,-13878.756,-37654.022
1512178343,113.700,-6.400,-96.000,378360.000,-307800.000,1078920.000,363000.000,102000.000,-583000.000,584.651,183.054,-633.228,-79.329,89.868,233.074,27714.584,-14478.533,-37355.591
1512178343,-45.700,21.300,-87.200,343810.000,-291930.000,1096860.000,363000.000,102000.000,-583000.000,126.466,134.317,-648.564,-93.648,89.022,228.554,28091.309,-14102.968,-37283.600
1512178343,-14.500,6.900,-91.600,381960.000,-343020.000,1093570.000,363000.000,102000.000,-583000.000,-327.824,-54.446,-616.359,-27.202,90.371,136.568,28543.465,-13614.787,-37362.198
1512178343,-15.200,21.000,-87.200,319210.000,-334110.000,1076110.000,367000.000,98000.000,-573000.000,-105.980,-119.097,-432.139,14.600,60.529,93.494,28772.629,-12676.943,-37476.181
1512178343,22.500,11.700,-98.300,345150.000,-332760.000,1060790.000,367000.000,98000.000,-573000.000,156.373,82.206,-202.166,-12.146,10.328,143.120,28996.788,-12864.100,-37478.173
1512178343,37.800,-15.400,-96.400,339110.000,-328980.000,1078490.000,367000.000,98000.000,-573000.000,-101.592,-14.098,-46.329,-7.663,-1.849,92.240,28848.549,-12489.336,-37326.729
1512178343,-63.800,22.600,-93.300,313350.000,-340390.000,1086430.000,367000.000,98000.000,-573000.000,-93.278,-156.897,56.167,5.391,14.179,37.662,29036.873,-12264.048,-37703.217
1512178343,75.800,10.100,-103.500,326480.000,-319210.000,1086490.000,368000.000,107000.000,-572000.000,204.105,-88.215,127.344,-6.775,-22.954,44.199,28735.405,-12601.999,-37588.326
1512178343,65.600,-2.100,-108.300,332090.000,-325440.000,1081050.000,368000.000,107000.000,-572000.000,94.413,-137.158,215.135,-27.789,-26.985,-13.384,28619.256,-13389.665,-37812.728
1512178343,-5.300,-23.200,-109.600,319340.000,-344480.000,1029790.000,368000.000,107000.000,-572000.000,-48.826,-165.194,237.482,-20.618,-8.348,-71.893,28058.159,-13090.517,-37695.312
1512178343,3.600,10.100,-115.200,325680.000,-303160.000,1038640.000,368000.000,107000.000,-572000.000,12.377,-8.037,218.660,2.192,17.963,-120.730,27644.256,-13353.632,-38141.922
1512178343,-25.200,15.600,-121.600,319090.000,-339840.000,1133540.000,368000.000,107000.000,-572000.000,111.323,97.424,170.887,20.977,-32.846,-58.213,27831.169,-13540.850,-37618.607
1512178343,-51.700,6.400,-129.200,315120.000,-299440.000,1135800.000,342000.000,116000.000,-567000.000,-509.908,527.037,401.113,55.679,-33.911,-32.930,27793.320,-13615.915,-37655.823
1512178343,6.300,25.800,-134.600,359990.000,-315800.000,1149410.000,342000.000,116000.000,-567000.000,-848.820,198.563,412.118,162.758,153.583,-276.448,28207.107,-13315.294,-37771.691
1512178343,15.700,16.600,-132.600,335390.000,-295720.000,1105470.000,342000.000,116000.000,-567000.000,374.287,-98.340,247.041,119.158,99.821,-35.489,28058.754,-12940.508,-37845.246
1512178344,18.200,31.300,-135.700,373170.000,-358700.000,1094480.000,342000.000,116000.000,-567000.000,517.282,380.873,293.955,93.494,11.271,171.664,27793.777,-13503.405,-37730.774
1512178344,48.500,47.300,-135.600,365230.000,-318850.000,1088260.000,368000.000,89000.000,-545000.000,58.252,471.954,336.661,114.095,-18.525,174.073,28016.937,-13953.081,-37357.895
1512178344,19.800,41.900,-137.800,330260.000,-317500.000,1094670.000,368000.000,89000.000,-545000.000,-386.663,330.115,417.140,161.221,-11.244,87.832,28091.873,-13952.959,-37508.530
1512178344,1.300,20.800,-139.300,371770.000,-332280.000,1080020.000,368000.000,89000.000,-545000.000,-556.989,88.235,519.368,179.283,-2.946,35.752,28165.512,-14252.855,-37509.308
1512178344,-5.700,38.900,-143.300,359800.000,-344420.000,1065430.000,368000.000,89000.000,-545000.000,-491.705,-89.190,625.239,167.209,12.949,32.337,27791.946,-13953.417,-37355.988
1512178344,-40.500,54.700,-141.900,350280.000,-319340.000,1081850.000,368000.000,89000.000,-545000.000,-298.565,-181.922,674.623,115.900,30.735,68.642,27868.454,-13578.295,-37731.445
1512178344,-113.100,14.400,-144.300,346680.000,-329770.000,1035340.000,360000.000,98000.000,-539000.000,-81.711,-177.271,646.861,63.319,33.450,147.067,27565.781,-14178.759,-37654.175
1512178344,-106.300,41.300,-143.100,303960.000,-314510.000,1073180.000,360000.000,98000.000,-539000.000,60.234,-104.273,576.682,20.491,20.628,217.738,26817.062,-13879.869,-37797.653
1512178344,-89.900,28.600,-147.300,304750.000,-272830.000,1074220.000,360000.000,98000.000,-539000.000,96.644,-38.918,504.944,-0.233,2.534,246.695,26589.279,-14480.211,-37946.030
1512178344,-72.200,2.700,-154.900,295840.000,-279050.000,1084590.000,360000.000,98000.000,-539000.000,22.942,-48.534,448.407,-7.194,-12.171,231.028,26363.678,-14630.556,-37794.174
1512178344,-60.500,22.100,-154.200,302370.000,-272460.000,1044070.000,360000.000,98000.000,-539000.000,-88.968,-167.129,377.082,-2.757,-12.546,188.159,26062.637,-14856.005,-37866.730
1512178344,-24.600,42.900,-155.500,363100.000,-287540.000,1068850.000,370000.000,123000.000,-546000.000,-83.443,-327.187,292.384,-0.612,-19.837,142.934,25913.895,-14556.231,-38015.320
1512178344,7.700,10.900,-157.000,320860.000,-322020.000,1039490.000,370000.000,123000.000,-546000.000,42.743,-409.062,200.115,-14.281,-30.002,119.897,25461.914,-15006.914,-37936.707
1512178344,79.100,38.100,-169.100,342290.000,-328800.000,1081240.000,370000.000,123000.000,-546000.000,147.414,-345.736,126.160,-44.699,-56.488,100.133,25236.130,-15157.244,-38159.851
1512178344,42.900,47.000,-167.000,320430.000,-296020.000,1081910.000,370000.000,123000.000,-546000.000,168.809,-214.187,64.033,-68.753,-83.802,61.983,24710.068,-15383.043,-38230.499
1512178344,-7.300,28.200,-171.400,337100.000,-335510.000,1061460.000,370000.000,119000.000,-553000.000,74.035,-151.177,-4.285,-92.146,-80.711,-3.689,24860.672,-15232.805,-38381.699
1512178344,74.600,15.700,-163.900,304930.000,-287780.000,1103820.000,370000.000,119000.000,-553000.000,-150.664,-135.214,-147.138,-89.494,-62.622,-97.961,24785.110,-15382.921,-38156.128
1512178344,64.700,43.100,-168.700,330630.000,-308720.000,1072080.000,370000.000,119000.000,-553000.000,-361.618,-177.989,-285.731,-65.973,-52.449,-206.582,24711.685,-15008.028,-38380.325
1512178344,16.900,-6.300,-169.800,325740.000,-345830.000,1031310.000,370000.000,119000.000,-553000.000,-349.969,-263.175,-414.854,-35.686,-35.114,-313.493,24786.957,-14932.924,-38530.930
1512178344,109.500,19.700,-170.000,357790.000,-299680.000,1118350.000,370000.000,119000.000,-553000.000,-95.900,-366.096,-570.374,-23.188,-51.416,-319.219,24564.957,-14258.257,-38603.699
1512178344,65.400,37.000,-166.300,292180.000,-256900.000,1042910.000,377000.000,98000.000,-570000.000,129.244,-253.451,-642.412,-34.403,-120.301,-226.854,24789.719,-14257.921,-39055.618
1512178344,26.400,-35.700,-158.200,284610.000,-254880.000,1124330.000,377000.000,98000.000,-570000.000,29.636,2.686,-601.386,-44.223,-178.930,-160.356,25016.373,-13882.570,-39132.355
1512178344,79.000,6.100,-168.000,340390.000,-278380.000,1134400.000,377000.000,98000.000,-570000.000,-501.345,293.201,-452.422,-53.981,-181.072,-195.049,25245.132,-13057.238,-39058.884
1512178344,142.100,-1.100,-171.600,363280.000,-338990.000,1101260.000,377000.000,98000.000,-570000.000,-1121.061,328.409,-364.262,-3.525,-37.571,-402.791,25545.578,-12906.786,-39511.368
1512178344,-7.200,29.700,-165.400,365170.000,-386350.000,1130370.000,377000.000,98000.000,-570000.000,-1108.363,-3.644,-440.930,66.906,138.304,-545.375,25773.270,-12231.432,-40187.958
1512178344,-53.800,10.700,-178.600,342960.000,-343750.000,1104980.000,367000.000,105000.000,-570000.000,-300.373,-336.353,-646.793,113.572,224.669,-439.707,26002.548,-11331.102,-39739.471
1512178344,-98.000,4.700,-180.000,358580.000,-343380.000,1078310.000,367000.000,105000.000,-570000.000,1091.232,-140.593,-790.654,75.965,116.428,-27.131,26115.333,-11293.421,-39515.396
1512178344,-88.000,36.000,-181.100,328980.000,-320250.000,1041870.000,367000.000,105000.000,-570000.000,1377.965,370.542,-569.912,-4.891,25.003,312.671,26821.084,-12904.864,-38509.704
1512178344,-28.500,13.300,-185.900,344850.000,-330510.000,1036740.000,367000.000,105000.000,-570000.000,235.310,351.345,-385.578,0.973,13.775,277.526,27719.834,-13278.520,-37655.029
1512178344,-82.700,32.100,-179.800,342590.000,-328120.000,1038450.000,367000.000,98000.000,-567000.000,-423.103,-20.347,-105.377,80.555,71.431,81.472,28208.390,-13052.789,-37584.076
1512178344,-102.500,43.900,-183.200,333500.000,-298400.000,1034550.000,367000.000,98000.000,-567000.000,239.252,59.769,136.899,60.915,108.824,105.957,28135.086,-12640.398,-37883.240
1512178344,-102.800,36.600,-182.200,302610.000,-232670.000,1094240.000,367000.000,98000.000,-567000.000,437.037,353.012,278.305,20.221,78.783,168.380,28467.705,-13802.401,-37211.655
1512178344,-26.500,8.000,-186.300,292910.000,-275090.000,1057430.000,367000.000,98000.000,-567000.000,16.053,116.268,292.704,14.723,79.790,136.543,28541.100,-14214.792,-36687.470
1512178344,-55.100,6.500,-185.000,306090.000,-289730.000,1085510.000,367000.000,98000.000,-567000.000,1.156,-23.135,284.543,27.647,52.732,109.179,28239.243,-14590.242,-37022.599
1512178344,-55.400,69.500,-177.900,333560.000,-283390.000,1088560.000,372000.000,96000.000,-572000.000,281.674,192.528,285.623,-11.486,18.509,130.530,27727.041,-15098.758,-33300.056
1512178344,-39.400,0.300,-180.400,335450.000,-282900.000,1104310.000,372000.000,96000.000,-572000.000,109.617,427.984,193.334,-4.610,2.704,-22.289,27438.639,-15906.933,-29279.580
1512178344,25.600,-4.400,-182.300,407290.000,-284000.000,1055910.000,372000.000,96000.000,-572000.000,42.281,254.361,163.506,59.763,6.712,-210.003,27738.695,-15943.981,-28832.145
1512178344,113.900,28.400,-193.100,359070.000,-280030.000,1098510.000,372000.000,96000.000,-572000.000,473.392,159.816,229.653,82.247,-31.146,-180.318,27999.514,-16356.091,-28497.062
1512178345,91.100,9.300,-191.900,388610.000,-270140.000,1083860.000,372000.000,96000.000,-572000.000,763.161,293.366,442.198,37.663,-130.038,-32.810,27883.692,-17143.772,-28046.478
1512178345,60.900,19.000,-192.700,383120.000,-295230.000,1111150.000,358000.000,86000.000,-578000.000,211.562,613.454,743.410,-5.132,-177.491,25.770,27955.240,-17968.662,-27522.491
1512178345,42.600,11.200,-185.000,391540.000,-282650.000,1043150.000,358000.000,86000.000,-578000.000,-764.210,617.009,893.459,33.716,-72.514,-118.568,28087.849,-18059.559,-24603.607
1512178345,67.500,33.600,-183.900,418700.000,-310850.000,1093440.000,358000.000,86000.000,-578000.000,-1334.756,187.810,885.835,111.684,40.575,-304.819,27714.314,-17685.108,-25050.247
1512178345,36.600,55.300,-185.500,398380.000,-311220.000,1107970.000,358000.000,86000.000,-578000.000,-1077.978,-322.238,804.627,144.802,102.445,-368.607,27419.895,-16410.557,-25347.107
1512178345,-5.700,-10.800,-181.900,353820.000,-312870.000,1029790.000,381000.000,70000.000,-563000.000,-276.958,-468.238,706.984,132.736,122.173,-226.222,26893.131,-16711.338,-26167.786
1512178345,-37.800,22.400,-183.200,386960.000,-297300.000,1071230.000,381000.000,70000.000,-563000.000,481.458,-214.952,692.203,78.304,62.095,-5.236,26516.438,-17086.903,-26164.764
1512178345,-86.800,24.900,-183.800,338320.000,-304930.000,1078310.000,381000.000,70000.000,-563000.000,578.076,314.110,612.289,46.652,39.598,140.965,25914.188,-17612.812,-25934.906
1512178345,11.600,44.300,-186.400,385740.000,-305110.000,1084530.000,381000.000,70000.000,-563000.000,226.182,589.387,502.611,47.754,-0.359,157.517,26061.939,-18137.592,-25711.426
1512178345,-67.800,34.000,-187.900,328060.000,-359070.000,1068730.000,381000.000,70000.000,-563000.000,-167.458,577.129,453.155,105.102,1.199,95.948,26059.101,-18812.595,-25336.746
1512178345,-80.600,28.000,-185.100,388120.000,-301940.000,1130190.000,356000.000,70000.000,-587000.000,-279.413,377.096,509.471,142.132,6.333,57.345,26209.812,-18662.373,-25262.939
1512178345,17.000,46.100,-191.900,377870.000,-277340.000,1120300.000,356000.000,70000.000,-587000.000,-166.001,118.581,600.828,138.124,33.236,58.675,26211.491,-18287.357,-25262.772
1512178345,32.600,41.800,-191.200,318790.000,-252930.000,1086790.000,356000.000,70000.000,-587000.000,106.667,-39.105,608.497,93.337,53.860,127.330,25684.467,-18738.163,-25258.514
1512178345,68.800,38.300,-189.800,375370.000,-240300.000,1190490.000,356000.000,70000.000,-587000.000,316.159,-61.151,574.142,53.489,50.672,217.339,25383.183,-19038.609,-25106.125
1512178345,27.800,50.600,-197.100,403560.000,-280700.000,1103880.000,356000.000,70000.000,-587000.000,375.172,-2.270,553.881,22.439,40.566,270.575,25307.926,-19113.728,-24955.505
1512178345,-29.400,40.900,-194.900,332700.000,-281370.000,1079650.000,339000.000,74000.000,-573000.000,346.590,27.616,542.909,5.899,22.526,290.843,25004.292,-19939.182,-24803.345
1512178345,29.200,40.300,-195.300,351620.000,-244810.000,1088750.000,339000.000,74000.000,-573000.000,245.825,15.775,511.559,-14.282,23.808,262.462,25005.451,-19714.176,-24503.235
1512178345,0.400,45.100,-200.000,410460.000,-321590.000,1089840.000,339000.000,74000.000,-573000.000,163.284,-40.762,406.758,-7.696,21.749,208.385,24163.715,-20306.780,-21152.519
1512178345,-37.000,69.900,-202.300,405460.000,-263490.000,1043820.000,339000.000,74000.000,-573000.000,140.856,-86.595,343.380,8.582,-8.998,147.217,23863.087,-20457.232,-21075.035
1512178345,-65.900,62.200,-201.200,408570.000,-276670.000,1155760.000,347000.000,58000.000,-589000.000,185.935,-145.239,321.439,10.274,-27.631,64.674,23936.802,-20757.113,-20925.804
1512178345,-80.700,48.700,-210.000,390080.000,-270810.000,1007140.000,347000.000,58000.000,-589000.000,247.677,-184.547,260.366,-10.534,-39.375,10.708,23408.802,-21432.909,-20846.657
1512178345,-58.900,64.300,-207.300,394170.000,-243590.000,1080080.000,347000.000,58000.000,-589000.000,233.056,-169.451,178.121,-37.245,-74.185,-23.395,23261.127,-20908.144,-20920.143
1512178345,-78.000,78.700,-211.200,414180.000,-274660.000,1080570.000,347000.000,58000.000,-589000.000,108.509,-123.562,105.051,-53.314,-93.171,-73.874,22808.247,-21583.818,-20616.631
1512178345,-115.400,61.800,-209.700,376040.000,-309330.000,1086120.000,347000.000,58000.000,-589000.000,-53.314,-92.685,28.188,-51.550,-84.879,-148.274,22883.457,-21508.699,-20842.232
1512178345,-57.300,43.400,-209.900,405760.000,-270750.000,1068360.000,361000.000,51000.000,-568000.000,-119.157,-126.803,-52.837,-41.282,-64.908,-222.823,22432.789,-21659.380,-20838.478
1512178345,-67.800,99.100,-204.300,400570.000,-279540.000,1080990.000,361000.000,51000.000,-568000.000,-25.605,-241.793,-172.348,-47.223,-59.717,-258.820,22885.487,-21058.702,-20842.018
1512178345,-73.600,53.100,-207.200,364990.000,-287900.000,1111330.000,361000.000,51000.000,-568000.000,254.402,-159.254,-372.688,-74.085,-117.301,-147.060,22698.681,-20908.983,-20802.864
1512178345,-40.900,72.000,-209.700,401120.000,-246030.000,1125240.000,361000.000,51000.000,-568000.000,-293.455,531.450,-312.126,-56.628,-138.273,-90.797,23712.017,-20757.456,-20511.398
1512178345,0.800,78.300,-216.200,403320.000,-288760.000,1142700.000,354000.000,68000.000,-568000.000,-694.646,202.950,-339.338,56.334,154.791,-307.406,24503.078,-19931.269,-20817.711
1512178345,-33.400,65.900,-211.200,403690.000,-259580.000,1108830.000,354000.000,68000.000,-568000.000,249.022,20.086,-586.952,14.771,163.312,-18.106,24918.202,-19330.653,-20970.940
1512178345,6.400,88.000,-209.700,400820.000,-305110.000,1126100.000,354000.000,68000.000,-568000.000,328.996,493.721,-467.945,-38.079,73.520,116.246,26006.115,-19291.514,-20492.660
1512178345,7.500,111.900,-209.700,398740.000,-312680.000,1096130.000,354000.000,68000.000,-568000.000,-236.375,181.930,-429.250,-29.511,98.414,66.841,27133.205,-18877.329,-20052.040
1512178345,80.200,98.700,-207.900,412170.000,-283260.000,1192260.000,354000.000,68000.000,-568000.000,-41.905,-31.656,-305.111,-3.318,92.519,54.149,27436.894,-18051.874,-20091.706
1512178345,-75.800,83.600,-207.300,360110.000,-315730.000,1120300.000,347000.000,68000.000,-578000.000,254.142,66.360,-216.797,-52.845,88.173,161.187,27811.374,-18201.311,-19794.967
1512178345,-25.000,104.000,-207.600,394840.000,-245120.000,1117610.000,347000.000,68000.000,-578000.000,147.270,158.021,-196.172,-48.014,52.673,149.197,28074.543,-18088.411,-19459.648
1512178345,28.400,86.400,-216.100,412540.000,-251280.000,1098210.000,347000.000,68000.000,-578000.000,40.110,80.228,-101.516,-43.591,42.719,90.963,28673.893,-18237.520,-19427.315
1512178345,-115.800,84.700,-199.100,361150.000,-257140.000,1087160.000,347000.000,68000.000,-578000.000,5.636,-32.145,-20.319,-36.932,5.498,49.846,28599.385,-18162.630,-19126.640
1512178345,-111.900,59.000,-200.100,363590.000,-266660.000,1063420.000,347000.000,68000.000,-578000.000,175.202,61.386,76.807,-40.609,-40.086,32.509,28711.750,-18199.961,-19052.620
1512178346,-65.000,57.100,-198.900,364200.000,-230530.000,1108220.000,347000.000,54000.000,-585000.000,173.251,153.138,135.734,-56.184,-47.862,-11.864,28822.697,-18574.785,-18791.252
1512178346,-7.900,48.500,-203.700,275820.000,-227660.000,1056400.000,347000.000,54000.000,-585000.000,80.920,177.608,111.025,-37.255,-49.393,-79.029,28672.398,-18650.011,-18715.004
1512178346,-20.400,-2.800,-206.900,350220.000,-231690.000,1040530.000,347000.000,54000.000,-585000.000,-96.318,98.269,124.175,10.601,-49.035,-144.053,28372.166,-18725.466,-18487.495
1512178346,-13.200,28.100,-203.200,358760.000,-252140.000,1055660.000,347000.000,54000.000,-585000.000,-192.107,-0.251,174.681,43.148,-27.095,-198.025,28669.575,-19250.017,-18940.285
1512178346,163.400,53.400,-209.200,344180.000,-219360.000,1126220.000,349000.000,45000.000,-577000.000,-67.264,-144.112,96.035,65.513,23.357,-224.499,28373.096,-18500.460,-18637.383
1512178346,55.700,-8.300,-197.600,322020.000,-260070.000,1054690.000,349000.000,45000.000,-577000.000,272.632,-177.542,-24.955,73.550,-10.347,-178.527,28448.032,-18500.353,-18788.017
1512178346,-55.300,14.000,-181.600,385740.000,-316590.000,1028440.000,349000.000,45000.000,-577000.000,626.146,-46.739,7.276,76.534,-45.036,-84.058,28220.478,-19100.695,-18486.397
1512178346,-62.900,61.800,-197.900,331670.000,-269840.000,1074100.000,349000.000,45000.000,-577000.000,666.271,192.401,106.766,68.229,-60.069,13.257,28594.883,-19250.139,-18339.653
1512178346,104.100,27.400,-194.900,347230.000,-265260.000,1047730.000,349000.000,45000.000,-577000.000,341.989,485.481,197.967,78.044,-67.271,4.024,28441.654,-20000.368,-18038.719
1512178346,90.700,0.800,-201.100,351750.000,-291200.000,1099000.000,342000.000,45000.000,-580000.000,-83.064,462.307,242.898,128.636,-9.862,-62.398,28665.943,-20225.023,-17440.742
1512178346,93.200,62.700,-201.900,379460.000,-270630.000,1109310.000,342000.000,45000.000,-580000.000,-451.989,168.954,298.367,158.896,18.314,-104.422,28743.763,-19624.910,-17216.103
1512178346,169.900,44.300,-197.300,375060.000,-218630.000,1108400.000,342000.000,45000.000,-580000.000,-593.226,-86.728,381.782,150.257,55.600,-100.164,28442.631,-19850.359,-17438.652
1512178346,94.100,11.300,-190.700,333500.000,-288700.000,1114990.000,342000.000,45000.000,-580000.000,-494.876,-188.144,424.428,128.274,96.175,-53.795,28594.212,-19475.130,-17664.757
1512178346,26.100,47.700,-187.400,394040.000,-280150.000,1003170.000,356000.000,28000.000,-567000.000,-275.734,-155.821,454.368,113.540,100.265,6.556,28369.053,-19475.466,-17962.852
1512178346,73.600,24.600,-196.400,385930.000,-252380.000,1091980.000,356000.000,28000.000,-567000.000,-78.973,38.821,492.011,84.089,89.057,87.125,27992.558,-19776.033,-18259.789
1512178346,-28.900,20.900,-191.500,313110.000,-298890.000,1035400.000,356000.000,28000.000,-567000.000,-99.153,289.929,435.025,59.399,91.868,127.189,27693.195,-19626.482,-18332.176
1512178346,-80.700,56.300,-200.900,373290.000,-298400.000,1097350.000,356000.000,28000.000,-567000.000,-273.863,418.099,303.944,53.662,98.129,118.955,27694.050,-19476.488,-17957.115
1512178346,-20.500,30.800,-198.500,357360.000,-327940.000,1076540.000,356000.000,28000.000,-567000.000,-429.252,520.687,164.529,72.650,103.842,81.570,27768.116,-19701.372,-17807.854
1512178346,-125.600,84.400,-182.800,373900.000,-306640.000,1064880.000,340000.000,26000.000,-582000.000,-363.012,394.892,84.027,72.413,76.467,21.219,28216.312,-20075.701,-18036.842
1512178346,-35.800,35.300,-217.000,369510.000,-313230.000,1126590.000,340000.000,26000.000,-582000.000,-118.195,237.272,34.790,71.942,53.286,21.785,27918.720,-19551.149,-17959.053
1512178346,-98.500,17.400,-182.600,372740.000,-295100.000,1042540.000,340000.000,26000.000,-582000.000,145.373,2.474,138.004,74.151,3.073,58.291,27766.956,-19926.378,-18107.964
1512178346,-13.400,51.000,-193.300,377560.000,-297970.000,1118410.000,340000.000,26000.000,-582000.000,184.483,-100.295,283.200,61.891,32.046,134.089,27920.246,-19251.146,-17583.916
1512178346,-30.400,25.700,-193.700,351440.000,-312190.000,1054200.000,340000.000,26000.000,-582000.000,83.058,-247.869,284.412,-6.648,16.972,165.450,27919.651,-19401.140,-17433.983
1512178346,-3.200,-13.700,-182.700,368230.000,-258730.000,1061950.000,337000.000,26000.000,-572000.000,108.338,-215.445,110.056,-49.850,14.941,176.399,27466.923,-20001.818,-17505.440
1512178346,-33.400,49.500,-181.600,396670.000,-274110.000,1129760.000,337000.000,26000.000,-572000.000,209.941,37.205,-91.210,-29.557,26.028,163.025,27465.076,-20376.833,-17805.611
1512178346,25.000,31.400,-167.400,322750.000,-265080.000,1069950.000,337000.000,26000.000,-572000.000,333.565,-53.271,-157.961,-3.525,-77.817,117.141,27917.027,-20001.146,-17284.264
1512178346,9.600,-15.400,-171.400,375920.000,-232910.000,1118470.000,337000.000,26000.000,-572000.000,302.921,-64.563,-142.452,4.907,-98.993,37.942,27766.705,-20113.878,-16908.042
1512178346,138.100,-12.300,-168.800,377320.000,-219730.000,1154420.000,351000.000,26000.000,-585000.000,463.189,-222.420,-140.149,-2.100,-121.180,-21.338,27690.502,-20413.995,-16607.536
1512178346,57.000,41.000,-175.600,376040.000,-298520.000,1103390.000,351000.000,26000.000,-585000.000,122.778,-145.952,-180.528,3.558,-120.194,-99.660,28140.141,-20525.812,-16348.923
1512178346,97.200,-5.500,-170.400,427610.000,-244690.000,1145570.000,351000.000,26000.000,-585000.000,-41.912,-243.739,-282.930,44.222,-61.281,-233.804,28066.921,-20113.421,-16498.093
1512178346,160.300,14.900,-165.500,371520.000,-242310.000,1095580.000,351000.000,26000.000,-585000.000,459.043,-463.480,-320.144,6.186,-101.127,-133.526,28104.885,-20000.872,-16573.356
1512178346,102.800,15.300,-162.900,362430.000,-278380.000,1124880.000,351000.000,26000.000,-585000.000,51.051,-145.432,-226.338,-64.984,-48.458,-19.732,27728.421,-20338.930,-16457.832
1512178346,87.600,-17.600,-157.800,412600.000,-240660.000,1081240.000,333000.000,22000.000,-585000.000,-399.118,97.069,-584.348,10.805,126.606,-151.089,28370.877,-19212.969,-16687.722
1512178346,99.900,13.800,-152.900,421260.000,-269840.000,1185850.000,333000.000,22000.000,-585000.000,196.879,89.251,-492.589,38.584,112.138,-71.603,29274.304,-18461.619,-16582.535
1512178346,75.000,34.100,-147.000,372680.000,-295170.000,1009950.000,333000.000,22000.000,-585000.000,114.469,55.467,-215.657,-6.048,106.984,72.729,29574.261,-18498.659,-16322.609
1512178346,86.000,19.000,-143.000,378230.000,-282530.000,1152280.000,333000.000,22000.000,-585000.000,-180.120,1.567,-196.661,26.280,127.775,54.283,29688.480,-18123.492,-16285.889
1512178346,97.200,-5.500,-136.400,364320.000,-305660.000,1047000.000,333000.000,22000.000,-585000.000,59.170,-374.832,-83.634,17.355,87.745,132.419,29765.316,-17710.871,-16323.837
1512178346,20.400,68.200,-135.200,333740.000,-316280.000,1010250.000,335000.000,10000.000,-580000.000,-40.240,-308.922,0.440,-31.854,65.916,263.186,29390.934,-17523.943,-16770.545
1512178347,136.200,-55.100,-127.600,332520.000,-181270.000,1056340.000,335000.000,10000.000,-580000.000,-183.191,-16.899,-43.791,-49.286,49.954,220.719,28903.873,-17374.666,-17216.347
1512178347,-23.300,29.000,-119.300,386350.000,-299560.000,1265440.000,335000.000,10000.000,-580000.000,-239.695,62.183,-104.032,-51.273,55.603,157.787,29203.236,-17524.218,-17143.959
1512178347,-68.400,-39.700,-132.200,320860.000,-292540.000,827760.000,335000.000,10000.000,-580000.000,-304.792,118.808,-162.347,-26.284,59.655,100.347,29277.836,-17599.108,-17294.624
1512178347,1.500,50.200,-82.600,458500.000,-317260.000,1396240.000,330000.000,5000.000,-595000.000,-288.532,126.344,-178.076,-0.715,31.421,37.212,29051.777,-17824.450,-17367.821
1512178347,-82.700,-40.600,-100.800,365170.000,-316410.000,931090.000,330000.000,5000.000,-595000.000,-147.333,119.012,-143.008,12.262,-10.549,9.295,29731.770,-16698.427,-17523.033
1512178347,68.200,-22.900,-79.100,385560.000,-339900.000,1071530.000,330000.000,5000.000,-595000.000,19.908,59.185,-8.601,37.159,-47.023,-6.140,29958.195,-16398.088,-17374.809
1512178347,28.000,125.000,-101.900,426760.000,-300050.000,1086850.000,330000.000,5000.000,-595000.000,118.022,30.116,181.411,25.028,-77.202,-4.765,29732.563,-16548.418,-17297.966
1512178347,-7.200,-37.200,-93.300,372310.000,-336060.000,1048100.000,330000.000,5000.000,-595000.000,116.387,10.691,279.396,2.431,-70.514,-3.514,29581.242,-16848.650,-17221.840
1512178347,-89.300,-40.900,-90.500,386470.000,-299990.000,1076600.000,340000.000,5000.000,-565000.000,50.099,45.818,293.485,-10.696,-67.930,-7.148,29277.531,-17674.105,-17219.658
1512178347,16.800,68.400,-83.100,408080.000,-284970.000,1173220.000,340000.000,5000.000,-565000.000,-77.425,96.815,336.591,-1.255,-75.034,-43.548,29281.086,-16924.105,-16844.322
1512178347,-1.200,-20.900,-95.500,436580.000,-321350.000,1035460.000,340000.000,5000.000,-565000.000,-178.623,79.446,394.760,13.777,-61.792,-97.188,29431.019,-16923.876,-16995.598
1512178347,54.200,-40.100,-70.700,437010.000,-320310.000,1182250.000,340000.000,5000.000,-565000.000,-206.004,-21.081,434.526,1.837,-60.450,-139.942,28903.614,-17449.678,-17066.368
1512178347,32.400,45.500,-63.500,417110.000,-349490.000,1152710.000,340000.000,5000.000,-565000.000,-193.575,-63.702,389.783,-16.352,-64.055,-116.446,29052.952,-17599.443,-17067.711
1512178347,44.300,8.900,-66.400,449340.000,-322080.000,1111210.000,323000.000,5000.000,-582000.000,-358.494,35.414,374.944,2.849,-84.597,-85.171,28603.992,-17375.124,-16988.792
1512178347,25.400,-29.300,-56.500,434690.000,-310550.000,1144230.000,323000.000,5000.000,-582000.000,-761.317,276.077,442.437,65.735,-45.349,-123.539,28604.481,-17225.115,-17363.716
1512178347,106.700,71.900,-49.100,409790.000,-318180.000,1098940.000,323000.000,5000.000,-582000.000,-1124.382,374.917,420.468,145.560,64.189,-286.221,28230.076,-17075.686,-17510.460
1512178347,96.800,45.400,-48.300,405090.000,-319820.000,1102970.000,323000.000,5000.000,-582000.000,-1054.384,193.655,303.582,180.345,109.671,-355.052,28383.045,-16325.457,-18336.388
1512178347,146.700,17.200,-38.000,429690.000,-335080.000,1109860.000,314000.000,-10000.000,-587000.000,-428.110,-287.979,185.186,195.106,165.739,-295.747,28383.045,-16325.457,-18336.388
1512178347,201.200,69.400,-42.100,458130.000,-318050.000,1193180.000,314000.000,-10000.000,-587000.000,465.649,-452.241,217.821,165.152,95.489,-99.573,27932.362,-16476.122,-18332.634
1512178347,64.800,44.500,-33.000,424260.000,-389220.000,1009030.000,314000.000,-10000.000,-587000.000,798.994,-192.358,314.166,147.115,55.283,87.888,27932.560,-16401.125,-18632.591
1512178347,103.700,51.400,-27.600,409240.000,-293640.000,1200380.000,314000.000,-10000.000,-587000.000,533.133,121.078,419.076,149.379,33.372,163.197,27404.850,-17076.921,-17953.453
1512178347,-0.100,65.400,-40.600,439450.000,-372680.000,1036190.000,314000.000,-10000.000,-587000.000,-87.273,190.501,484.953,177.010,33.346,149.367,27328.281,-17452.028,-17727.989
1512178347,35.300,23.000,-29.800,423280.000,-317750.000,1093260.000,333000.000,-1000.000,-561000.000,-667.170,97.638,543.392,208.876,55.719,69.808,26801.807,-17752.825,-17948.662
1512178347,58.300,49.300,-33.400,420650.000,-332280.000,1002930.000,333000.000,-1000.000,-561000.000,-814.896,-72.617,636.604,226.384,71.459,0.171,26202.488,-17603.716,-17943.489
1512178347,75.800,45.000,-33.300,442440.000,-288510.000,1199280.000,333000.000,-1000.000,-561000.000,-542.609,-240.096,730.580,199.288,80.713,23.919,26353.016,-17453.493,-18244.698
1512178347,-37.800,57.000,-30.000,393010.000,-373290.000,981570.000,333000.000,-1000.000,-561000.000,-137.915,-281.180,753.358,127.699,73.117,117.688,25673.145,-18429.522,-19214.409
1512178347,97.200,42.500,-34.100,332520.000,-276610.000,1045040.000,333000.000,-1000.000,-561000.000,193.783,-44.349,626.264,66.013,52.348,242.013,24812.306,-18130.808,-18569.435
1512178347,65.200,77.600,-12.000,408020.000,-265930.000,1032040.000,312000.000,5000.000,-582000.000,171.244,72.875,479.763,53.218,22.833,208.530,24360.356,-18581.484,-18415.825
1512178347,115.200,-31.000,-20.600,369140.000,-372860.000,1149600.000,312000.000,5000.000,-582000.000,28.893,-77.760,376.965,48.634,-13.242,150.139,23833.561,-18994.776,-18261.551
1512178347,127.000,91.700,-2.800,508610.000,-343570.000,1172000.000,312000.000,5000.000,-582000.000,269.687,-110.265,254.012,24.134,-43.852,73.252,23532.383,-19257.731,-18259.125
1512178347,-20.400,51.800,-12.000,354800.000,-426510.000,1065000.000,312000.000,5000.000,-582000.000,364.526,-31.299,98.951,-20.384,-98.022,5.331,23530.903,-19632.731,-17846.802
1512178347,-52.300,20.900,-2.500,463990.000,-328250.000,1187130.000,311000.000,3000.000,-577000.000,196.838,-23.327,-10.589,-1.447,-138.037,-114.038,23304.722,-19933.061,-17507.522
1512178347,53.400,83.900,-5.200,384460.000,-322630.000,1167850.000,311000.000,3000.000,-577000.000,95.350,-83.067,-130.067,-1.748,-89.722,-220.074,23603.931,-20120.119,-17397.660
1512178347,29.300,95.700,-17.300,415280.000,-326970.000,1150760.000,311000.000,3000.000,-577000.000,247.836,-49.274,-357.478,-25.030,-103.107,-166.255,23640.324,-20382.570,-17248.101
1512178347,30.800,6.000,-7.900,439390.000,-309080.000,905150.000,311000.000,3000.000,-577000.000,-232.525,525.750,-354.973,12.799,-83.053,-208.586,24125.710,-17926.046,-10563.736
1512178347,27.200,88.400,28.200,368470.000,-314270.000,1135130.000,311000.000,3000.000,-577000.000,-269.299,479.172,-324.750,88.535,153.582,-274.682,25064.018,-17774.633,-10309.136
1512178347,-81.500,56.900,-10.900,409550.000,-306760.000,1022460.000,311000.000,-10000.000,-567000.000,631.456,140.605,-467.459,50.377,195.447,-10.148,25629.486,-17173.788,-9788.643
1512178347,38.600,-12.900,24.900,445560.000,-379090.000,1169490.000,311000.000,-10000.000,-567000.000,530.974,2.443,-360.657,-62.221,88.134,249.494,26115.432,-17585.561,-9192.977
1512178348,1.700,62.900,16.800,385560.000,-385740.000,1052860.000,311000.000,-10000.000,-567000.000,-46.864,198.617,-349.158,-119.885,50.992,273.398,26453.087,-17585.051,-8895.851
1512178348,169.600,-8.800,7.600,495850.000,-348080.000,1268370.000,311000.000,-10000.000,-567000.000,-323.153,372.276,-329.101,-76.347,44.832,167.956,26905.479,-17059.370,-8824.425
1512178348,163.900,-14.000,19.700,516720.000,-349300.000,1312190.000,311000.000,-10000.000,-567000.000,-410.192,411.448,-221.491,-22.082,67.819,29.293,26832.283,-16684.492,-8598.625
1512178348,292.900,29.200,15.200,457890.000,-386170.000,1121580.000,314000.000,10000.000,-567000.000,-321.409,231.929,-118.484,2.017,95.859,-48.232,27280.739,-16983.824,-8977.577
1512178348,192.500,24.000,16.200,488710.000,-312380.000,1240600.000,314000.000,10000.000,-567000.000,-101.242,45.157,-32.794,-2.158,88.592,-32.292,27508.186,-16458.479,-8829.247
1512178348,135.000,3.100,48.100,456480.000,-330200.000,1073970.000,314000.000,10000.000,-567000.000,52.881,52.689,60.081,-33.193,62.878,73.182,27807.625,-16608.030,-8606.880
1512178348,198.000,1.500,29.400,457210.000,-363530.000,1001160.000,314000.000,10000.000,-567000.000,-15.637,161.495,82.920,-57.940,36.015,89.514,27505.898,-16983.473,-8679.497
1512178348,153.100,107.500,53.800,448430.000,-368410.000,1199770.000,316000.000,-5000.000,-582000.000,-145.471,137.825,68.164,-68.230,40.873,95.082,27656.487,-16833.250,-8830.696
1512178348,144.900,-8.300,52.200,460630.000,-372070.000,1058170.000,316000.000,-5000.000,-582000.000,-178.002,94.044,34.492,-60.725,29.508,72.318,27430.107,-17133.589,-8903.923
1512178348,157.500,19.000,68.400,451720.000,-354250.000,1116640.000,316000.000,-5000.000,-582000.000,-96.689,15.165,13.008,-42.653,27.846,58.272,27732.918,-16533.140,-8681.190
1512178348,206.800,70.700,67.000,478880.000,-400510.000,1078860.000,316000.000,-5000.000,-582000.000,20.184,-68.009,33.605,-32.401,-1.085,64.696,27507.576,-16608.473,-8679.314
1512178348,14.400,50.700,78.600,453860.000,-413150.000,1070190.000,316000.000,-5000.000,-582000.000,84.562,-119.257,70.605,-64.306,-18.185,76.944,27131.493,-16834.044,-8826.241
1512178348,-2.900,-9.900,77.100,436220.000,-393860.000,897280.000,323000.000,-5000.000,-555000.000,130.603,-86.997,-5.375,-78.077,-18.023,90.050,27507.622,-16608.473,-8604.317
1512178348,23.600,133.600,92.100,500850.000,-398990.000,1394470.000,323000.000,-5000.000,-555000.000,73.340,-33.524,-87.044,-75.508,-52.031,99.985,27507.622,-16608.473,-8604.317
1512178348,-71.600,51.900,37.000,447690.000,-319890.000,1093140.000,323000.000,-5000.000,-555000.000,-11.673,40.085,-98.675,-63.418,-106.032,54.209,27581.490,-16833.372,-8830.070
1512178348,100.100,-59.100,90.000,379580.000,-361270.000,1033810.000,323000.000,-5000.000,-555000.000,-36.258,-13.496,-33.124,-41.728,-126.157,8.422,27731.499,-16833.143,-8831.337
1512178348,129.200,137.200,81.500,494450.000,-337040.000,1281070.000,323000.000,-5000.000,-555000.000,-23.181,2.327,80.125,-25.417,-129.743,-37.176,27658.073,-16458.250,-9055.519
1512178348,10.800,69.600,94.900,430790.000,-381040.000,945560.000,307000.000,0.000,-560000.000,30.486,9.673,187.533,-8.240,-128.459,-70.653,27733.742,-16308.134,-9056.099
1512178348,118.200,-20.200,91.500,463810.000,-292240.000,1150390.000,307000.000,0.000,-560000.000,4.643,53.271,270.465,1.863,-111.716,-98.652,27583.855,-16308.363,-8829.826
1512178348,191.200,118.900,96.800,483400.000,-352110.000,1224790.000,307000.000,0.000,-560000.000,-86.298,148.148,293.994,17.262,-75.287,-110.990,27581.825,-16758.360,-8830.025
1512178348,53.700,68.200,94.900,461730.000,-433470.000,1011900.000,307000.000,0.000,-560000.000,-58.162,210.194,272.232,44.825,-43.658,-145.980,27281.487,-16833.815,-8827.507
1512178348,21.700,33.000,98.000,483030.000,-390500.000,1224300.000,305000.000,22000.000,-575000.000,63.024,232.894,229.291,75.819,-9.404,-129.546,27581.947,-16758.360,-8605.034
1512178348,-51.300,65.200,104.000,462100.000,-421080.000,1165950.000,305000.000,22000.000,-575000.000,382.101,38.897,264.153,62.837,-73.931,-84.130,27355.598,-17058.699,-8603.264
1512178348,-41.000,72.700,125.800,461000.000,-382450.000,953920.000,305000.000,22000.000,-575000.000,344.708,163.544,404.766,55.828,-103.239,2.865,27430.031,-17208.586,-8378.960
1512178348,-61.100,21.000,101.100,424070.000,-369930.000,1059880.000,305000.000,22000.000,-575000.000,-194.100,437.980,574.880,71.434,-112.201,28.810,26979.881,-17284.269,-8000.175
1512178348,-128.500,78.300,141.700,377620.000,-371520.000,1065250.000,305000.000,22000.000,-575000.000,-937.828,569.081,688.226,131.153,-27.845,-82.782,26976.768,-17959.272,-8150.490
1512178348,-158.300,68.700,81.400,460510.000,-357480.000,1027530.000,314000.000,7000.000,-560000.000,-1131.724,194.778,759.808,178.866,120.219,-218.041,26866.859,-17359.442,-8374.253
1512178348,-119.000,35.800,151.000,410100.000,-375610.000,986330.000,314000.000,7000.000,-560000.000,-255.312,-262.554,697.888,92.975,152.221,3.672,25368.935,-16761.679,-9598.732
1512178348,41.000,40.100,110.500,472350.000,-280330.000,1209230.000,314000.000,7000.000,-560000.000,-28.592,447.817,591.706,77.654,93.604,213.749,24803.352,-17437.529,-9669.258
1512178348,118.500,52.100,120.100,489200.000,-449650.000,1280640.000,314000.000,7000.000,-560000.000,-381.767,544.503,583.195,115.972,46.232,115.799,25028.641,-17437.193,-9108.673
1512178348,-47.700,52.300,134.100,586240.000,-374760.000,1149900.000,314000.000,7000.000,-560000.000,-215.006,-72.205,622.376,81.518,61.925,103.037,24464.881,-17700.536,-9254.006
1512178348,106.700,-44.500,128.100,409850.000,-420780.000,1038820.000,314000.000,7000.000,-583000.000,-68.776,-189.387,573.450,-14.649,3.444,194.115,23714.675,-17739.165,-9322.654
1512178348,123.200,31.400,171.200,520630.000,-345520.000,1246770.000,314000.000,7000.000,-583000.000,-174.810,-58.448,448.173,-42.785,-13.505,161.428,22962.868,-18115.293,-9541.450
1512178348,-28.200,48.600,150.700,445740.000,-393490.000,1076600.000,314000.000,7000.000,-583000.000,-59.027,-70.693,246.190,-18.793,-16.942,85.539,22435.746,-18566.084,-9724.694
1512178348,-29.200,-20.400,155.800,488280.000,-354920.000,1133420.000,314000.000,7000.000,-583000.000,240.017,-107.895,114.472,-25.996,-56.208,70.173,22362.434,-18191.191,-9723.885
1512178348,-50.700,78.600,161.900,491330.000,-406920.000,1083190.000,316000.000,37000.000,-595000.000,331.056,231.605,7.699,-47.733,-113.623,-33.647,22097.946,-18679.091,-9309.372
1512178348,-82.300,63.100,158.900,412290.000,-443300.000,1049190.000,316000.000,37000.000,-595000.000,212.738,418.133,-144.744,3.184,-76.528,-245.549,22621.544,-19053.305,-8751.511
1512178348,-161.900,23.700,167.900,504150.000,-431460.000,976070.000,316000.000,37000.000,-595000.000,295.701,23.892,-314.418,17.488,-53.787,-330.318,23336.258,-18602.232,-8382.362
1512178349,-64.600,47.800,170.800,428410.000,-410030.000,1015930.000,316000.000,37000.000,-595000.000,366.804,-102.763,-495.594,-25.244,-102.093,-225.310,23298.378,-18714.796,-8119.606
1512178349,2.100,122.400,159.800,442870.000,-401980.000,1078610.000,316000.000,37000.000,-595000.000,74.391,130.800,-528.864,-36.660,-136.407,-161.322,23823.799,-18639.006,-7974.037
1512178349,80.600,8.800,166.600,461240.000,-308290.000,991390.000,312000.000,29000.000,-582000.000,-369.481,453.706,-489.398,13.490,-77.995,-178.730,23900.520,-18263.884,-7899.498
1512178349,125.300,34.200,167.500,406190.000,-370360.000,1161010.000,312000.000,29000.000,-582000.000,-449.440,580.556,-418.691,65.499,45.178,-244.089,24725.822,-18187.651,-7981.468
1512178349,34.600,60.300,161.100,436340.000,-363830.000,1126590.000,312000.000,29000.000,-582000.000,-90.448,342.892,-413.247,84.581,167.814,-235.494,25028.893,-17512.190,-7908.714
1512178349,97.100,15.600,179.000,430600.000,-391540.000,1194030.000,312000.000,29000.000,-582000.000,384.853,-64.290,-488.801,48.747,221.410,-90.492,25254.997,-17286.848,-7760.521
1512178349,40.700,-8.700,178.600,471680.000,-391910.000,1127620.000,312000.000,29000.000,-582000.000,569.493,-258.251,-576.352,-25.618,179.881,88.084,24953.606,-17587.309,-7833.107
1512178349,43.500,6.500,190.700,469910.000,-387820.000,1087770.000,321000.000,45000.000,-580000.000,442.235,-214.571,-614.288,-65.513,141.236,221.569,25476.509,-18036.528,-7987.785
1512178349,-34.600,22.800,181.600,447690.000,-393310.000,1085940.000,321000.000,45000.000,-580000.000,123.614,-43.081,-614.044,-88.483,101.199,262.159,25629.356,-17436.293,-7688.774
1512178349,-76.700,-15.000,182.800,488040.000,-435490.000,1053530.000,321000.000,45000.000,-580000.000,-233.480,101.645,-608.049,-74.025,100.133,221.757,26007.088,-16835.722,-7616.692
1512178349,24.500,22.500,191.200,514470.000,-419680.000,1132390.000,321000.000,45000.000,-580000.000,-334.399,197.660,-625.169,-41.001,127.570,132.600,26203.400,-17242.699,-8367.233
1512178349,36.200,60.700,190.700,473750.000,-377870.000,1084840.000,318000.000,35000.000,-587000.000,-152.232,190.443,-618.293,2.216,133.986,67.138,26956.070,-16641.563,-8448.318
1512178349,-76.800,-16.200,203.500,501890.000,-447570.000,1097350.000,318000.000,35000.000,-587000.000,128.282,104.120,-501.526,26.107,88.342,55.291,26954.987,-16866.570,-8598.434
1512178349,-59.400,24.400,212.400,505190.000,-383420.000,1064820.000,318000.000,35000.000,-587000.000,238.909,38.720,-296.535,15.778,36.742,90.189,27256.943,-16491.112,-8075.806
1512178349,4.900,49.900,210.100,467590.000,-385740.000,1093020.000,318000.000,35000.000,-587000.000,142.406,20.096,-133.823,-18.389,20.536,115.978,27482.315,-16415.779,-8002.686
1512178349,8.300,8.800,214.800,485660.000,-400820.000,1030520.000,318000.000,35000.000,-587000.000,-29.298,22.902,-64.875,-37.472,10.953,119.721,27331.116,-16641.014,-8376.511
1512178349,7.200,45.500,212.300,499390.000,-395320.000,1093570.000,312000.000,44000.000,-582000.000,-186.935,8.662,-9.643,-32.212,0.199,88.807,27257.416,-16341.118,-8450.729
1512178349,35.700,24.800,218.800,463320.000,-381710.000,1122620.000,312000.000,44000.000,-582000.000,-297.807,-93.104,50.228,-19.987,1.766,49.803,27258.102,-16191.109,-8450.668
1512178349,0.900,24.200,221.400,427000.000,-363650.000,1097050.000,312000.000,44000.000,-582000.000,-366.757,-273.799,85.916,-8.338,15.589,31.556,27183.014,-16191.231,-8600.037
1512178349,51.300,-13.800,226.000,479490.000,-330930.000,1077640.000,312000.000,44000.000,-582000.000,-286.114,-407.238,101.541,-18.267,14.046,57.241,26957.428,-16266.563,-9123.138
1512178349,126.200,39.400,221.000,468380.000,-365420.000,1118650.000,333000.000,61000.000,-578000.000,-87.817,-381.305,101.303,-27.964,6.121,112.750,26508.026,-16117.241,-9269.257
1512178349,115.200,15.300,228.100,472230.000,-363340.000,1067320.000,333000.000,61000.000,-578000.000,186.289,-221.714,102.637,-42.812,-20.532,159.045,26283.020,-16117.577,-9267.334
1512178349,71.800,12.800,231.200,483950.000,-371890.000,1090580.000,333000.000,61000.000,-578000.000,352.388,-79.431,121.528,-52.423,-46.865,159.687,25981.262,-16493.034,-9414.963
1512178349,90.500,29.300,228.800,483640.000,-351010.000,1095640.000,333000.000,61000.000,-578000.000,370.585,-31.327,119.829,-46.146,-55.282,158.439,25755.661,-16643.364,-9263.123
1512178349,131.800,15.200,237.800,493960.000,-372800.000,1057920.000,333000.000,61000.000,-578000.000,277.648,8.022,132.474,-47.633,-58.541,146.856,25755.432,-16718.376,-9038.162
1512178349,47.100,30.200,236.000,438420.000,-363220.000,1085880.000,318000.000,52000.000,-580000.000,114.578,39.824,132.357,-32.379,-37.929,97.034,25904.755,-16868.141,-9039.505
1512178349,78.400,1.600,233.200,456120.000,-359250.000,1056270.000,318000.000,52000.000,-580000.000,-97.530,-20.784,94.424,37.003,17.115,-64.942,25903.366,-17168.151,-9114.639
1512178349,107.100,5.900,234.600,491390.000,-365050.000,1109310.000,318000.000,52000.000,-580000.000,-70.017,-91.854,136.154,139.018,4.649,-222.966,25679.695,-16868.485,-9150.085
1512178349,94.700,18.200,234.200,457460.000,-382750.000,1054930.000,318000.000,52000.000,-580000.000,-109.206,-87.180,444.226,121.073,-33.871,-222.106,25228.501,-17094.162,-9521.370
1512178349,30.800,21.800,236.500,441770.000,-367430.000,1090940.000,318000.000,52000.000,-580000.000,-1085.491,120.063,764.480,166.125,14.571,-289.239,24441.238,-16982.841,-10039.627
1512178349,93.100,9.500,234.000,459230.000,-354430.000,1110720.000,330000.000,51000.000,-578000.000,-482.047,-168.588,811.664,162.907,108.405,-256.603,23542.321,-16646.690,-10894.310
1512178349,89.600,32.500,230.400,479190.000,-362550.000,1120480.000,330000.000,51000.000,-578000.000,515.578,101.514,578.132,117.558,43.520,83.045,22750.473,-17622.879,-10813.065
1512178349,81.100,31.700,231.600,458560.000,-351500.000,1090210.000,330000.000,51000.000,-578000.000,348.982,814.774,597.920,141.468,-50.286,267.416,22522.377,-18410.721,-9911.530
1512178349,37.600,46.900,232.800,509280.000,-402280.000,1144040.000,330000.000,51000.000,-578000.000,-294.923,704.868,852.059,146.065,-24.346,240.216,22145.752,-18823.784,-9458.527
1512178349,36.800,44.600,235.800,448300.000,-398190.000,1125060.000,330000.000,51000.000,-578000.000,-604.592,6.143,946.419,62.661,26.629,269.143,21657.181,-19012.017,-9904.472
1512178349,-4.800,33.800,231.600,433350.000,-380130.000,1133970.000,337000.000,54000.000,-582000.000,-392.806,29.705,807.249,-16.508,21.172,296.612,20379.730,-19501.435,-10381.363
1512178349,-35.200,35.400,234.000,434750.000,-336730.000,1115720.000,337000.000,54000.000,-582000.000,-154.913,181.606,610.804,-48.310,-8.110,192.840,19216.469,-19721.567,-7707.619
1512178349,24.600,55.900,229.800,430540.000,-339970.000,1096620.000,337000.000,54000.000,-582000.000,36.779,112.296,425.180,-87.509,-25.404,39.640,19104.065,-19684.236,-7856.644
1512178350,-25.400,22.400,225.200,505620.000,-386230.000,1060730.000,337000.000,54000.000,-582000.000,207.210,-75.531,198.327,-137.489,-36.839,-98.809,18915.833,-19872.011,-7630.127
1512178350,-16.800,82.400,228.600,427730.000,-339290.000,1160890.000,332000.000,59000.000,-573000.000,340.238,-138.119,79.571,-172.474,-94.318,-125.741,18464.401,-20172.686,-7776.443
1512178350,127.300,3.100,223.700,467530.000,-371950.000,1049320.000,332000.000,59000.000,-573000.000,295.071,-74.022,41.827,-213.268,-129.276,-139.809,18614.899,-20097.460,-7477.692
1512178350,35.700,19.200,228.100,470950.000,-370000.000,1140930.000,332000.000,59000.000,-573000.000,104.454,40.257,-93.792,-244.087,-96.711,-194.024,18388.916,-20322.802,-7400.879
1512178350,49.100,45.400,226.100,497800.000,-354860.000,1108700.000,332000.000,59000.000,-573000.000,-42.093,102.556,-384.603,-220.056,-46.146,-288.163,18688.202,-20472.353,-7478.500
1512178350,175.000,10.800,238.500,470950.000,-324040.000,1137080.000,332000.000,59000.000,-573000.000,43.858,-7.802,-688.633,-148.235,-19.515,-355.358,18913.589,-20397.020,-7405.380
1512178350,57.100,54.100,238.600,480350.000,-374150.000,1103700.000,335000.000,70000.000,-577000.000,346.454,-307.108,-886.774,-95.983,-47.191,-338.148,19139.938,-20096.682,-7407.150
1512178350,79.900,68.300,233.600,494380.000,-417480.000,1109800.000,335000.000,70000.000,-577000.000,479.925,-516.101,-975.118,-107.753,-85.982,-225.392,19213.501,-20396.563,-7557.922
1512178350,59.400,18.600,242.200,462100.000,-392820.000,1027590.000,335000.000,70000.000,-577000.000,339.773,-604.774,-1078.734,-120.352,-111.073,-120.982,19890.381,-20020.555,-7188.492
1512178350,-14.400,55.000,253.400,470830.000,-397640.000,1012510.000,335000.000,70000.000,-577000.000,-30.086,-266.487,-1194.850,-106.092,-116.196,-77.518,20190.659,-19945.101,-7341.003
1512178350,26.100,32.100,236.500,454830.000,-333310.000,1021790.000,340000.000,93000.000,-572000.000,-217.733,96.624,-1306.114,-6.148,-40.512,-162.123,20866.852,-19644.091,-7646.606
1512178350,14.600,31.000,242.200,457760.000,-406010.000,1041750.000,340000.000,93000.000,-572000.000,24.276,164.296,-1302.366,69.243,26.696,-254.841,21769.180,-19117.739,-7729.019
1512178350,-51.000,39.100,243.400,434690.000,-340150.000,1083070.000,340000.000,93000.000,-572000.000,541.680,-103.091,-1273.414,111.019,63.665,-201.430,22221.573,-18592.058,-7657.593
1512178350,84.800,33.800,246.500,521000.000,-404600.000,1108830.000,340000.000,93000.000,-572000.000,800.512,-186.294,-1135.634,55.174,4.153,-65.118,22898.193,-18291.033,-7138.199
1512178350,25.000,31.600,253.900,492920.000,-419070.000,1049440.000,340000.000,93000.000,-572000.000,637.043,-164.412,-983.348,31.119,-26.788,15.882,23421.951,-18590.258,-6917.786
1512178350,-83.400,16.000,259.700,500000.000,-407470.000,1111020.000,337000.000,86000.000,-585000.000,231.281,-156.821,-813.299,30.499,-22.670,49.347,24023.239,-18289.354,-7072.754
1512178350,-19.600,29.400,262.200,459840.000,-404300.000,1108830.000,337000.000,86000.000,-585000.000,-142.390,-232.477,-653.735,74.899,-0.471,31.679,24475.601,-17763.674,-7076.340
1512178350,-42.200,30.800,255.300,447140.000,-410830.000,1117550.000,337000.000,86000.000,-585000.000,-300.567,-395.500,-443.382,104.521,26.963,56.256,24550.827,-17688.555,-7301.941
1512178350,-52.100,9.700,264.300,536130.000,-419190.000,1153440.000,337000.000,86000.000,-585000.000,-199.314,-553.809,-255.906,98.595,46.894,127.476,24624.252,-17988.451,-7752.716
1512178350,-62.200,56.900,264.200,499330.000,-455320.000,1070920.000,337000.000,86000.000,-585000.000,15.044,-614.603,-133.609,76.284,64.057,222.522,24101.837,-17389.238,-7972.977
1512178350,-43.900,37.200,280.300,493290.000,-372620.000,1124630.000,349000.000,95000.000,-587000.000,158.568,-520.566,-40.588,57.097,63.600,301.814,24326.340,-17463.900,-8274.918
1512178350,-84.600,44.600,274.700,536680.000,-402340.000,1144350.000,349000.000,95000.000,-587000.000,162.244,-355.203,67.712,33.388,55.284,320.128,24326.340,-17463.900,-8274.918
1512178350,-24.600,3.300,278.600,456180.000,-400210.000,1036190.000,349000.000,95000.000,-587000.000,87.875,-233.654,122.491,13.287,91.941,279.958,23874.161,-17914.583,-8571.304
1512178350,7.500,96.700,295.500,502010.000,-400510.000,1134030.000,349000.000,95000.000,-587000.000,95.029,-157.718,80.217,2.428,130.822,227.630,23350.891,-17540.361,-8491.669
1512178350,38.700,0.900,288.600,565610.000,-409120.000,1089420.000,342000.000,112000.000,-587000.000,211.369,-146.183,7.317,18.494,108.572,153.067,23421.677,-18440.256,-8830.216
1512178350,-122.100,10.700,323.300,498780.000,-441470.000,1016170.000,342000.000,112000.000,-587000.000,314.416,-209.682,58.695,22.035,39.916,85.713,23347.428,-18290.369,-8679.512
1512178350,-80.000,65.600,286.400,473390.000,-410100.000,1058170.000,342000.000,112000.000,-587000.000,-120.758,-238.872,167.422,25.665,1.963,-68.873,23081.582,-19040.765,-8602.630
1512178350,-105.700,75.400,307.600,539490.000,-405150.000,1150210.000,342000.000,112000.000,-587000.000,-508.232,-253.748,100.460,118.790,27.451,-217.838,22783.196,-18628.717,-9087.387
1512178350,-110.500,38.000,303.300,518800.000,-482730.000,1033630.000,342000.000,112000.000,-587000.000,247.601,152.404,22.739,220.042,-14.803,-197.191,22858.253,-18553.599,-9650.490
1512178350,-66.300,81.100,328.900,571410.000,-429750.000,1185970.000,351000.000,118000.000,-592000.000,933.304,640.109,517.296,204.874,-107.910,-73.626,22891.350,-19678.553,-8338.829
1512178350,-102.100,63.500,315.200,495120.000,-438050.000,1047850.000,351000.000,118000.000,-592000.000,-617.731,305.276,917.420,166.726,7.372,-94.413,22514.587,-20091.615,-8148.331
1512178350,-62.100,36.600,317.600,568970.000,-428770.000,1140440.000,351000.000,118000.000,-592000.000,-1827.190,132.528,909.955,183.003,169.193,-203.234,21316.643,-19455.919,-9750.336
1512178350,25.000,109.700,310.500,520630.000,-444520.000,990600.000,351000.000,118000.000,-592000.000,-1137.876,151.599,709.993,189.706,274.214,-136.194,21059.243,-18181.300,-11022.514
1512178350,44.900,94.900,325.400,504940.000,-369510.000,1168640.000,351000.000,118000.000,-592000.000,239.431,276.447,492.119,118.872,153.470,172.641,20420.357,-18482.264,-11092.231
1512178350,-12.400,88.000,328.600,552670.000,-366210.000,1153810.000,344000.000,118000.000,-585000.000,806.099,644.808,473.893,57.206,38.625,389.050,20340.424,-19682.375,-10154.656
1512178350,-32.900,82.800,342.300,489260.000,-403560.000,1189760.000,344000.000,118000.000,-585000.000,510.458,616.226,655.005,-7.330,-14.121,404.411,20523.781,-20732.104,-8994.232
1512178350,-63.300,52.600,339.600,525390.000,-395320.000,1149050.000,344000.000,118000.000,-585000.000,-355.832,296.467,711.702,-79.011,-18.817,315.964,20184.967,-21032.610,-8916.504
1512178351,-49.100,51.000,350.100,526730.000,-451230.000,1070190.000,344000.000,118000.000,-585000.000,-657.741,176.418,686.655,-101.310,-5.748,148.444,19809.265,-21145.678,-9288.361
1512178351,-85.400,47.900,340.100,437560.000,-408140.000,1072630.000,340000.000,121000.000,-578000.000,-441.965,27.265,653.016,-114.778,-14.273,44.851,19509.460,-21071.123,-9585.785
1512178351,-11.100,76.300,346.700,562870.000,-389770.000,1151730.000,340000.000,121000.000,-578000.000,-186.813,-132.516,623.109,-167.416,-28.245,-30.546,19433.624,-21221.239,-9885.208
1512178351,26.100,68.600,336.600,432370.000,-332280.000,1035710.000,340000.000,121000.000,-578000.000,-54.282,-191.831,470.244,-218.339,-41.703,-89.377,19133.560,-21221.682,-10032.654
1512178351,-15.800,-1.300,343.900,500980.000,-394410.000,1144900.000,340000.000,121000.000,-578000.000,-189.184,-120.160,315.027,-249.446,-111.780,-159.280,18832.428,-21447.145,-10255.203
1512178351,15.000,42.600,352.100,462340.000,-358520.000,1105960.000,340000.000,121000.000,-578000.000,-487.873,51.578,205.757,-244.615,-119.553,-268.338,18457.428,-21447.695,-10252.014
1512178351,12.100,36.100,354.700,503720.000,-428710.000,1076780.000,347000.000,135000.000,-589000.000,-624.637,142.500,34.587,-207.363,-59.866,-412.057,18158.737,-21148.149,-10324.341
1512178351,-22.000,24.200,358.500,480710.000,-366270.000,1051940.000,347000.000,135000.000,-589000.000,-448.540,-3.023,-242.674,-150.399,1.393,-505.643,18310.806,-20622.927,-10925.369
1512178351,11.100,26.900,348.700,421940.000,-348570.000,1058900.000,347000.000,135000.000,-589000.000,-67.968,-261.353,-578.133,-111.577,-7.855,-491.744,18686.707,-20397.356,-11153.442
1512178351,97.300,35.700,349.800,441410.000,-326600.000,1059880.000,347000.000,135000.000,-589000.000,202.861,-414.355,-782.623,-117.521,-94.138,-389.603,18912.003,-20322.023,-11230.331
1512178351,-2.000,42.200,346.500,484500.000,-378600.000,1011960.000,346000.000,137000.000,-583000.000,171.635,-424.869,-893.983,-133.145,-154.312,-267.508,19288.437,-20021.456,-11083.374
1512178351,40.600,43.000,358.200,457950.000,-296690.000,1173520.000,346000.000,137000.000,-583000.000,-90.389,-93.999,-955.258,-117.779,-141.032,-175.932,19287.872,-20096.453,-11533.417
1512178351,114.000,35.300,362.900,505070.000,-369450.000,1081300.000,346000.000,137000.000,-583000.000,-297.516,263.711,-1048.698,-10.417,-45.665,-227.995,19741.318,-19345.781,-11386.887
1512178351,152.900,30.400,366.500,483280.000,-354250.000,1169010.000,346000.000,137000.000,-583000.000,-162.741,204.158,-1078.933,82.809,41.811,-269.450,20565.567,-19494.539,-11543.976
1512178351,63.000,29.600,374.400,472110.000,-375370.000,1061280.000,346000.000,137000.000,-583000.000,316.089,-110.305,-1040.042,72.638,70.881,-181.682,21618.576,-18817.965,-11627.594
1512178351,32.500,48.900,388.600,508480.000,-348820.000,1112370.000,340000.000,163000.000,-592000.000,717.666,-204.791,-1024.958,18.847,60.840,-19.569,22069.748,-18592.287,-11331.299
1512178351,75.400,55.000,367.900,502750.000,-402710.000,1117860.000,340000.000,163000.000,-592000.000,813.436,-66.884,-1008.168,-4.976,33.728,101.206,22444.214,-18741.716,-11034.561
1512178351,-6.900,71.000,379.400,484500.000,-404720.000,1020510.000,340000.000,163000.000,-592000.000,655.652,132.482,-933.003,0.952,11.276,145.396,23193.054,-19040.606,-10666.077
1512178351,64.600,45.000,379.000,446110.000,-364500.000,1103520.000,340000.000,163000.000,-592000.000,410.852,252.467,-757.035,36.098,12.915,122.720,23641.479,-19414.919,-10445.068
1512178351,102.300,62.200,383.600,437500.000,-379270.000,1099670.000,340000.000,163000.000,-592000.000,189.310,167.263,-514.280,69.126,56.052,71.200,23944.595,-18739.473,-10297.302
1512178351,50.600,67.600,389.400,476260.000,-379940.000,1019170.000,346000.000,169000.000,-583000.000,139.905,-62.877,-308.980,61.693,119.379,37.197,24544.479,-18813.570,-9852.448
1512178351,107.200,46.100,390.800,499390.000,-410400.000,1124390.000,346000.000,169000.000,-583000.000,348.793,-275.251,-252.328,40.180,169.066,72.130,24544.449,-18813.570,-9927.444
1512178351,90.900,84.000,396.900,523070.000,-394530.000,1140500.000,346000.000,169000.000,-583000.000,633.690,-286.657,-203.463,13.256,151.680,154.045,24769.485,-18813.234,-9854.370
1512178351,90.100,68.700,398.500,443050.000,-389530.000,1123660.000,346000.000,169000.000,-583000.000,803.629,-153.087,-93.930,-10.423,121.730,226.640,24768.555,-19038.240,-9704.468
1512178351,73.900,28.200,399.500,504090.000,-373660.000,1089480.000,340000.000,174000.000,-592000.000,729.230,29.213,30.354,-18.620,105.424,253.008,24542.725,-19263.567,-9327.652
1512178351,98.500,94.000,416.100,499820.000,-409120.000,1066220.000,340000.000,174000.000,-592000.000,448.250,87.332,135.226,-10.390,107.238,216.418,24390.137,-19863.802,-9101.669
1512178351,29.300,34.900,402.500,441830.000,-370420.000,1086300.000,340000.000,174000.000,-592000.000,6.274,-165.556,192.970,21.427,149.211,121.582,24351.150,-20238.863,-8689.019
1512178351,45.800,49.800,410.500,469300.000,-380250.000,1086610.000,340000.000,174000.000,-592000.000,39.906,-529.183,172.471,21.311,148.980,131.827,23635.911,-20802.431,-9095.719
1512178351,72.800,93.200,410.300,478760.000,-395080.000,1124630.000,340000.000,174000.000,-592000.000,108.574,-356.592,186.326,-35.676,82.273,212.547,23260.727,-20802.996,-9467.537
1512178351,-13.000,41.800,419.200,493160.000,-366820.000,1034910.000,328000.000,169000.000,-580000.000,-208.331,59.041,159.729,-19.644,26.419,108.431,22810.776,-20803.675,-9351.203
1512178351,17.200,58.700,424.800,479190.000,-402950.000,1131960.000,328000.000,169000.000,-580000.000,-757.427,-13.840,128.600,40.856,31.859,-80.817,22325.135,-20316.904,-10021.843
1512178351,67.600,82.200,416.400,476140.000,-349000.000,1144470.000,328000.000,169000.000,-580000.000,-194.641,209.744,-146.576,126.628,1.452,-132.166,22890.541,-19603.555,-10626.282
1512178351,34.900,36.100,427.200,462650.000,-361270.000,1121280.000,328000.000,169000.000,-580000.000,478.436,794.437,181.833,151.472,-153.059,-38.647,23637.299,-20427.431,-9695.549
1512178351,-16.600,41.500,427.600,470950.000,-366270.000,1084290.000,328000.000,169000.000,-580000.000,-991.230,840.226,740.636,206.572,-71.523,-176.447,23788.612,-20164.705,-9434.204
1512178351,19.200,64.000,427.300,477840.000,-421330.000,1130430.000,328000.000,193000.000,-570000.000,-1581.266,-14.214,761.628,223.209,169.787,-377.752,23381.081,-18927.812,-10630.111
1512178351,47.300,61.900,432.100,477110.000,-376280.000,1134700.000,328000.000,193000.000,-570000.000,93.687,-317.070,444.233,131.751,179.600,-72.439,22554.558,-19154.062,-11635.711
1512178351,98.800,37.300,418.200,485050.000,-380800.000,1114690.000,328000.000,193000.000,-570000.000,781.583,547.449,533.966,100.866,46.989,158.035,22139.008,-19942.179,-10657.562
1512178351,-49.100,62.200,431.600,471440.000,-399660.000,1038760.000,328000.000,193000.000,-570000.000,78.625,560.485,689.597,83.156,37.834,122.892,22247.673,-20879.518,-9871.460
1512178352,59.400,52.100,430.100,400880.000,-385010.000,1155760.000,319000.000,202000.000,-575000.000,-223.202,12.417,768.070,29.572,37.180,138.771,21759.384,-21067.751,-9754.913
1512178352,46.500,19.200,442.000,365840.000,-367550.000,1023190.000,319000.000,202000.000,-575000.000,-423.278,-260.342,798.335,-30.635,40.577,204.124,21159.607,-20993.654,-9974.762
1512178352,29.600,69.100,438.400,401670.000,-414060.000,1188420.000,319000.000,202000.000,-575000.000,-667.368,-385.678,790.098,-84.650,27.516,238.477,20483.032,-21294.664,-10419.159
1512178352,33.700,58.900,437.200,472960.000,-449460.000,1042790.000,319000.000,202000.000,-575000.000,-891.763,-435.089,754.693,-116.125,23.582,247.576,19961.029,-20545.443,-11164.352
1512178352,38.300,39.400,450.200,467350.000,-395690.000,1178470.000,319000.000,202000.000,-575000.000,-978.992,-405.160,681.045,-127.539,31.393,234.548,19434.341,-20846.239,-11835.022
1512178352,74.800,60.700,445.900,435360.000,-376460.000,1124940.000,311000.000,200000.000,-573000.000,-832.896,-339.521,552.266,-137.237,49.824,213.277,18361.555,-21322.147,-13561.005
1512178352,173.000,17.600,446.700,416930.000,-375980.000,1145870.000,311000.000,200000.000,-573000.000,-441.562,-295.808,354.468,-146.786,41.830,218.244,17913.130,-20947.819,-13781.998
1512178352,158.300,27.300,442.100,387630.000,-363590.000,1073970.000,311000.000,200000.000,-573000.000,-51.556,-146.389,177.273,-155.288,-8.695,250.416,17460.844,-21398.502,-14303.391
1512178352,173.800,30.600,445.400,400450.000,-372860.000,1094850.000,311000.000,200000.000,-573000.000,65.409,-25.291,72.786,-152.937,-78.972,255.555,17536.894,-21173.389,-14228.928
1512178352,159.300,31.200,445.300,403020.000,-402710.000,1109250.000,311000.000,200000.000,-573000.000,-18.191,-12.532,35.371,-151.587,-119.648,224.738,17461.363,-21323.505,-13928.360
1512178352,97.900,42.600,453.500,407650.000,-386840.000,1120240.000,314000.000,218000.000,-573000.000,-136.795,-93.786,-15.664,-161.074,-119.658,166.103,17686.247,-21323.170,-14155.258
1512178352,13.600,30.900,460.600,402830.000,-380980.000,1067870.000,314000.000,218000.000,-573000.000,-161.364,-146.984,-145.201,-181.831,-123.479,111.739,17612.272,-21098.270,-14154.526
1512178352,9.300,48.600,457.700,442810.000,-372070.000,1120790.000,314000.000,218000.000,-573000.000,-116.093,-193.595,-306.748,-203.096,-133.776,58.744,17537.718,-20948.383,-14603.821
1512178352,-29.600,32.000,450.300,394470.000,-361940.000,1127870.000,314000.000,218000.000,-573000.000,5.073,-148.211,-476.470,-201.299,-123.741,8.458,17839.170,-20647.938,-14381.241
1512178352,-92.300,21.800,444.100,395510.000,-347290.000,1144230.000,311000.000,236000.000,-563000.000,174.012,31.806,-626.907,-181.443,-129.957,-46.435,17989.515,-20572.712,-14382.477
1512178352,-112.000,42.200,442.200,444030.000,-348880.000,1194520.000,311000.000,236000.000,-563000.000,305.197,205.170,-687.303,-120.888,-127.682,-158.893,18288.847,-20722.263,-14385.086
1512178352,-114.200,21.400,430.500,444340.000,-374210.000,1121030.000,311000.000,236000.000,-563000.000,482.966,213.014,-735.871,-64.993,-75.255,-267.475,18889.036,-20721.363,-14015.198
1512178352,-193.200,10.100,434.600,444400.000,-367130.000,1180660.000,311000.000,236000.000,-563000.000,808.334,-22.254,-889.751,-5.173,-21.968,-328.934,19337.568,-21095.692,-13569.183
1512178352,-145.000,39.900,439.300,468380.000,-359250.000,1146970.000,311000.000,236000.000,-563000.000,1137.859,-538.446,-1052.016,17.645,0.977,-305.802,20087.126,-21244.572,-13125.626
