unixtime,rx,ry,rz,ax,ay,az,mx,my,mz,apprx,appry,apprz,appax,appay,appaz,appmx,appmy,appmz
1512178753,26.800,-7.200,243.700,65430.000,-43460.000,922730.000,384000.000,-31000.000,-245000.000,-348.068,595.596,1512.659,-43.129,85.679,-117.285,-21254.257,-22053.368,-39682.289
1512178753,37.700,-36.000,250.200,24600.000,-8480.000,988770.000,384000.000,-31000.000,-245000.000,-288.625,556.136,1526.176,-48.355,119.874,-127.951,-21474.411,-21003.685,-39454.903
1512178753,23.600,-2.000,237.700,56580.000,-30330.000,1001770.000,397000.000,-37000.000,-253000.000,-126.127,494.489,1495.267,-59.648,140.351,-114.976,-21924.911,-21079.369,-39751.106
1512178753,-56.900,-46.100,237.300,70500.000,-51820.000,984800.000,397000.000,-37000.000,-253000.000,64.886,452.206,1416.866,-74.364,137.242,-55.422,-21998.627,-20779.472,-39900.337
1512178753,-100.000,3.300,227.400,71590.000,-103210.000,1018370.000,397000.000,-37000.000,-253000.000,161.197,509.137,1333.176,-87.281,104.775,32.003,-22065.796,-19054.573,-39748.894
1512178753,-26.200,-7.600,224.800,65250.000,-70310.000,1033690.000,397000.000,-37000.000,-253000.000,152.467,632.057,1286.570,-84.102,67.987,90.316,-21991.577,-19204.475,-39974.602
1512178753,-56.600,-15.700,220.500,26980.000,-91920.000,973690.000,397000.000,-37000.000,-253000.000,80.994,729.140,1294.402,-70.101,37.054,101.065,-22139.862,-18829.689,-39898.155
1512178753,-27.800,36.500,219.800,34000.000,-54570.000,1007390.000,398000.000,-45000.000,-231000.000,-30.161,766.317,1313.174,-57.328,34.764,82.924,-22136.856,-18154.686,-39972.847
1512178753,17.200,-7.100,224.400,60910.000,-55790.000,960140.000,398000.000,-45000.000,-231000.000,-153.770,717.005,1308.016,-44.033,34.461,51.156,-22286.255,-18004.906,-40121.498
1512178753,6.900,12.400,221.300,74280.000,-86550.000,1005310.000,398000.000,-45000.000,-231000.000,-236.417,633.497,1337.441,-31.859,22.380,26.213,-22132.690,-17179.680,-40422.401
1512178753,-13.800,44.700,223.700,62870.000,-52190.000,979430.000,398000.000,-45000.000,-231000.000,-265.032,597.031,1390.203,-36.203,15.663,21.806,-21904.022,-16354.332,-40498.924
1512178753,-19.000,13.800,225.400,21360.000,-33140.000,1007510.000,414000.000,-29000.000,-243000.000,-272.865,640.766,1414.761,-47.643,15.505,19.818,-22052.032,-15904.564,-40572.441
1512178753,-44.700,-4.100,220.600,72080.000,-51760.000,1003050.000,414000.000,-29000.000,-243000.000,-259.572,633.369,1384.012,-51.816,24.797,-3.289,-22123.474,-15079.659,-40871.422
1512178753,-58.300,-1.500,214.800,-12630.000,-85210.000,1015560.000,414000.000,-29000.000,-243000.000,-244.650,536.329,1315.667,-41.695,26.094,-27.828,-22043.930,-14029.549,-41246.574
1512178753,-18.800,26.000,216.900,14650.000,-82700.000,932560.000,414000.000,-29000.000,-243000.000,-198.782,469.237,1245.736,-41.102,26.607,-23.562,-21891.266,-13429.314,-41322.578
1512178753,-2.300,34.900,217.200,28930.000,-60060.000,949890.000,414000.000,-29000.000,-243000.000,-172.180,394.628,1179.764,-34.219,20.069,-14.455,-22037.521,-12604.530,-41245.903
1512178753,10.700,20.100,220.600,12570.000,-85080.000,977170.000,419000.000,-24000.000,-245000.000,-143.757,349.899,1135.247,-35.915,-7.700,-2.835,-22109.222,-11854.652,-41394.936
1512178753,72.400,-15.600,218.400,41630.000,-27950.000,972900.000,419000.000,-24000.000,-245000.000,-165.268,339.290,1081.596,-36.947,-16.697,19.864,-21958.878,-11779.411,-41396.172
1512178753,23.400,-75.400,83.000,14830.000,-30400.000,1011960.000,419000.000,-24000.000,-245000.000,-134.232,356.438,1074.641,-42.660,-44.568,34.852,-22481.888,-11330.208,-41466.499
1512178753,161.500,178.000,128.400,14400.000,-28080.000,906370.000,419000.000,-24000.000,-245000.000,-114.725,342.621,1054.620,-39.132,-43.052,43.469,-22330.200,-10954.979,-41467.598
1512178753,-23.600,-117.200,189.000,11050.000,-15990.000,1131470.000,419000.000,-3000.000,-258000.000,-104.121,371.599,995.176,-49.866,-45.556,50.583,-22551.193,-9980.309,-42215.248
1512178753,-177.200,-139.300,227.800,-19530.000,-58350.000,928160.000,419000.000,-3000.000,-258000.000,-67.020,418.755,945.774,-53.602,-61.683,47.148,-21873.184,-9379.280,-41620.689
1512178753,-67.200,1.300,320.200,29300.000,-12700.000,1031370.000,419000.000,-3000.000,-258000.000,18.523,390.079,928.791,-41.847,-75.664,23.243,-22096.207,-8929.619,-41693.581
1512178753,-226.200,-279.800,255.100,-33690.000,-34910.000,1053280.000,419000.000,-3000.000,-258000.000,41.323,302.576,898.965,-40.106,-78.982,18.252,-21945.038,-8629.402,-42069.710
1512178753,-127.700,-237.000,124.100,17880.000,-24960.000,965450.000,419000.000,-3000.000,-258000.000,40.714,359.839,842.123,-63.339,-93.872,40.169,-21904.258,-7879.334,-42257.187
1512178753,159.400,144.300,86.000,41080.000,-36800.000,1029850.000,416000.000,-3000.000,-245000.000,12.718,464.096,767.457,-54.938,-89.457,5.233,-21527.199,-7391.265,-42522.644
1512178753,27.700,67.400,206.000,15630.000,-31980.000,1022460.000,416000.000,-3000.000,-245000.000,26.449,394.737,739.163,-47.498,-89.895,-35.038,-21373.764,-6603.538,-42748.558
1512178753,-55.700,-88.600,121.600,5620.000,-44860.000,991520.000,416000.000,-3000.000,-245000.000,99.887,387.615,617.074,-44.840,-78.740,-51.685,-20996.460,-6077.972,-42863.999
1512178753,-26.800,-25.700,59.100,68970.000,-50720.000,998350.000,416000.000,-3000.000,-245000.000,232.059,266.838,482.644,-45.997,-93.361,-44.810,-20959.725,-6227.921,-43051.887
1512178753,-2.800,21.600,-62.300,98880.000,-55420.000,1009580.000,416000.000,-3000.000,-245000.000,124.138,296.805,369.781,-43.183,-102.658,-3.334,-20696.342,-6002.525,-43316.520
1512178753,38.600,-32.600,-339.000,41690.000,-84960.000,921080.000,416000.000,-31000.000,-238000.000,-170.651,418.780,313.167,-35.064,-71.881,4.050,-20657.630,-5664.963,-43916.679
1512178753,40.100,177.500,-221.700,21910.000,-36870.000,961430.000,416000.000,-31000.000,-238000.000,-344.383,525.391,283.836,-3.197,-23.183,-59.351,-20092.499,-5064.118,-44071.182
1512178753,26.500,63.300,-144.700,-40830.000,12820.000,1018800.000,416000.000,-31000.000,-238000.000,-255.064,428.836,292.788,73.325,68.851,-184.352,-19825.386,-3976.211,-44635.407
1512178753,-56.300,-16.400,-265.900,38450.000,-18430.000,971920.000,416000.000,-31000.000,-238000.000,162.703,-86.495,307.709,114.916,140.240,-155.272,-19898.361,-3526.322,-44634.552
1512178753,6.400,-2.500,208.000,730.000,19710.000,956910.000,439000.000,-89000.000,-91000.000,428.922,-100.071,357.360,90.318,121.972,56.451,-20387.695,-3939.560,-44593.102
1512178753,4.500,4.400,208.300,-4580.000,-5920.000,1039250.000,439000.000,-89000.000,-91000.000,266.848,80.401,529.941,106.237,99.826,78.049,-21137.574,-3903.183,-44661.713
1512178753,1.300,0.300,269.200,20510.000,-42540.000,991330.000,439000.000,-89000.000,-91000.000,47.956,-29.519,578.091,90.785,102.292,66.275,-21512.253,-3828.743,-44695.992
1512178754,-34.500,6.700,196.300,-4210.000,-36620.000,934140.000,439000.000,-89000.000,-91000.000,-11.859,64.965,557.297,81.234,98.997,94.192,-22072.052,-3229.576,-44690.941
1512178754,-52.700,-24.100,187.100,9090.000,-17640.000,947080.000,439000.000,-89000.000,-91000.000,12.032,184.806,471.708,76.148,86.906,85.031,-22522.537,-3380.257,-44312.187
1512178754,-85.200,-9.700,151.900,-1590.000,-36440.000,966060.000,430000.000,-70000.000,-110000.000,40.525,198.827,425.263,91.979,73.650,50.934,-22746.338,-3080.589,-44610.115
1512178754,-96.800,17.700,160.900,-2690.000,-23560.000,959840.000,430000.000,-70000.000,-110000.000,89.702,83.568,411.718,101.859,49.447,31.709,-22822.723,-3380.714,-44684.624
1512178754,-39.900,23.000,192.700,-16360.000,-45170.000,1050900.000,430000.000,-70000.000,-110000.000,95.894,-40.348,417.771,103.093,31.006,51.540,-22820.251,-2855.705,-44459.389
1512178754,-36.900,125.400,207.600,30820.000,-26730.000,1011900.000,430000.000,-70000.000,-110000.000,38.376,-88.495,412.506,83.227,18.588,99.334,-23195.251,-2856.270,-44456.200
1512178754,230.900,187.900,173.000,15690.000,-57620.000,972720.000,430000.000,-70000.000,-110000.000,-122.643,48.098,357.346,56.193,-22.131,137.965,-23569.092,-2631.828,-44152.916
1512178754,339.700,416.900,-141.300,-78740.000,7750.000,1129150.000,434000.000,-102000.000,-86000.000,-278.169,75.648,351.993,59.304,-42.655,117.839,-23570.114,-2856.834,-44153.023
1512178754,15.800,108.400,-225.200,-1100.000,-55180.000,1001460.000,434000.000,-102000.000,-86000.000,-312.213,24.209,409.954,66.213,-58.115,84.044,-23791.992,-2182.167,-44000.786
1512178754,-79.500,1.300,-87.900,-15380.000,-97900.000,1022340.000,434000.000,-102000.000,-86000.000,-230.633,-59.040,436.431,65.143,-50.203,66.798,-24468.872,-2558.174,-44370.216
1512178754,-46.700,26.100,-96.900,-60730.000,-37960.000,1046330.000,434000.000,-102000.000,-86000.000,-127.030,-107.993,421.769,53.920,-63.153,71.388,-25138.550,-1434.181,-43838.966
1512178754,65.200,218.600,-262.900,-41500.000,-27770.000,1038640.000,469000.000,-63000.000,-89000.000,-76.009,-42.644,370.503,35.303,-68.241,90.912,-25062.729,-1284.065,-43539.543
1512178754,-40.600,337.600,-278.400,-55660.000,-128480.000,964840.000,469000.000,-63000.000,-89000.000,-85.246,27.999,286.392,24.882,-73.985,76.433,-25362.717,-1284.523,-43536.995
1512178754,205.300,189.600,-57.800,-6960.000,-145510.000,969180.000,469000.000,-63000.000,-89000.000,-66.538,-31.591,183.046,45.062,-80.751,38.073,-25587.723,-1284.859,-43535.088
1512178754,198.100,79.400,171.000,-43400.000,-74280.000,1087400.000,469000.000,-63000.000,-89000.000,13.941,-122.187,147.655,53.871,-100.485,26.694,-25587.646,-1284.859,-43385.078
1512178754,-7.200,-14.400,219.000,-36320.000,-44130.000,997860.000,469000.000,-63000.000,-89000.000,88.838,-132.721,130.580,38.458,-113.780,30.826,-26113.251,-1435.646,-43230.690
1512178754,-5.900,-3.300,216.900,-62620.000,-63050.000,980530.000,514000.000,-42000.000,-69000.000,112.574,-145.468,112.757,36.633,-124.890,25.514,-26415.207,-1886.101,-43078.346
1512178754,62.500,-34.200,261.900,-79100.000,-55910.000,966060.000,514000.000,-42000.000,-69000.000,117.739,-154.025,122.396,37.801,-131.422,10.433,-26562.607,-1361.320,-42626.823
1512178754,8.900,-121.400,245.300,-53470.000,-55730.000,997310.000,514000.000,-42000.000,-69000.000,139.337,-114.568,171.884,26.639,-118.942,-11.995,-26638.474,-1586.433,-42326.302
1512178754,105.700,-296.800,367.400,45960.000,-32230.000,1229190.000,514000.000,-42000.000,-69000.000,150.343,-46.153,154.158,16.856,-73.876,-54.640,-27238.708,-1662.331,-42096.230
1512178754,-66.600,-306.800,445.300,43700.000,-26860.000,1033260.000,527000.000,-15000.000,-81000.000,146.001,-95.172,92.094,7.919,-53.283,-117.007,-27388.672,-1662.560,-42019.966
1512178754,73.600,-82.300,370.800,25760.000,-58470.000,1090580.000,527000.000,-15000.000,-81000.000,172.149,-267.973,-15.803,3.680,-28.044,-143.901,-27694.931,-3013.023,-42393.044
1512178754,50.300,-22.100,301.200,16660.000,-71960.000,1047910.000,527000.000,-15000.000,-81000.000,219.738,-323.229,-124.042,-19.412,-42.413,-109.066,-27841.446,-2338.234,-41491.447
1512178754,17.200,-61.900,276.200,30580.000,-102110.000,999330.000,527000.000,-15000.000,-81000.000,226.334,-198.102,-194.938,-44.702,-71.162,-68.806,-28370.819,-3314.034,-41487.434
1512178754,11.500,-71.600,480.200,-15630.000,-125430.000,924440.000,527000.000,-15000.000,-81000.000,201.922,-11.078,-256.470,-64.201,-90.419,-67.535,-28221.268,-3463.814,-41038.780
1512178754,32.100,-73.000,477.200,-61650.000,13730.000,876160.000,516000.000,-26000.000,-91000.000,158.304,102.207,-321.741,-71.233,-95.787,-81.404,-27928.055,-4963.371,-41117.027
1512178754,-56.900,27.300,263.300,-72750.000,-24780.000,981630.000,516000.000,-26000.000,-91000.000,-83.873,212.558,-401.619,-57.998,-81.457,-101.712,-27927.871,-4963.364,-40742.027
1512178754,-37.600,137.000,302.800,-78310.000,-80080.000,932190.000,516000.000,-26000.000,-91000.000,-404.357,322.068,-387.757,17.369,29.366,-165.835,-27254.677,-5337.364,-40972.938
1512178754,-34.600,399.900,582.400,-70010.000,-40470.000,933110.000,516000.000,-26000.000,-91000.000,95.787,-165.868,-389.672,49.394,163.559,-109.650,-27330.582,-5562.477,-40747.406
1512178754,-18.400,413.700,531.400,-140380.000,-40830.000,981380.000,516000.000,-26000.000,-91000.000,538.510,-345.598,-449.446,-59.100,111.976,206.537,-27861.832,-7025.772,-40106.125
1512178754,165.900,2.500,373.600,-35520.000,4090.000,1076970.000,491000.000,-47000.000,-88000.000,258.815,308.007,-329.695,-132.553,25.146,308.469,-27492.379,-8262.726,-40034.881
1512178754,-6.300,-183.100,191.300,-53280.000,-29420.000,990780.000,491000.000,-47000.000,-88000.000,-198.377,515.692,-102.129,-92.040,50.950,128.477,-26407.531,-8823.585,-40306.877
1512178754,-155.700,-1.900,225.200,-55660.000,-58470.000,988340.000,491000.000,-47000.000,-88000.000,-615.165,126.810,-122.844,-103.848,114.422,14.555,-25581.162,-8484.856,-40613.732
1512178754,-87.800,-65.600,224.000,-90210.000,-93750.000,1021420.000,491000.000,-47000.000,-88000.000,-580.854,-72.316,-144.895,-113.514,92.844,45.583,-25352.379,-7622.010,-40802.742
1512178754,-227.800,-59.300,209.100,-70620.000,-77820.000,996890.000,484000.000,-58000.000,-101000.000,-481.047,149.544,-174.660,-128.791,48.187,89.700,-25011.871,-6946.495,-40880.302
1512178754,-87.100,103.600,152.900,-117980.000,-106200.000,963010.000,484000.000,-58000.000,-101000.000,-287.749,238.940,-126.241,-87.212,1.483,65.832,-24487.549,-7058.212,-41222.313
1512178754,180.800,215.100,63.900,1280.000,-83190.000,1041080.000,484000.000,-58000.000,-101000.000,-129.333,328.786,-63.934,-93.972,-10.966,71.599,-23400.177,-7056.579,-41494.056
1512178754,242.200,502.500,3.100,-94910.000,-155640.000,985960.000,484000.000,-58000.000,-101000.000,-72.266,67.644,-304.410,-99.747,-105.071,54.494,-22799.682,-6943.176,-41536.606
1512178755,38.000,534.600,-108.100,-131530.000,-121890.000,1024780.000,484000.000,-58000.000,-101000.000,-100.126,-47.903,-237.525,-52.030,-110.177,16.434,-22386.749,-6830.055,-41690.056
1512178755,-324.400,366.600,-174.000,-115970.000,-156920.000,979370.000,402000.000,-109000.000,-269000.000,67.914,-3.085,-81.419,-47.309,-128.114,-27.539,-22313.065,-7129.951,-41615.837
1512178755,526.000,603.700,-180.000,180.000,-147460.000,891660.000,402000.000,-109000.000,-269000.000,182.611,16.013,75.957,-32.506,-139.652,-35.143,-22314.758,-7504.951,-41616.005
1512178755,1518.800,783.000,9.300,132510.000,216980.000,960820.000,402000.000,-109000.000,-269000.000,187.564,160.033,169.271,-57.805,-128.425,-55.805,-22316.223,-7804.955,-41841.148
1512178755,130.200,239.800,352.100,-101500.000,-32710.000,1123110.000,402000.000,-109000.000,-269000.000,146.423,362.964,153.393,-69.447,-104.390,-89.161,-21565.170,-7578.819,-41772.423
1512178755,-1101.200,108.100,706.700,-117860.000,-23620.000,1016720.000,402000.000,-109000.000,-269000.000,-47.035,414.007,121.986,-28.891,-91.344,-172.202,-21338.776,-7278.481,-41699.196
1512178755,-1662.500,172.300,786.400,-128170.000,-255740.000,832640.000,275000.000,-306000.000,-333000.000,-124.821,289.862,177.992,17.412,-65.929,-261.357,-20963.547,-7202.919,-41927.345
1512178755,-282.600,23.700,488.800,-101500.000,-105710.000,827510.000,275000.000,-306000.000,-333000.000,66.176,90.441,157.678,21.630,-26.503,-286.129,-20290.009,-7501.915,-42158.211
1512178755,99.900,-257.900,292.900,-100160.000,-74160.000,984130.000,275000.000,-306000.000,-333000.000,409.973,-46.626,54.511,1.146,-43.478,-235.710,-20440.018,-7502.144,-42156.944
1512178755,524.600,-646.200,217.300,-66830.000,-21300.000,1003230.000,275000.000,-306000.000,-333000.000,447.617,-55.886,-95.290,6.449,-22.779,-151.485,-19989.975,-7501.457,-42085.777
1512178755,-582.000,-345.300,583.800,-186340.000,-66220.000,1101140.000,319000.000,-163000.000,-338000.000,547.325,195.211,-52.461,-9.195,-117.591,-73.234,-20218.384,-8251.808,-42159.203
1512178755,-217.400,-572.200,593.900,-164430.000,-168700.000,977110.000,319000.000,-163000.000,-338000.000,205.767,305.593,43.185,15.162,-121.621,-94.853,-19770.142,-8626.137,-42313.194
1512178755,-322.900,-404.300,546.500,-12880.000,-151310.000,916200.000,319000.000,-163000.000,-338000.000,-221.953,322.813,187.362,60.984,-103.184,-133.996,-19395.554,-8700.569,-42466.423
1512178755,-15.300,-121.000,634.400,-34300.000,-84170.000,1034730.000,319000.000,-163000.000,-338000.000,-443.152,259.143,345.979,114.984,-31.158,-181.237,-19094.589,-8475.121,-42543.861
1512178755,233.700,-267.600,553.300,-69400.000,-22580.000,1042420.000,319000.000,-163000.000,-338000.000,-235.129,75.631,392.058,134.258,83.641,-200.512,-18867.935,-8099.785,-42620.598
1512178755,222.800,-161.700,446.600,-26120.000,-142150.000,968440.000,351000.000,-100000.000,-280000.000,327.072,-91.154,360.179,131.447,135.983,-154.058,-18714.554,-7349.541,-42621.529
1512178755,268.300,-32.500,529.300,-8970.000,-80380.000,977230.000,351000.000,-100000.000,-280000.000,811.490,-260.187,326.100,81.909,143.890,-28.100,-18940.567,-7574.883,-42619.728
1512178755,389.100,-32.500,518.000,-71780.000,-56580.000,1009700.000,351000.000,-100000.000,-280000.000,1052.361,-187.196,333.042,38.697,109.162,139.808,-19091.583,-7800.117,-42618.553
1512178755,173.600,-67.000,390.600,-49070.000,-2140.000,1008970.000,351000.000,-100000.000,-280000.000,960.107,97.901,316.704,-1.594,105.017,244.190,-19169.769,-8550.240,-42243.263
1512178755,218.800,-12.400,309.300,-43760.000,-75380.000,1007020.000,342000.000,-56000.000,-231000.000,753.243,452.322,273.369,-22.905,83.148,241.233,-19172.653,-9150.246,-42618.538
1512178755,453.400,-58.900,340.900,-53280.000,-15990.000,1012210.000,342000.000,-56000.000,-231000.000,461.326,510.509,329.038,19.633,62.295,117.581,-19100.693,-9825.127,-42619.484
1512178755,204.900,-0.700,175.200,-22770.000,20690.000,955020.000,342000.000,-56000.000,-231000.000,242.095,264.181,489.182,69.331,71.793,10.574,-18200.317,-9748.772,-42552.101
1512178755,318.400,-21.200,76.800,34180.000,-5370.000,950740.000,342000.000,-56000.000,-231000.000,129.931,-213.841,673.519,77.045,62.001,-57.644,-17974.564,-9598.442,-42403.954
1512178755,152.900,-25.300,240.400,74950.000,22640.000,1067930.000,342000.000,-56000.000,-231000.000,23.591,-664.024,829.254,58.424,51.384,-8.205,-17900.360,-9748.329,-42629.646
1512178755,-126.400,-57.400,432.800,28140.000,32170.000,1002620.000,426000.000,-7000.000,-154000.000,-143.070,-740.416,975.819,-6.544,26.663,88.473,-19469.696,-8550.682,-42090.721
1512178755,-72.000,11.100,367.600,-151060.000,-185970.000,1123230.000,426000.000,-7000.000,-154000.000,-425.057,-528.362,1019.378,-47.974,40.411,155.455,-20518.982,-8402.260,-42006.721
1512178755,212.900,82.000,137.400,50840.000,8480.000,1009830.000,426000.000,-7000.000,-154000.000,-860.470,-73.090,844.087,-54.357,61.182,148.035,-20812.012,-6827.698,-42228.447
1512178755,136.600,59.100,156.500,-21120.000,-20870.000,1015500.000,426000.000,-7000.000,-154000.000,-1196.815,196.237,243.692,5.865,125.331,189.161,-20612.923,-4239.899,-42341.346
1512178755,-15.300,-26.600,192.500,21240.000,-26000.000,1043270.000,426000.000,-7000.000,-154000.000,-929.163,-251.553,-526.885,39.455,3.881,172.756,-20493.858,-2777.222,-42379.120
1512178755,-153.900,-65.400,247.100,43460.000,-2200.000,1109130.000,477000.000,12000.000,-81000.000,-371.214,-853.845,-451.068,51.280,-88.386,213.886,-21691.674,-2329.017,-42031.219
1512178755,-185.500,-67.600,281.100,-11230.000,-46690.000,1038450.000,477000.000,12000.000,-81000.000,-138.691,128.027,171.367,-7.899,-126.891,237.850,-22364.960,-1955.025,-41987.808
1512178755,53.400,-51.400,306.500,-27400.000,-16360.000,1119020.000,477000.000,12000.000,-81000.000,113.858,270.051,120.085,28.579,-81.594,3.793,-21613.426,-1578.896,-42294.014
1512178755,172.800,-130.000,312.100,-5620.000,17940.000,829410.000,477000.000,12000.000,-81000.000,112.070,195.449,30.783,2.171,-109.906,-94.251,-21314.987,-1878.456,-42709.191
1512178755,164.800,-31.400,310.700,-3300.000,-4700.000,908140.000,470000.000,5000.000,-84000.000,-22.615,183.557,-270.771,-40.451,-121.027,-136.553,-21127.655,-1878.173,-43048.287
1512178755,47.900,32.800,306.300,-21300.000,1220.000,964970.000,470000.000,5000.000,-84000.000,85.133,-127.085,-290.546,-23.787,-139.472,-191.103,-21427.856,-1916.115,-43120.751
1512178755,-20.900,52.300,307.200,60.000,-3360.000,956300.000,470000.000,5000.000,-84000.000,338.681,-422.583,-294.831,-107.202,-151.649,-108.937,-22218.132,-2554.802,-42926.850
1512178755,-19.300,76.200,341.900,-35770.000,16660.000,964360.000,470000.000,5000.000,-84000.000,195.067,24.909,-905.674,-122.204,-12.272,-102.402,-22374.321,-3942.535,-42813.721
1512178755,-94.900,113.100,345.900,-46690.000,-9890.000,945250.000,470000.000,5000.000,-84000.000,-52.720,146.835,-904.043,14.759,52.616,-124.842,-22301.529,-4392.426,-43189.560
1512178756,-231.800,88.300,334.800,-44130.000,-20690.000,973330.000,490000.000,0.000,-89000.000,310.690,147.938,-638.121,36.988,73.463,-91.993,-22078.094,-4729.591,-43266.624
1512178756,-45.000,30.900,341.300,-21240.000,-60360.000,1003850.000,490000.000,0.000,-89000.000,577.973,140.063,-233.441,27.775,45.881,-39.568,-22156.799,-5554.710,-43266.380
1512178756,-71.900,55.000,323.400,7750.000,-76540.000,1005070.000,490000.000,0.000,-89000.000,765.705,44.668,79.172,-4.766,85.373,-18.822,-21635.178,-6303.932,-43271.187
1512178756,-101.300,66.200,289.000,-4150.000,-48890.000,1010010.000,490000.000,0.000,-89000.000,852.950,-15.850,-43.440,-80.323,140.289,5.986,-22015.610,-7504.509,-43343.559
1512178756,-56.600,21.400,251.100,-48650.000,-70740.000,1017520.000,490000.000,0.000,-89000.000,819.863,160.843,-290.629,-79.736,183.656,17.421,-22015.884,-7579.506,-43193.581
1512178756,-5.100,13.700,333.700,-26790.000,-82400.000,1019710.000,486000.000,31000.000,-93000.000,722.927,390.221,-218.741,-15.721,67.080,43.124,-21869.171,-8329.277,-43045.204
1512178756,471.200,-115.700,473.500,-48580.000,-10190.000,1085750.000,486000.000,31000.000,-93000.000,402.949,167.291,-90.897,18.241,68.708,47.292,-21271.347,-8778.389,-43350.517
1512178756,-85.400,249.500,453.100,-33870.000,-44070.000,976200.000,486000.000,31000.000,-93000.000,15.096,-115.253,-115.620,-26.155,119.425,78.117,-21350.067,-9603.508,-43350.258
1512178756,-574.600,483.400,403.600,-22460.000,-3780.000,1016600.000,486000.000,31000.000,-93000.000,-368.382,-217.146,-203.617,-0.613,187.581,79.275,-21573.044,-9153.831,-43348.137
1512178756,-321.700,387.400,322.500,-58110.000,-93020.000,970400.000,467000.000,19000.000,-77000.000,-528.386,-542.102,-213.461,27.058,171.372,52.789,-21871.872,-8929.283,-43045.479
1512178756,-48.300,269.900,291.600,-28320.000,-62190.000,979250.000,467000.000,19000.000,-77000.000,-656.181,-782.736,-169.247,27.164,149.498,65.932,-22319.778,-8479.958,-42891.457
1512178756,123.600,99.300,299.200,-54630.000,-56520.000,1029240.000,467000.000,19000.000,-77000.000,-727.395,-873.733,-121.555,49.314,141.053,132.619,-22916.702,-7805.855,-42811.043
1512178756,160.200,73.200,356.500,17640.000,-108950.000,966310.000,467000.000,19000.000,-77000.000,-692.176,-710.382,-51.182,14.496,88.404,208.111,-23890.579,-7582.314,-42577.660
1512178756,774.000,187.100,380.400,-16420.000,-56760.000,983520.000,467000.000,19000.000,-77000.000,-569.434,-313.913,-40.561,0.633,29.821,239.252,-24562.469,-6908.318,-42421.608
1512178756,115.700,27.300,388.700,-113100.000,72880.000,1002320.000,467000.000,40000.000,-57000.000,-304.884,-3.615,-100.680,-0.269,21.176,217.800,-24788.040,-7058.662,-42194.771
1512178756,-25.400,10.700,350.300,-58960.000,21790.000,1003970.000,467000.000,40000.000,-57000.000,19.561,285.310,-108.833,25.829,16.691,219.264,-24936.768,-6758.888,-42343.346
1512178756,-0.100,0.500,401.700,-81540.000,670.000,1043760.000,467000.000,40000.000,-57000.000,342.182,598.714,-68.952,42.562,8.754,266.382,-24486.420,-6683.205,-42347.145
1512178756,93.700,187.400,462.200,-61650.000,-25390.000,978030.000,467000.000,40000.000,-57000.000,493.750,802.843,-6.348,61.404,38.498,243.258,-24186.310,-6607.750,-42799.644
1512178756,511.900,268.300,411.700,-6100.000,11540.000,1047610.000,467000.000,40000.000,-57000.000,463.929,669.288,-14.708,48.893,63.467,252.280,-23442.566,-7956.642,-43181.648
1512178756,72.200,71.500,338.400,-55660.000,-47790.000,958560.000,441000.000,35000.000,-42000.000,354.839,676.689,-56.770,77.364,31.275,310.586,-22768.356,-8105.629,-43412.453
1512178756,77.000,24.600,261.400,-8060.000,-14710.000,989930.000,441000.000,35000.000,-42000.000,201.000,791.079,-225.975,65.099,65.482,377.567,-22471.283,-8705.177,-43865.273
1512178756,-31.300,16.800,140.700,-52610.000,20570.000,1048950.000,441000.000,35000.000,-42000.000,-90.227,1077.116,-329.408,119.636,181.640,423.311,-21645.416,-8478.951,-44172.188
1512178756,-161.800,117.300,122.100,-64880.000,1160.000,1051820.000,441000.000,35000.000,-42000.000,-272.160,1413.588,-464.130,181.348,185.706,386.541,-19395.554,-8400.566,-45166.267
1512178756,-250.500,172.000,21.700,-56640.000,28630.000,987430.000,469000.000,52000.000,-69000.000,-329.178,1413.951,-690.958,238.131,326.270,342.657,-18195.938,-8398.766,-45926.460
1512178756,-487.500,224.100,-228.100,-41440.000,21120.000,956180.000,469000.000,52000.000,-69000.000,-413.159,2250.618,-890.749,292.353,401.428,571.862,-14821.518,-8431.213,-46817.665
1512178756,-185.900,28.000,-292.100,-82890.000,19470.000,998660.000,469000.000,52000.000,-69000.000,-1225.181,4757.107,-1498.247,369.229,596.013,589.119,-7016.480,-7069.504,-48983.323
1512178756,-307.100,-56.900,-222.100,-69400.000,-59080.000,998230.000,469000.000,52000.000,-69000.000,-2018.416,4650.629,-2014.889,631.211,661.936,-75.748,3385.208,-3791.397,-50120.102
1512178756,-404.400,-19.600,-50.600,-80990.000,-60240.000,972530.000,469000.000,52000.000,-69000.000,-1862.757,3766.100,-1865.398,563.822,658.977,-79.460,11655.617,683.502,-49588.165
1512178756,-422.000,33.700,34.500,-137880.000,-69210.000,962590.000,569000.000,68000.000,-64000.000,-2559.738,3146.251,-1714.544,474.062,647.525,-51.498,18355.492,6018.562,-47842.438
1512178756,-187.100,-48.600,38.200,-56640.000,-59810.000,1001040.000,569000.000,68000.000,-64000.000,-3472.872,2572.088,-1610.376,298.346,610.329,-161.581,23225.983,13038.360,-45030.335
1512178756,212.400,-39.800,40.700,-80990.000,-65980.000,1040410.000,569000.000,68000.000,-64000.000,-3646.240,2254.333,-1487.662,160.621,473.950,-352.440,26602.028,21143.433,-40892.479
1512178756,129.400,70.600,-70.600,-100100.000,-47610.000,1025700.000,569000.000,68000.000,-64000.000,-3938.976,1791.385,-1504.176,73.752,409.033,-464.437,28476.998,28871.223,-35504.555
1512178756,692.700,-18.800,-187.500,-35520.000,12570.000,1028080.000,611000.000,61000.000,-23000.000,-3228.414,2006.818,-1593.343,150.690,259.949,-638.406,28810.280,35546.730,-29016.540
1512178756,222.600,-153.900,-27.400,-55600.000,-86550.000,993770.000,611000.000,61000.000,-23000.000,-2089.165,1552.059,-1399.320,204.390,78.846,-807.114,28795.822,40046.707,-23426.674
1512178756,-276.000,50.100,166.400,-104130.000,-30270.000,965390.000,611000.000,61000.000,-23000.000,-1416.297,793.882,-1545.191,201.058,-195.417,-768.106,27088.089,43419.144,-19247.963
1512178756,-305.900,-206.900,62.900,-61340.000,-4150.000,1066280.000,611000.000,61000.000,-23000.000,-1024.614,212.511,-1373.632,322.381,-387.351,-674.871,25037.606,45816.070,-16791.847
1512178756,-208.400,-138.500,222.000,-8360.000,-163330.000,991270.000,611000.000,61000.000,-23000.000,-694.649,28.005,-996.375,443.917,-466.449,-618.206,22535.446,47949.814,-15307.007
1512178757,5.500,131.800,363.300,-107360.000,-50960.000,1017030.000,653000.000,72000.000,0.000,-452.697,-215.195,-714.406,494.569,-524.297,-619.535,21376.465,48660.576,-14659.294
1512178757,133.000,358.600,262.300,-220830.000,-99490.000,881900.000,653000.000,72000.000,0.000,-282.195,-422.540,-527.166,521.533,-563.060,-610.801,20703.308,49034.569,-14353.386
1512178757,299.500,489.200,254.600,-49930.000,-180.000,1108090.000,653000.000,72000.000,0.000,-87.141,-673.760,-278.955,547.166,-603.598,-588.507,20328.537,49109.001,-14575.172
1512178757,91.500,239.300,288.700,-46020.000,43760.000,965390.000,653000.000,72000.000,0.000,168.311,-754.031,0.579,574.109,-584.281,-516.099,20101.730,48808.662,-15473.396
1512178757,542.900,39.900,45.000,-88500.000,31680.000,989440.000,653000.000,72000.000,0.000,473.817,-738.923,157.502,588.988,-516.165,-461.182,20328.827,49334.007,-16000.053
1512178757,550.200,-3.900,57.500,-91980.000,-10010.000,1055540.000,609000.000,14000.000,-25000.000,779.680,-529.252,237.283,620.525,-468.605,-380.161,20703.278,49334.572,-17128.242
1512178757,355.800,-1.900,39.700,-84350.000,46880.000,1093380.000,609000.000,14000.000,-25000.000,1074.625,-203.198,339.705,666.142,-404.928,-342.854,20924.606,48659.904,-18405.464
1512178757,385.500,-372.700,-182.200,-170470.000,15500.000,1286380.000,609000.000,14000.000,-25000.000,1462.046,109.769,652.370,681.879,-455.044,-363.562,21445.129,47835.686,-19910.301
1512178757,195.600,-915.900,-77.200,-86610.000,19170.000,1202510.000,609000.000,14000.000,-25000.000,1831.671,350.792,1134.024,668.079,-428.486,-376.173,22488.831,46637.245,-21719.765
1512178757,17.600,-1091.200,276.700,28990.000,107540.000,1153560.000,493000.000,-144000.000,89000.000,2062.262,404.761,1569.305,617.855,-286.184,-364.947,24430.176,44915.154,-23537.132
1512178757,-651.700,-1334.200,336.500,-94910.000,-57130.000,1053770.000,493000.000,-144000.000,89000.000,2269.988,477.183,1841.216,548.481,-157.263,-335.200,26293.564,42517.952,-25204.170
1512178757,-1163.400,-1404.000,298.300,-66160.000,-171450.000,935000.000,493000.000,-144000.000,89000.000,2472.270,533.681,2053.287,491.141,-53.936,-320.236,28306.305,39970.970,-26797.539
1512178757,-1611.900,-906.100,52.300,25760.000,-210630.000,786620.000,493000.000,-144000.000,89000.000,2613.612,435.196,2269.270,435.826,43.049,-304.390,31725.525,33451.103,-29679.878
1512178757,-310.400,-443.900,-528.400,42600.000,-144410.000,659730.000,493000.000,-144000.000,89000.000,2670.341,253.355,2441.097,351.685,104.591,-259.883,31725.525,33451.103,-29679.878
1512178757,1185.400,335.300,-1039.200,167180.000,-24600.000,760070.000,426000.000,-342000.000,38000.000,2588.127,229.206,2706.336,369.164,129.323,-122.657,33360.031,30153.557,-30970.406
1512178757,1233.200,1264.700,-822.000,72270.000,-25570.000,794860.000,426000.000,-342000.000,38000.000,2422.045,104.694,2880.462,266.301,233.445,-126.911,34541.321,26105.324,-31957.481
1512178757,847.700,1930.500,-672.700,-11600.000,47300.000,898190.000,426000.000,-342000.000,38000.000,2194.746,13.404,2954.674,270.316,351.888,-67.885,35500.244,22581.779,-32417.397
1512178757,-258.300,97.300,33.300,-57310.000,124020.000,1206910.000,426000.000,-342000.000,38000.000,2004.422,-91.630,2983.531,247.936,490.169,-51.731,36609.085,19058.434,-33028.572
1512178757,-152.500,-104.000,151.400,-29110.000,60240.000,1017760.000,426000.000,-342000.000,38000.000,1886.514,-196.434,2952.675,196.199,616.989,-18.009,37494.690,15909.767,-33487.679
1512178757,-853.300,23.400,224.200,-13980.000,18620.000,1029790.000,365000.000,-273000.000,3000.000,1764.917,-255.115,2824.915,114.783,686.355,12.285,37703.781,12385.078,-33566.231
1512178757,-47.100,-92.800,180.400,-53100.000,-50110.000,1025150.000,365000.000,-273000.000,3000.000,1641.044,-304.077,2641.722,31.613,701.608,42.056,37687.317,8785.057,-34092.888
1512178757,-502.100,26.000,73.800,-50110.000,-108760.000,1001040.000,365000.000,-273000.000,3000.000,1513.937,-356.259,2459.532,-48.775,705.404,67.931,37602.829,6684.929,-34168.205
1512178757,-963.300,57.000,-224.100,-48650.000,-127500.000,990480.000,365000.000,-273000.000,3000.000,1402.249,-322.906,2252.281,-121.319,698.758,102.100,37816.666,4210.243,-34246.269
1512178757,-1213.600,-19.400,-500.400,-18800.000,-61460.000,1041440.000,365000.000,-237000.000,-6000.000,1340.594,-197.624,2054.606,-162.463,691.897,119.437,36970.459,-516.014,-34091.438
1512178757,364.600,-349.900,-661.300,1340.000,-37230.000,1021910.000,365000.000,-237000.000,-6000.000,1352.367,-25.258,1865.615,-190.892,722.510,125.682,36812.317,-2316.261,-34165.993
1512178757,16.400,-205.700,-403.900,-58530.000,-14100.000,1015080.000,365000.000,-237000.000,-6000.000,1406.762,195.112,1745.639,-205.150,737.164,144.284,36728.317,-4341.393,-33941.292
1512178757,-111.900,-138.900,245.800,-28750.000,-54080.000,1005130.000,365000.000,-237000.000,-6000.000,1424.313,507.999,1536.968,-238.867,790.684,160.900,36715.362,-7303.909,-33192.666
1512178757,345.400,-132.900,513.100,33630.000,20080.000,1022090.000,365000.000,-237000.000,-6000.000,1187.656,712.004,1093.967,-303.012,832.221,154.638,36851.776,-10491.203,-31695.419
1512178757,-79.100,60.600,237.700,7390.000,220700.000,962160.000,309000.000,-230000.000,47000.000,752.279,271.414,193.302,-376.338,839.653,160.110,36656.395,-12366.493,-30569.687
1512178757,139.700,-66.600,683.800,-156800.000,-102480.000,1039490.000,309000.000,-230000.000,47000.000,527.341,434.522,-897.837,-300.172,795.766,301.600,37070.107,-12178.375,-29860.619
1512178757,183.100,-81.800,695.200,-89720.000,-75870.000,1018430.000,309000.000,-230000.000,47000.000,-670.423,756.119,-1589.952,-164.764,858.028,291.907,38616.928,-10226.052,-28785.286
1512178757,36.900,-14.600,551.400,-91610.000,-37480.000,1047420.000,309000.000,-230000.000,47000.000,-2409.492,269.548,-2658.910,-55.578,844.448,96.878,39837.623,-5649.216,-28568.382
1512178757,-12.800,10.400,392.900,-20200.000,-77030.000,1041320.000,309000.000,-230000.000,47000.000,-3062.885,-93.725,-3394.028,151.865,715.248,-75.166,40320.931,1776.505,-28793.770
1512178757,5.900,17.300,319.800,32650.000,-15320.000,991880.000,318000.000,-204000.000,86000.000,-2323.407,25.234,-3560.400,338.166,566.193,-133.383,39382.889,9912.598,-28106.728
1512178757,-628.200,-150.200,253.300,-154420.000,-109250.000,1119320.000,318000.000,-204000.000,86000.000,-1066.111,738.049,-3292.379,320.082,259.003,-98.406,38135.132,15835.724,-26930.664
1512178757,-822.100,-65.400,160.900,28020.000,-79900.000,1029850.000,318000.000,-204000.000,86000.000,-463.747,1078.869,-2858.174,229.460,-54.802,-119.269,36921.173,20858.902,-25042.831
1512178757,-292.900,59.800,366.700,-41630.000,-125550.000,921390.000,318000.000,-204000.000,86000.000,-1059.011,430.814,-2413.315,224.619,-203.077,-183.435,35439.224,24681.679,-23340.820
1512178757,779.200,83.900,330.200,-43760.000,-108520.000,906430.000,337000.000,-206000.000,54000.000,-1693.631,-432.781,-2112.090,243.798,-245.731,-246.354,32683.571,28802.536,-21740.341
1512178758,1076.800,-8.700,143.500,-66410.000,180.000,1396790.000,337000.000,-206000.000,54000.000,-1697.167,-689.083,-1877.967,240.380,-334.745,-270.341,30745.911,31424.629,-20672.554
1512178758,-75.500,-8.100,157.900,-38090.000,-71290.000,908940.000,337000.000,-206000.000,54000.000,-1506.413,-720.157,-1681.289,253.608,-394.246,-278.066,29102.692,32847.160,-19907.875
1512178758,-64.400,-22.900,160.300,-71590.000,-64940.000,1006960.000,337000.000,-206000.000,54000.000,-1306.426,-664.620,-1523.622,277.720,-412.789,-255.207,27534.439,34269.814,-19218.849
1512178758,-308.400,-46.200,150.100,-61040.000,-57800.000,1016540.000,337000.000,-206000.000,54000.000,-1164.430,-556.755,-1401.790,344.447,-391.876,-229.484,26414.001,35243.126,-18833.824
1512178758,-632.400,-41.000,161.900,-47670.000,-55480.000,1044250.000,326000.000,-188000.000,50000.000,-1026.492,-458.351,-1356.804,435.533,-335.989,-229.583,25294.449,36366.447,-18073.753
1512178758,-1059.100,-43.800,195.200,-58900.000,-95400.000,969420.000,326000.000,-188000.000,50000.000,-805.932,-310.636,-1343.503,509.087,-352.223,-233.730,23724.731,37489.098,-17609.840
1512178758,-918.900,-79.100,324.500,-24230.000,-39430.000,908020.000,326000.000,-188000.000,50000.000,-560.394,-130.908,-1291.348,589.081,-408.326,-237.418,23126.816,37938.210,-17454.536
1512178758,-1299.600,-95.900,360.600,-53830.000,-149350.000,1019840.000,326000.000,-188000.000,50000.000,-346.429,-3.773,-1137.494,661.894,-469.625,-252.131,21778.473,38236.183,-16842.934
1512178758,-1234.800,-121.700,541.800,-27770.000,-186830.000,970030.000,326000.000,-188000.000,50000.000,-156.732,84.782,-935.083,733.414,-540.497,-270.594,20956.619,38909.950,-16610.603
1512178758,-88.700,-122.900,651.000,-6710.000,-144710.000,783630.000,395000.000,-193000.000,28000.000,17.608,165.657,-642.306,829.011,-532.407,-263.289,19831.680,38908.257,-16451.042
1512178758,457.700,-87.800,580.800,-59750.000,-193910.000,1108400.000,395000.000,-193000.000,28000.000,216.981,76.421,-195.180,900.784,-496.267,-267.574,19384.460,39507.591,-16296.944
1512178758,-8.300,1.500,568.100,-14950.000,-241030.000,941040.000,395000.000,-193000.000,28000.000,406.699,-77.990,252.646,951.217,-436.915,-251.731,19608.643,39357.918,-16598.930
1512178758,205.500,-64.200,505.600,-23800.000,-222900.000,978390.000,395000.000,-193000.000,28000.000,618.061,-262.244,678.289,941.989,-363.499,-213.627,19830.902,38758.263,-16676.109
1512178758,118.500,-39.500,186.000,-59330.000,-191830.000,965210.000,412000.000,-179000.000,55000.000,854.647,-358.917,1130.189,814.984,-428.595,-160.348,20127.869,38158.699,-17353.935
1512178758,228.500,-52.600,-15.300,-133670.000,-181640.000,1005430.000,412000.000,-179000.000,55000.000,1090.760,-253.774,1621.164,638.507,-514.897,-98.560,20497.513,37034.264,-17957.634
1512178758,314.800,-48.700,-43.700,-98140.000,-188840.000,1044070.000,412000.000,-179000.000,55000.000,1250.730,-2.216,2017.734,487.150,-456.955,-48.343,21845.078,36586.281,-18794.319
1512178758,-18.000,57.700,23.700,-81300.000,-199160.000,985350.000,412000.000,-179000.000,55000.000,1315.379,299.730,2249.992,373.441,-325.668,-31.082,23411.224,34713.631,-19633.568
1512178758,-96.500,64.600,-45.700,-59080.000,-164060.000,1006650.000,412000.000,-179000.000,55000.000,1330.985,538.830,2349.125,300.442,-181.985,-53.021,25280.197,33441.429,-20250.084
1512178758,88.300,3.700,-104.700,-72630.000,-135860.000,979740.000,419000.000,-179000.000,62000.000,1371.191,695.869,2375.842,259.276,-64.935,-97.685,26322.876,31867.989,-20709.740
1512178758,87.400,-14.800,-140.200,-90520.000,-180600.000,963500.000,419000.000,-179000.000,62000.000,1443.488,754.698,2389.884,240.211,28.215,-146.199,28338.547,29846.016,-21177.895
1512178758,-115.300,51.300,-56.100,-82150.000,-184390.000,968870.000,419000.000,-179000.000,62000.000,1530.151,702.407,2433.603,217.755,88.709,-168.793,29528.610,27672.798,-21489.082
1512178758,154.200,-3.100,30.800,-54440.000,-194460.000,965820.000,419000.000,-179000.000,62000.000,1599.769,600.956,2473.703,177.610,135.767,-169.528,31549.225,26700.829,-21506.752
1512178758,272.600,-29.400,-39.500,-75560.000,-194820.000,969540.000,419000.000,-179000.000,62000.000,1611.921,582.737,2511.126,144.825,189.621,-133.985,34603.729,22205.437,-22059.959
1512178758,254.500,-25.800,-16.400,-148740.000,-193850.000,1002870.000,421000.000,-195000.000,60000.000,1515.393,584.652,2545.977,126.943,265.118,-110.207,35568.787,20031.883,-22369.255
1512178758,145.400,7.500,-26.900,-107730.000,-171140.000,983580.000,421000.000,-195000.000,60000.000,1331.454,518.083,2578.263,101.285,339.485,-103.859,36908.432,17708.885,-22156.792
1512178758,375.000,-61.500,-16.000,-98210.000,-152400.000,1014220.000,421000.000,-195000.000,60000.000,1122.199,407.714,2591.905,67.739,405.928,-105.220,37650.681,15985.008,-22163.963
1512178758,454.300,-88.700,-30.800,-117130.000,-136110.000,1034120.000,421000.000,-195000.000,60000.000,913.510,187.867,2597.710,-20.970,473.542,-112.251,38798.416,12686.722,-22025.368
1512178758,357.500,-52.500,-27.300,-102660.000,-121580.000,1029850.000,395000.000,-197000.000,69000.000,722.735,-18.180,2390.611,-170.129,549.161,-97.025,39605.744,8787.933,-22259.186
1512178758,412.800,-36.200,-17.300,-100100.000,-127260.000,1128540.000,395000.000,-197000.000,69000.000,574.048,-93.878,1932.988,-285.623,608.389,-65.582,39964.264,5150.970,-22489.052
1512178758,231.300,-7.200,-19.300,-112850.000,-128660.000,1034850.000,395000.000,-197000.000,69000.000,514.116,36.517,1306.796,-332.846,681.985,-49.019,40403.672,2789.124,-22418.968
1512178758,-11.300,-4.000,-26.100,-125180.000,-131230.000,981450.000,395000.000,-197000.000,69000.000,521.295,137.169,650.559,-324.259,709.756,-49.135,40246.635,1176.391,-21968.437
1512178758,123.000,-9.600,-51.100,-119380.000,-107970.000,1010380.000,395000.000,-197000.000,69000.000,315.466,27.976,67.792,-314.217,711.723,-20.723,40204.391,126.335,-22006.103
1512178758,19.800,31.000,-45.700,-76050.000,-109740.000,1024600.000,370000.000,-179000.000,86000.000,163.940,101.422,-727.293,-228.166,757.567,50.695,40771.751,1177.186,-21747.901
1512178758,49.900,32.100,-4.900,-73910.000,-142880.000,964720.000,370000.000,-179000.000,86000.000,-348.906,234.007,-1459.715,-134.403,812.876,78.065,40853.752,2677.300,-21260.353
1512178758,-65.400,33.400,7.200,-58650.000,-139830.000,998780.000,370000.000,-179000.000,86000.000,-979.947,-184.651,-2260.267,-183.688,532.846,28.094,40681.122,5977.043,-21219.735
1512178758,-152.500,46.300,35.600,-155270.000,-101870.000,1005680.000,370000.000,-179000.000,86000.000,-950.476,-220.133,-2658.666,-38.446,338.014,71.772,39539.162,10512.833,-20945.259
1512178758,-33.200,31.600,-36.100,-151980.000,-92770.000,997440.000,384000.000,-186000.000,82000.000,-1138.634,-216.280,-2594.219,153.351,339.230,102.189,38134.598,15010.727,-20556.069
1512178758,24.000,24.000,-71.000,-104430.000,-125120.000,1034180.000,384000.000,-186000.000,82000.000,-1290.172,-242.823,-2520.815,210.170,229.861,-5.394,36204.010,19245.331,-19862.541
1512178759,-83.400,37.200,-77.600,-102170.000,-117740.000,1011540.000,384000.000,-186000.000,82000.000,-1326.771,-484.630,-2349.485,159.346,28.748,-87.080,34456.467,22505.211,-19283.562
1512178759,74.300,30.500,-75.500,-101810.000,-119260.000,1000730.000,384000.000,-186000.000,82000.000,-1207.538,-596.999,-2150.927,109.243,-115.229,-107.897,33338.287,24003.532,-19123.314
1512178759,85.800,24.200,-86.300,-128660.000,-133480.000,1014590.000,384000.000,-186000.000,82000.000,-1034.487,-619.635,-1915.033,72.117,-215.299,-88.616,31995.819,25651.512,-18886.070
1512178759,98.000,11.100,-95.500,-117490.000,-144230.000,1027770.000,383000.000,-199000.000,71000.000,-904.844,-526.951,-1692.161,47.945,-256.685,-53.395,30503.052,27224.266,-18572.594
1512178759,-11.300,29.300,-80.400,-123900.000,-98020.000,1016170.000,383000.000,-199000.000,71000.000,-809.021,-352.969,-1546.247,37.223,-261.912,-28.109,29457.855,28272.697,-18413.185
1512178759,24.100,11.500,-95.700,-121950.000,-113460.000,984310.000,383000.000,-199000.000,71000.000,-671.584,-136.071,-1465.677,40.621,-274.815,-36.109,28862.717,29321.800,-18107.597
1512178759,122.800,1.700,-96.400,-123660.000,-108700.000,989380.000,383000.000,-199000.000,71000.000,-448.529,53.222,-1407.420,79.680,-295.162,-62.012,28041.702,30145.576,-17575.218
1512178759,94.000,10.100,-94.100,-137390.000,-111760.000,970460.000,383000.000,-199000.000,71000.000,-260.938,86.360,-1274.528,129.085,-327.514,-95.412,26994.461,30743.996,-17416.008
1512178759,32.000,10.900,-71.100,-88200.000,-138180.000,987610.000,367000.000,-193000.000,79000.000,-292.050,-74.181,-1141.214,163.857,-328.489,-96.925,26248.962,31717.888,-17184.196
1512178759,71.600,5.300,-61.000,-146420.000,-108150.000,1024540.000,367000.000,-193000.000,79000.000,-488.983,-291.397,-1104.312,195.495,-294.244,-75.704,25351.822,32316.536,-16876.259
1512178759,4.900,8.500,-102.500,-91740.000,-86240.000,964840.000,367000.000,-193000.000,79000.000,-678.791,-425.204,-1107.526,256.144,-281.470,-54.984,24828.537,32690.758,-16796.623
1512178759,119.700,-18.600,-92.700,-167970.000,-109370.000,1063840.000,367000.000,-193000.000,79000.000,-784.700,-495.908,-1089.054,325.128,-265.325,-60.691,23632.065,33438.957,-16486.076
1512178759,-18.800,2.900,-44.700,-168030.000,-101440.000,897520.000,367000.000,-197000.000,82000.000,-814.842,-531.233,-1072.554,409.054,-243.680,-67.056,22886.002,34262.840,-16029.335
1512178759,136.000,-19.700,3.600,-99490.000,-107790.000,995300.000,367000.000,-197000.000,82000.000,-751.622,-475.682,-1024.537,477.612,-243.180,-65.949,21764.191,34936.165,-15719.460
1512178759,53.100,-9.700,-56.700,-97350.000,-120850.000,1064700.000,367000.000,-197000.000,82000.000,-598.827,-365.648,-911.071,536.254,-290.960,-78.960,20794.250,35984.703,-15035.698
1512178759,-13.400,11.300,-28.100,-75990.000,-118840.000,1077030.000,367000.000,-197000.000,82000.000,-400.523,-286.691,-714.969,582.727,-348.738,-98.956,20420.670,36284.142,-14882.362
1512178759,-68.600,12.400,16.800,-135740.000,-118350.000,929930.000,367000.000,-197000.000,82000.000,-197.516,-249.449,-481.627,611.950,-400.023,-113.491,19597.122,36582.909,-14650.215
1512178759,-21.300,-22.400,-9.500,-115600.000,-125240.000,940920.000,368000.000,-192000.000,71000.000,10.586,-132.124,-230.878,673.427,-393.690,-100.733,19147.842,36732.231,-14571.312
1512178759,19.000,3.100,-27.800,-74830.000,-129640.000,992610.000,368000.000,-192000.000,71000.000,192.868,-23.415,33.324,766.758,-314.099,-88.629,18923.141,36806.892,-14644.371
1512178759,35.800,6.000,-82.600,-156310.000,-166870.000,1091190.000,368000.000,-192000.000,71000.000,315.416,9.367,296.397,851.453,-185.398,-75.879,18698.105,36806.557,-14717.461
1512178759,-45.000,26.200,-86.300,-100770.000,-107420.000,1038510.000,368000.000,-192000.000,71000.000,447.035,-60.564,650.927,830.306,-187.706,-76.292,18919.800,36131.889,-15244.682
1512178759,-96.100,14.400,-112.500,-131290.000,-55110.000,981930.000,368000.000,-192000.000,71000.000,598.018,-85.839,1126.357,709.184,-320.320,-68.797,19971.008,36433.464,-15553.459
1512178759,87.100,-30.900,-108.100,-162540.000,-122310.000,1027280.000,368000.000,-209000.000,77000.000,658.489,-38.614,1598.594,565.835,-340.910,-55.322,21166.840,35535.255,-15789.085
1512178759,-18.800,-16.900,151.700,-85630.000,-102480.000,977600.000,368000.000,-209000.000,77000.000,648.058,66.503,1913.297,469.206,-254.089,-45.046,22437.195,34562.172,-16325.356
1512178759,63.400,-20.100,217.700,1160.000,-163700.000,1033020.000,368000.000,-209000.000,77000.000,670.575,151.487,2167.639,387.152,-171.412,-60.160,23857.025,33439.293,-16562.996
1512178759,-16.900,-0.800,150.700,-121220.000,-140440.000,955440.000,368000.000,-209000.000,77000.000,692.064,143.558,2416.317,308.791,-89.240,-96.626,25578.049,32616.875,-17103.035
1512178759,-17.600,3.700,77.500,-113710.000,-142460.000,1010500.000,391000.000,-197000.000,62000.000,697.423,-48.600,2631.603,168.481,45.760,-121.717,27931.519,30670.403,-17649.010
1512178759,-18.200,13.300,10.700,-118960.000,-138060.000,1053650.000,391000.000,-197000.000,62000.000,833.192,-126.854,2604.514,7.161,168.099,-93.089,30693.077,27824.554,-18911.408
1512178759,-59.100,23.600,-63.900,-97110.000,-140930.000,974980.000,391000.000,-197000.000,62000.000,886.518,-96.073,2475.334,-73.642,298.467,-61.163,33040.177,24490.577,-19720.520
1512178759,45.900,-3.100,-82.800,-113530.000,-107180.000,1013670.000,391000.000,-197000.000,62000.000,736.976,-192.552,2262.285,-162.695,400.756,-26.530,35237.458,21231.384,-20828.331
1512178759,21.700,-10.800,-107.200,-140690.000,-89050.000,1006590.000,391000.000,-197000.000,62000.000,566.745,-275.320,1849.630,-297.477,445.914,3.476,36123.322,18195.206,-21774.879
1512178759,-0.300,-6.500,-129.800,-148380.000,-71960.000,969240.000,404000.000,-188000.000,77000.000,525.429,-130.672,1323.969,-381.536,430.420,23.910,36974.556,15796.486,-22720.825
1512178759,9.100,2.900,-42.700,-112180.000,-91860.000,997130.000,404000.000,-188000.000,77000.000,390.755,2.948,898.722,-381.522,470.163,53.756,37604.165,14072.434,-22989.532
1512178759,28.000,1.100,100.100,-68970.000,-132260.000,1015140.000,404000.000,-188000.000,77000.000,107.831,61.296,345.808,-351.897,531.382,70.024,37936.966,13060.432,-23292.870
1512178759,-11.600,-3.900,209.200,-98690.000,-140690.000,984440.000,404000.000,-188000.000,77000.000,-235.204,31.913,-186.963,-293.506,557.084,60.441,37937.522,13172.935,-23180.313
1512178759,20.600,-3.600,139.400,-148380.000,-112430.000,1014040.000,404000.000,-188000.000,77000.000,-440.341,64.328,-804.406,-188.761,582.367,73.132,37829.781,14222.771,-23103.874
1512178759,-2.900,-5.300,19.300,-135380.000,-122680.000,931270.000,428000.000,-202000.000,60000.000,-699.524,200.650,-1339.117,-11.802,720.597,90.263,37239.113,16246.887,-22647.835
1512178759,28.500,-7.100,-18.600,-146550.000,-133790.000,944950.000,428000.000,-202000.000,60000.000,-950.313,-17.383,-2011.926,-67.496,407.975,17.606,36389.458,19020.615,-21926.727
1512178760,37.800,0.000,-13.800,-103820.000,-97290.000,970950.000,428000.000,-202000.000,60000.000,-574.249,76.059,-2251.349,37.657,129.511,6.643,34976.318,21605.995,-21463.417
1512178760,-35.800,-5.200,-14.400,-153630.000,-95520.000,965450.000,428000.000,-202000.000,60000.000,-217.238,208.782,-2108.192,161.254,87.808,50.689,33858.414,23179.314,-21453.133
1512178760,16.600,-17.300,-77.000,-174500.000,-121340.000,1038090.000,414000.000,-199000.000,88000.000,-24.226,406.170,-1843.525,245.368,69.245,103.101,33264.786,24528.404,-20847.420
1512178760,-49.800,2.000,-89.600,-155400.000,-57310.000,984920.000,414000.000,-199000.000,88000.000,-72.632,575.360,-1550.472,284.431,83.853,112.109,32295.105,25726.952,-20988.579
1512178760,-77.100,8.500,-161.400,-145630.000,-109070.000,944150.000,414000.000,-199000.000,88000.000,-356.103,474.031,-1302.273,271.530,75.712,48.394,31846.085,25876.274,-20384.682
1512178760,147.900,-28.400,-104.500,-153200.000,-89420.000,1022280.000,414000.000,-199000.000,88000.000,-728.258,83.211,-1121.399,194.701,2.973,-39.805,31328.064,27375.496,-19929.527
1512178760,111.900,-15.600,-85.500,-144650.000,-56880.000,963810.000,414000.000,-199000.000,88000.000,-1000.847,-423.827,-971.467,104.023,-108.849,-102.642,30884.354,28724.831,-19475.090
1512178760,7.600,4.000,-140.100,-143130.000,-79410.000,963130.000,414000.000,-206000.000,71000.000,-1088.028,-815.239,-810.985,18.622,-192.510,-102.628,29834.244,28648.262,-19016.197
1512178760,42.200,-21.600,-113.900,-98140.000,-137450.000,1019650.000,414000.000,-206000.000,71000.000,-1019.678,-938.207,-695.289,-44.787,-234.738,-54.295,29163.666,29622.261,-18935.005
1512178760,58.100,-19.300,-84.800,-128780.000,-97350.000,1006960.000,414000.000,-206000.000,71000.000,-865.865,-832.322,-643.653,-72.071,-230.480,-0.212,28417.709,30521.141,-18928.215
1512178760,73.500,-17.400,-52.700,-143490.000,-87590.000,1002440.000,414000.000,-206000.000,71000.000,-660.247,-602.385,-624.951,-82.930,-218.783,29.501,27446.838,31419.685,-18769.524
1512178760,25.600,-17.600,-73.600,-119510.000,-86730.000,990110.000,425000.000,-206000.000,81000.000,-424.570,-354.215,-617.474,-77.204,-230.528,31.396,26849.228,31943.779,-18689.171
1512178760,-43.100,-8.500,-103.900,-97600.000,-112850.000,992680.000,425000.000,-206000.000,81000.000,-216.824,-181.944,-600.002,-78.014,-260.265,31.136,26551.025,32318.336,-18461.464
1512178760,-72.300,-1.600,-169.900,-158450.000,-72080.000,927370.000,425000.000,-206000.000,81000.000,-79.557,-43.990,-579.417,-77.141,-301.386,48.444,25953.400,32842.445,-18456.108
1512178760,-55.500,-5.600,-235.800,-125490.000,-60670.000,1060000.000,425000.000,-206000.000,81000.000,-12.998,125.870,-534.151,-65.208,-333.418,75.929,25502.609,32691.765,-18677.361
1512178760,-72.700,-10.700,-173.200,-134460.000,-133480.000,1064090.000,425000.000,-206000.000,81000.000,-37.177,280.618,-482.793,-16.312,-333.471,82.033,25503.357,32841.774,-18527.290
1512178760,-92.100,-9.300,-53.000,-138310.000,-101260.000,969670.000,425000.000,-213000.000,71000.000,-145.130,324.209,-463.952,49.225,-276.936,68.577,25054.749,33141.090,-18448.326
1512178760,21.200,-33.400,-69.200,-148740.000,-82280.000,978390.000,425000.000,-213000.000,71000.000,-325.207,224.741,-538.332,121.306,-214.592,34.209,24831.345,33440.758,-17921.272
1512178760,-74.800,-21.700,-100.800,-130130.000,-69210.000,939820.000,425000.000,-213000.000,71000.000,-523.348,88.941,-617.361,211.380,-157.358,13.839,24758.911,33965.645,-17545.403
1512178760,8.700,-16.500,-131.600,-102600.000,-191160.000,975830.000,425000.000,-213000.000,71000.000,-675.894,-17.047,-616.743,306.765,-106.835,-9.538,24009.583,34114.525,-17538.963
1512178760,-34.000,-14.800,-91.100,-147770.000,-96070.000,977780.000,425000.000,-213000.000,71000.000,-684.885,-77.061,-527.535,373.580,-105.847,-45.863,23712.540,34714.088,-17011.131
1512178760,-222.100,45.300,-30.100,-137330.000,-123720.000,934880.000,414000.000,-227000.000,88000.000,-573.669,-103.807,-420.477,407.374,-113.249,-80.923,22968.643,35987.968,-16254.173
1512178760,-87.200,-8.300,31.000,-125550.000,-137330.000,949280.000,414000.000,-227000.000,88000.000,-387.910,-88.795,-306.864,452.674,-113.137,-102.024,22668.839,35987.511,-15876.625
1512178760,293.500,-99.900,-109.900,-107670.000,-101930.000,1019040.000,414000.000,-227000.000,88000.000,-196.989,-104.764,-183.687,523.385,-54.892,-105.897,22519.211,36062.294,-15800.316
1512178760,-52.100,-6.300,-139.800,-119140.000,-105040.000,1097410.000,414000.000,-227000.000,88000.000,-17.631,-135.693,-72.461,589.670,33.584,-84.167,22370.117,36287.071,-16023.933
1512178760,-394.900,84.000,-1.500,-135310.000,-99490.000,979980.000,398000.000,-232000.000,72000.000,194.535,-58.590,-5.154,612.617,99.216,-47.716,22294.662,36211.952,-16248.329
1512178760,-76.800,-3.700,-8.300,-105900.000,-116580.000,934750.000,398000.000,-232000.000,72000.000,578.291,118.385,199.310,457.923,-101.993,-35.834,22219.101,36136.841,-16697.724
1512178760,114.800,-47.800,-163.100,-90210.000,-83980.000,999510.000,398000.000,-232000.000,72000.000,883.015,213.404,731.222,202.867,-386.464,-47.730,23263.847,35088.401,-17757.126
1512178760,247.700,-70.600,-342.500,-69460.000,-30460.000,1000550.000,398000.000,-232000.000,72000.000,822.751,368.294,1225.539,191.204,-306.804,-57.428,24682.564,33815.537,-18857.322
1512178760,175.600,-75.600,-127.000,-60610.000,-26860.000,999450.000,398000.000,-232000.000,72000.000,604.109,43.955,1668.455,312.065,-97.629,-248.455,26773.690,31943.672,-19776.032
1512178760,172.400,-75.900,-22.900,-55360.000,-55300.000,995060.000,391000.000,-236000.000,76000.000,421.555,-1107.248,2177.243,352.539,-58.192,-388.632,28787.438,29584.190,-21031.822
1512178760,89.900,-75.000,-37.600,24290.000,27890.000,971190.000,391000.000,-236000.000,76000.000,267.856,-1932.817,2794.722,323.072,10.195,-337.001,30273.270,26698.922,-23408.409
1512178760,217.200,-53.800,-20.100,-95340.000,-43210.000,1010860.000,391000.000,-236000.000,76000.000,102.630,-2599.816,2890.750,243.961,213.443,-271.063,30520.843,23699.295,-26262.008
1512178760,58.100,-21.000,-50.500,-97350.000,-75870.000,1000240.000,391000.000,-236000.000,76000.000,163.933,-2860.896,2618.884,186.651,296.200,-247.748,29678.352,20173.042,-29519.104
1512178760,-13.800,-12.100,-91.600,-91800.000,-64450.000,991090.000,374000.000,-232000.000,89000.000,348.976,-3074.907,2409.742,182.819,353.988,-191.447,27639.114,17394.989,-32990.662
1512178760,-16.600,-9.100,-145.800,-85570.000,16480.000,1033570.000,374000.000,-232000.000,89000.000,980.779,-3036.027,2142.921,110.851,417.118,-67.642,24735.390,14165.626,-36380.104
1512178760,-168.600,-2.300,-284.400,-59330.000,-8540.000,987300.000,374000.000,-232000.000,89000.000,1387.981,-2728.698,1803.953,87.086,423.806,82.745,21154.618,10447.753,-39464.020
1512178760,-92.700,-16.400,-160.300,-80080.000,-95830.000,955440.000,374000.000,-232000.000,89000.000,1106.062,-2514.802,1455.743,89.323,390.323,174.208,17387.917,6992.104,-41758.736
1512178761,-214.800,7.200,4.700,-95280.000,-49560.000,961000.000,374000.000,-232000.000,89000.000,926.746,-2332.825,1122.233,75.394,384.880,238.820,14266.891,5224.922,-42895.592
1512178761,-101.900,-2.700,4.000,-9460.000,-70310.000,937810.000,402000.000,-239000.000,52000.000,1009.123,-2072.605,858.884,78.720,361.588,276.160,12163.437,4546.776,-43703.041
1512178761,328.600,-89.700,-4.800,-26310.000,-101870.000,1059330.000,402000.000,-239000.000,52000.000,1057.879,-1831.857,694.124,111.617,323.366,299.911,10281.158,2968.941,-44062.843
1512178761,-86.700,-14.500,-44.600,-31130.000,-47000.000,995670.000,402000.000,-239000.000,52000.000,914.114,-1549.959,633.320,132.244,293.069,331.485,8777.252,2141.685,-44425.468
1512178761,-130.900,-23.700,-50.700,-27650.000,-1280.000,998350.000,402000.000,-239000.000,52000.000,520.697,-1151.914,525.595,101.903,246.683,345.851,6969.894,563.972,-44935.890
1512178761,118.000,-84.000,-106.000,-67570.000,-53650.000,1043330.000,402000.000,-239000.000,52000.000,58.032,-830.733,348.379,109.252,185.962,250.685,6446.289,863.197,-44856.285
1512178761,99.500,-66.400,-58.700,-35030.000,-37170.000,1019040.000,400000.000,-252000.000,67000.000,-150.924,-860.836,282.347,159.954,189.947,126.909,5470.276,636.726,-44848.106
1512178761,-22.500,-44.700,-31.000,-1770.000,-43210.000,974670.000,400000.000,-252000.000,67000.000,-124.363,-1131.029,275.399,201.296,203.354,54.230,4570.496,710.381,-45065.422
1512178761,-12.400,-55.100,-30.900,-8480.000,-38020.000,1051270.000,400000.000,-252000.000,67000.000,85.057,-1429.723,231.551,197.513,206.802,72.856,3445.374,708.687,-45280.861
1512178761,-102.800,-31.700,-60.100,-43330.000,2560.000,1041140.000,400000.000,-252000.000,67000.000,285.080,-1357.776,194.188,176.244,155.202,157.980,1794.693,556.221,-45266.914
1512178761,-103.700,-0.800,-88.900,-16720.000,-16910.000,1062070.000,376000.000,-241000.000,81000.000,351.362,-993.556,265.711,168.504,71.513,198.695,969.467,479.973,-45034.935
1512178761,-101.200,6.500,-84.300,-14650.000,-38150.000,1032710.000,376000.000,-241000.000,81000.000,316.851,-750.383,431.298,158.317,26.324,189.073,-234.390,-346.825,-45325.111
1512178761,-94.400,22.800,-70.700,-30820.000,-16720.000,1034550.000,376000.000,-241000.000,81000.000,176.597,-765.751,531.554,146.282,42.427,165.661,-909.027,-272.835,-45244.347
1512178761,-3.500,4.900,-114.200,-58410.000,14160.000,1027890.000,376000.000,-241000.000,81000.000,57.572,-968.958,563.234,115.107,65.177,145.947,-1810.303,-574.196,-45086.830
1512178761,9.700,13.400,-129.000,-37840.000,60.000,1022520.000,376000.000,-241000.000,81000.000,216.292,-1259.255,555.993,71.434,93.489,182.353,-2635.269,-575.432,-45004.814
1512178761,-92.700,34.800,-122.600,-42540.000,-11170.000,955320.000,374000.000,-236000.000,106000.000,593.591,-1299.143,495.229,14.064,115.688,296.650,-3686.249,-802.010,-44920.998
1512178761,-78.800,29.700,-128.900,-22770.000,-9770.000,967100.000,374000.000,-236000.000,106000.000,869.445,-984.607,460.873,-28.679,93.412,404.931,-4963.303,-1253.914,-44985.374
1512178761,3.900,-8.800,-127.200,-62380.000,19900.000,1001530.000,374000.000,-236000.000,106000.000,896.290,-705.765,463.301,-56.548,63.317,445.701,-5941.574,-2005.394,-44752.419
1512178761,-163.500,10.000,-139.000,-55420.000,-8420.000,944820.000,374000.000,-236000.000,106000.000,702.687,-590.662,442.770,-59.001,66.124,443.480,-6994.232,-2606.972,-44668.785
1512178761,-209.200,33.800,-86.400,-76840.000,-25700.000,922550.000,374000.000,-236000.000,106000.000,336.102,-527.930,308.686,-85.831,52.430,414.186,-7820.770,-2983.208,-44361.946
1512178761,-69.400,10.800,-90.800,-67020.000,146610.000,923400.000,400000.000,-216000.000,111000.000,10.338,-484.206,88.771,-89.815,44.019,355.484,-8799.088,-3734.673,-44204.018
1512178761,-22.400,0.800,-158.100,-28930.000,-29540.000,984560.000,400000.000,-216000.000,111000.000,-192.394,-406.180,-89.792,-60.453,26.678,269.412,-9248.291,-3585.350,-43975.105
1512178761,86.600,-18.500,-159.400,8730.000,26980.000,1003660.000,400000.000,-216000.000,111000.000,-255.357,-468.101,-152.748,-23.084,-13.322,154.311,-9695.557,-2986.015,-43896.019
1512178761,98.500,-22.200,-173.500,-28500.000,24170.000,1038090.000,400000.000,-216000.000,111000.000,-214.061,-612.392,-78.028,17.310,-62.850,70.439,-10143.875,-2611.687,-43892.021
1512178761,-15.700,12.500,-175.800,-23680.000,5680.000,1053470.000,404000.000,-227000.000,94000.000,-46.308,-498.339,-95.990,-35.227,-67.377,36.936,-11119.209,-2725.655,-43546.287
1512178761,86.200,-9.900,-183.600,-39920.000,15500.000,986080.000,404000.000,-227000.000,94000.000,-3.210,-225.558,-530.434,-40.554,-51.617,-54.017,-11645.973,-3138.947,-43354.507
1512178761,63.000,-25.800,-201.600,-20450.000,-19590.000,1013790.000,404000.000,-227000.000,94000.000,71.569,-189.669,-796.807,22.524,-71.261,-112.271,-12060.189,-3552.071,-43051.193
1512178761,-87.000,-18.100,-166.800,-63110.000,37050.000,977780.000,404000.000,-227000.000,94000.000,-486.388,-773.562,-897.538,54.674,-123.555,-248.282,-12960.281,-3590.919,-42893.562
1512178761,-79.900,-11.100,-149.300,-58650.000,22830.000,1044370.000,404000.000,-227000.000,94000.000,-1223.032,-1305.399,-987.347,69.099,-67.627,-305.960,-14942.703,-2543.892,-42163.689
1512178761,-26.500,-6.900,-155.900,-43090.000,53890.000,1038210.000,395000.000,-225000.000,89000.000,-152.839,-1025.265,-837.614,31.202,35.983,-206.280,-17002.578,-2021.981,-41620.925
1512178761,1.700,-0.800,-155.100,-36680.000,49990.000,1008790.000,395000.000,-225000.000,89000.000,660.655,-530.144,-754.812,-57.093,25.430,76.914,-18357.354,-3149.017,-41009.972
1512178761,92.400,-25.600,-172.300,-42420.000,-13790.000,1061890.000,395000.000,-225000.000,89000.000,65.713,141.326,-458.335,-41.547,-11.177,134.401,-18588.218,-4461.861,-40933.662
1512178761,2.500,-11.100,-182.800,-17700.000,-8610.000,1019710.000,395000.000,-225000.000,89000.000,21.354,203.435,-27.539,24.131,79.786,7.881,-18475.609,-4424.195,-41047.104
1512178761,-110.500,16.600,-163.100,-55660.000,27280.000,991520.000,393000.000,-241000.000,84000.000,-52.995,-414.194,23.073,15.213,123.968,71.505,-18662.521,-4311.974,-40895.454
1512178761,-10.900,4.000,-181.500,-31190.000,34240.000,988710.000,393000.000,-241000.000,84000.000,-274.257,-539.037,52.480,-9.486,72.085,203.803,-19787.361,-4313.653,-40548.394
1512178761,2.900,5.700,-193.100,-25210.000,66960.000,937990.000,393000.000,-241000.000,84000.000,-153.757,7.611,12.420,-21.898,63.914,213.670,-20273.247,-3976.890,-40356.605
1512178761,55.000,-18.500,-181.100,-90270.000,58530.000,988460.000,393000.000,-241000.000,84000.000,44.856,255.369,198.455,49.206,15.057,101.432,-20084.716,-3751.602,-40320.594
1512178762,-18.400,8.900,-170.700,-62810.000,85750.000,972230.000,393000.000,-241000.000,84000.000,230.366,-64.306,213.888,21.248,34.835,70.589,-19897.980,-3901.329,-40509.743
1512178762,-64.800,34.800,-162.700,-49130.000,60060.000,962160.000,391000.000,-232000.000,69000.000,257.004,-191.246,143.471,-18.840,-3.217,108.768,-20047.913,-3901.558,-40358.482
1512178762,-38.200,8.100,-165.800,-78060.000,38210.000,1000120.000,391000.000,-232000.000,69000.000,171.909,-70.530,73.365,-59.293,-49.415,148.919,-20348.618,-4051.994,-40430.992
1512178762,-42.600,10.300,-185.800,-57130.000,24660.000,954220.000,391000.000,-232000.000,69000.000,1.405,184.496,82.444,-65.299,-80.313,121.327,-20424.866,-4352.119,-40205.498
1512178762,-34.900,0.800,-187.800,-59080.000,32350.000,969240.000,391000.000,-232000.000,69000.000,-123.519,293.099,164.165,-23.109,-76.386,25.976,-20202.820,-4951.775,-40732.689
1512178762,-6.300,-14.900,-208.700,-30210.000,28380.000,1052980.000,391000.000,-232000.000,69000.000,-296.557,283.180,184.010,9.734,-31.314,-28.732,-20197.906,-3901.772,-40357.201
1512178762,-20.000,-8.300,-231.000,-28440.000,50230.000,972720.000,390000.000,-241000.000,71000.000,-437.109,296.996,109.528,33.694,-5.260,-73.385,-19974.075,-4126.442,-40659.218
1512178762,-20.800,1.200,-228.800,-68480.000,35580.000,943300.000,390000.000,-241000.000,71000.000,-383.583,173.335,25.656,44.923,-18.394,-102.604,-19746.078,-3451.103,-40735.817
1512178762,91.700,-17.200,-213.200,-25940.000,31250.000,1008360.000,390000.000,-241000.000,71000.000,-285.479,184.297,-40.046,29.063,-41.289,-66.413,-19746.445,-3526.100,-40810.844
1512178762,67.800,-21.400,-209.600,-36560.000,72630.000,961980.000,390000.000,-241000.000,71000.000,-587.459,534.142,-4.823,30.143,-74.452,-1.749,-19521.454,-3525.764,-40812.752
1512178762,-44.300,5.900,-212.900,-53960.000,31560.000,1001040.000,377000.000,-246000.000,79000.000,-1152.622,1023.257,157.126,112.662,-68.953,-81.665,-18990.479,-2174.965,-41041.603
1512178762,11.700,-5.300,-212.400,-37110.000,55240.000,977420.000,377000.000,-246000.000,79000.000,-1331.625,1222.342,354.576,221.121,24.175,-308.568,-18238.907,-1798.836,-41272.789
1512178762,28.100,3.100,-217.200,-43030.000,42660.000,989200.000,377000.000,-246000.000,79000.000,-1084.725,814.660,361.001,264.349,118.378,-455.278,-17108.353,-522.148,-41656.761
1512178762,-6.500,8.400,-216.500,-34850.000,44070.000,1052670.000,377000.000,-246000.000,79000.000,-295.559,-133.635,297.711,247.677,124.293,-421.285,-16579.407,378.654,-41885.826
1512178762,104.700,-9.200,-226.900,-17270.000,56820.000,1067440.000,377000.000,-246000.000,79000.000,244.149,-451.200,328.942,197.773,77.116,-216.305,-16653.061,678.551,-41885.048
1512178762,19.000,15.200,-230.600,-53650.000,67020.000,1033690.000,383000.000,-252000.000,57000.000,351.529,-266.415,420.692,151.876,16.240,-4.165,-17330.383,152.534,-41804.543
1512178762,34.200,18.500,-235.600,-51270.000,73360.000,1054200.000,383000.000,-252000.000,57000.000,103.577,46.891,602.615,146.299,-13.046,105.840,-17405.396,152.412,-41803.902
1512178762,24.200,29.700,-237.600,-57620.000,78060.000,1030270.000,383000.000,-252000.000,57000.000,-164.971,223.417,799.759,160.045,4.642,118.630,-17102.875,677.864,-41506.218
1512178762,-14.900,17.600,-234.800,-77150.000,72330.000,1016480.000,383000.000,-252000.000,57000.000,-225.895,168.578,936.208,165.612,45.296,81.095,-17025.620,1202.980,-41731.621
1512178762,8.300,26.900,-236.500,-45590.000,78060.000,1057980.000,383000.000,-252000.000,57000.000,-114.716,-57.786,970.075,152.186,83.958,77.291,-17098.602,1652.870,-41730.766
1512178762,-18.000,29.300,-236.100,-39000.000,46080.000,969600.000,368000.000,-259000.000,67000.000,43.527,-256.153,932.234,113.584,98.473,137.413,-17323.486,1652.534,-41503.853
1512178762,-50.700,12.800,-232.900,-82890.000,38090.000,983030.000,368000.000,-259000.000,67000.000,175.451,-308.189,881.729,69.992,89.416,227.945,-17472.290,1877.312,-41127.480
1512178762,-65.800,45.900,-238.200,-27770.000,56270.000,960630.000,368000.000,-259000.000,67000.000,229.437,-226.848,844.417,30.893,66.203,298.292,-17545.685,2252.205,-41276.665
1512178762,-62.100,44.300,-231.600,-69520.000,20810.000,1009640.000,368000.000,-259000.000,67000.000,135.180,-81.657,813.707,1.180,41.736,323.082,-17693.909,2626.991,-41125.221
1512178762,2.800,22.500,-243.300,-61770.000,63110.000,1004210.000,368000.000,-266000.000,67000.000,0.445,72.020,781.373,-18.068,8.423,292.817,-17769.958,2401.863,-41199.684
1512178762,-80.700,57.300,-235.600,-56400.000,70740.000,974610.000,368000.000,-266000.000,67000.000,-33.981,146.826,739.559,-6.215,-9.415,220.652,-17468.918,2627.327,-41127.129
1512178762,-95.600,49.800,-231.000,-108220.000,67080.000,961180.000,368000.000,-266000.000,67000.000,118.243,193.688,658.777,-9.360,-8.579,107.532,-17391.510,3152.436,-41052.529
1512178762,73.200,16.200,-244.500,-61280.000,59630.000,1041440.000,368000.000,-266000.000,67000.000,172.257,-46.275,506.811,-48.911,-45.456,4.819,-17167.023,3040.268,-41054.489
1512178762,-34.800,31.300,-237.400,-57010.000,87220.000,998660.000,368000.000,-266000.000,67000.000,-96.078,-217.506,188.371,-116.407,-53.878,-72.892,-17766.418,3151.871,-40861.840
1512178762,-20.600,26.900,-232.200,-107120.000,76420.000,968930.000,372000.000,-259000.000,74000.000,30.045,-84.730,-148.882,-116.680,-31.314,-201.567,-17768.844,2589.371,-40637.108
1512178762,5.500,62.900,-238.100,-56090.000,19530.000,1000920.000,372000.000,-259000.000,74000.000,373.791,-397.144,-709.999,-103.858,-9.453,-255.319,-18332.634,2288.521,-40519.959
1512178762,44.900,63.400,-235.300,-45350.000,59570.000,920470.000,372000.000,-259000.000,74000.000,111.311,-341.394,-1016.368,-116.706,-144.875,-122.724,-19162.910,1087.281,-40251.007
1512178762,-2.400,77.600,-239.200,-41870.000,1400.000,1063540.000,372000.000,-259000.000,74000.000,-700.280,499.483,-664.338,-4.829,-104.598,-268.747,-18826.607,787.788,-39954.010
1512178762,-13.400,76.000,-238.100,-83740.000,39060.000,1028320.000,372000.000,-259000.000,74000.000,173.541,-231.940,-679.810,99.093,201.115,-386.451,-18601.326,863.128,-40068.390
1512178762,-97.500,89.500,-265.900,-58650.000,78000.000,1005550.000,363000.000,-264000.000,76000.000,965.482,-701.866,-921.030,-11.657,128.730,69.986,-19734.635,-1051.079,-39459.710
1512178762,104.300,28.400,-286.700,-59020.000,56950.000,994080.000,363000.000,-264000.000,76000.000,758.551,62.117,-650.057,-82.298,14.912,329.624,-20155.670,-3001.716,-38969.605
1512178762,76.200,36.800,-238.100,-65920.000,83310.000,1043030.000,363000.000,-264000.000,76000.000,194.753,333.661,-387.035,-48.253,49.965,216.551,-19787.590,-4538.658,-38973.503
1512178762,-43.300,49.000,-212.700,-52610.000,85390.000,1003300.000,363000.000,-264000.000,76000.000,7.085,-72.230,-274.965,-17.372,103.423,135.256,-19413.376,-4688.095,-39201.767
1512178763,-4.500,27.600,-199.700,-88010.000,144590.000,980710.000,368000.000,-269000.000,81000.000,59.611,-129.916,-230.161,-45.670,102.453,174.472,-19452.377,-5025.658,-39164.101
1512178763,-15.200,16.100,-216.900,-113340.000,113530.000,1025450.000,368000.000,-269000.000,81000.000,67.174,21.773,-229.527,-61.024,96.924,204.872,-19228.683,-5325.325,-39091.148
1512178763,24.100,25.200,-230.900,-79900.000,82460.000,1067440.000,368000.000,-269000.000,81000.000,30.614,156.259,-204.003,-54.738,76.932,190.793,-19305.603,-5775.429,-38865.730
1512178763,43.300,14.400,-240.700,-47790.000,68600.000,1028930.000,368000.000,-269000.000,81000.000,-29.491,195.641,-177.018,-44.810,71.514,153.732,-18706.802,-5999.535,-39245.918
1512178763,69.100,-4.300,-263.300,-81540.000,49440.000,1016850.000,368000.000,-269000.000,81000.000,-97.482,134.684,-194.205,-42.785,90.530,108.644,-18559.570,-6599.312,-39397.469
1512178763,50.500,-3.900,-242.900,-93570.000,108150.000,1012020.000,367000.000,-278000.000,69000.000,-130.899,-21.227,-244.272,-37.496,94.860,63.975,-18631.348,-5924.431,-39021.523
1512178763,-3.100,9.900,-230.800,-64150.000,54080.000,975770.000,367000.000,-278000.000,69000.000,-104.477,-134.306,-300.784,-33.879,74.230,46.683,-18406.723,-5999.092,-39098.473
1512178763,35.300,19.800,-231.800,-49440.000,16910.000,1018680.000,367000.000,-278000.000,69000.000,-61.807,-170.548,-303.487,-31.997,31.992,26.451,-18183.411,-6373.756,-39100.563
1512178763,17.600,21.200,-225.800,-28140.000,37170.000,950260.000,367000.000,-278000.000,69000.000,12.637,-154.440,-292.762,-43.770,-3.955,-2.317,-18558.334,-6374.321,-38947.380
1512178763,16.100,16.100,-228.000,-79220.000,29660.000,987370.000,347000.000,-273000.000,74000.000,34.914,-141.599,-284.930,-28.684,-21.993,-48.906,-18484.314,-6599.205,-38873.116
1512178763,5.500,34.100,-227.800,-93510.000,58170.000,959660.000,347000.000,-273000.000,74000.000,-65.491,-143.908,-272.531,-13.593,-78.243,-80.682,-18260.574,-6898.872,-38725.166
1512178763,-2.300,8.800,-229.400,-64760.000,46810.000,1013550.000,347000.000,-273000.000,74000.000,-268.915,-160.475,-156.139,15.285,-132.725,-95.950,-18259.872,-6748.863,-38650.093
1512178763,51.700,-10.900,-366.900,-83800.000,94060.000,998960.000,347000.000,-273000.000,74000.000,-411.081,-183.423,-4.766,33.269,-159.223,-132.978,-18334.381,-6598.976,-39024.376
1512178763,-41.100,18.400,-380.800,-40040.000,55970.000,917360.000,347000.000,-273000.000,74000.000,-353.378,-192.932,-13.558,39.862,-130.228,-153.045,-18483.856,-6524.208,-38648.079
1512178763,34.900,14.200,-393.300,-51450.000,44740.000,992000.000,354000.000,-290000.000,67000.000,-289.077,-84.919,-29.310,31.040,-150.273,-121.581,-18333.786,-6523.979,-38499.367
1512178763,-31.700,36.900,-244.900,-74400.000,7320.000,1015690.000,354000.000,-290000.000,67000.000,-580.752,300.017,93.601,49.778,-206.995,-84.518,-18631.195,-5924.431,-38721.535
1512178763,-197.600,54.600,-246.500,-91370.000,73180.000,970280.000,354000.000,-290000.000,67000.000,-1073.580,689.642,390.579,170.702,-138.560,-194.797,-17350.525,-4647.499,-38881.783
1512178763,36.100,2.300,-398.300,-124820.000,106080.000,1047120.000,354000.000,-290000.000,67000.000,-1017.571,562.178,607.354,282.011,17.630,-425.575,-17350.525,-4647.499,-38881.783
1512178763,-67.600,0.400,-463.500,-160890.000,85940.000,908630.000,361000.000,-273000.000,67000.000,-337.364,-2.866,575.799,339.173,186.809,-488.427,-16745.544,-3521.599,-39036.354
1512178763,-86.600,14.600,-387.900,-82950.000,18980.000,1037960.000,361000.000,-273000.000,67000.000,383.898,-495.958,386.249,290.950,213.056,-315.978,-17194.717,-3372.276,-38732.460
1512178763,-24.600,1.700,-132.000,81180.000,21060.000,1015080.000,361000.000,-273000.000,67000.000,648.782,-425.004,358.348,236.521,144.355,-36.912,-17347.717,-4047.493,-38656.502
1512178763,-5.600,-13.200,-130.500,-35950.000,25450.000,960450.000,361000.000,-273000.000,67000.000,556.461,-99.582,477.541,217.832,82.862,170.808,-17721.298,-3748.055,-38503.181
1512178763,1.300,-18.000,-139.700,-84960.000,85630.000,1043270.000,361000.000,-273000.000,67000.000,259.412,252.104,666.355,204.001,48.976,269.238,-17272.049,-3897.392,-38657.066
1512178763,21.800,-13.200,-200.100,-71960.000,71040.000,1006350.000,367000.000,-260000.000,35000.000,-59.157,374.086,855.119,196.246,60.611,280.879,-17121.704,-3822.166,-38658.302
1512178763,17.400,-13.700,-201.600,-63480.000,43400.000,1018070.000,367000.000,-260000.000,35000.000,-258.087,214.429,950.824,178.540,115.413,261.537,-17121.063,-3672.157,-38733.238
1512178763,9.900,-17.300,-153.900,7750.000,70310.000,1011170.000,367000.000,-260000.000,35000.000,-259.771,19.017,913.873,139.742,161.548,286.485,-17119.003,-3222.160,-38658.028
1512178763,-47.700,-28.800,-201.900,-82820.000,65610.000,988590.000,367000.000,-260000.000,35000.000,-88.072,38.171,814.086,67.776,145.180,393.651,-16778.221,-2471.649,-38848.053
1512178763,55.300,-26.000,-75.900,-28990.000,57800.000,968870.000,367000.000,-260000.000,35000.000,-94.563,406.303,741.183,-14.934,82.936,459.191,-16214.447,-2170.807,-39002.701
1512178763,-10.100,-2.100,-133.200,-24410.000,100400.000,973080.000,367000.000,-260000.000,32000.000,-495.003,562.277,692.215,-53.083,5.383,318.916,-15274.712,-1644.394,-39272.918
1512178763,-48.600,10.000,-204.300,17520.000,-11050.000,988160.000,367000.000,-260000.000,32000.000,-1096.524,-130.672,610.197,-54.635,-66.907,18.267,-14816.010,306.297,-39425.835
1512178763,-26.800,14.000,-202.000,23320.000,-14340.000,1008610.000,367000.000,-260000.000,32000.000,-1531.604,-1158.330,567.803,-109.632,-118.297,-195.036,-15743.950,2367.409,-38854.423
1512178763,39.700,-15.400,-195.100,74280.000,62500.000,1026730.000,367000.000,-260000.000,32000.000,-1275.719,-1187.458,370.457,-209.403,-90.700,-371.241,-17270.523,4690.117,-37902.786
1512178763,-31.200,-81.900,-281.800,-50480.000,9770.000,928280.000,349000.000,-264000.000,25000.000,-473.087,-836.298,-220.083,-218.222,-55.817,-477.761,-18163.567,6113.777,-36806.992
1512178763,-57.100,16.600,-397.700,59200.000,-20450.000,1006770.000,349000.000,-264000.000,25000.000,53.376,-547.923,-874.540,-168.327,-171.832,-391.934,-19364.624,5811.974,-36196.922
1512178763,-30.000,-2.100,-654.700,-103270.000,3480.000,983760.000,349000.000,-264000.000,25000.000,-39.389,229.420,-1061.872,-105.149,-267.213,-270.948,-19630.631,5024.078,-36120.056
1512178763,128.900,-19.000,-783.000,-44620.000,-28020.000,1056580.000,349000.000,-264000.000,25000.000,447.404,854.292,-942.841,53.688,15.120,-314.500,-18921.898,4237.640,-36576.477
1512178763,8.700,1.700,-675.600,50170.000,230830.000,967040.000,349000.000,-264000.000,25000.000,1807.497,777.754,-1161.667,60.745,117.299,-62.736,-17732.445,1951.919,-37112.732
1512178763,-16.600,-56.500,-205.500,-77580.000,-13000.000,1052060.000,305000.000,-308000.000,54000.000,1759.007,611.333,-1041.954,-4.296,-4.645,276.024,-16775.543,-1984.138,-37872.825
1512178764,216.900,23.600,-222.400,45410.000,43760.000,995540.000,305000.000,-308000.000,54000.000,1117.849,631.405,-883.802,-76.745,-9.712,323.015,-15693.329,-3145.012,-37995.110
1512178764,677.400,-3.500,-420.800,19100.000,162540.000,1196170.000,305000.000,-308000.000,54000.000,1011.000,838.297,-794.014,-73.739,50.217,239.753,-14875.076,-4643.791,-38002.815
1512178764,251.000,21.300,-562.200,-29360.000,95150.000,1004700.000,305000.000,-308000.000,54000.000,1130.163,1049.554,-575.141,-37.974,84.888,139.253,-14053.299,-5317.558,-38385.139
1512178764,-28.600,-51.900,-625.400,-77270.000,57860.000,999510.000,305000.000,-308000.000,54000.000,1282.581,1090.798,-248.709,-6.410,93.386,58.863,-13234.146,-6591.331,-38617.744
1512178764,-88.900,-71.100,-522.200,-143130.000,102480.000,1012270.000,270000.000,-336000.000,104000.000,1251.074,856.258,34.658,-19.957,124.446,13.893,-12112.137,-7264.641,-38552.620
1512178764,-164.100,-75.600,-150.200,25270.000,23500.000,1071530.000,270000.000,-336000.000,104000.000,1089.062,525.711,145.225,-68.331,179.611,22.136,-11441.605,-8238.640,-38708.794
1512178764,25.200,-12.000,-145.900,49930.000,-4030.000,1100710.000,270000.000,-336000.000,104000.000,859.200,250.787,172.924,-81.553,194.502,52.331,-11069.824,-8988.075,-38412.331
1512178764,66.700,41.500,-132.400,4390.000,-5680.000,1024720.000,270000.000,-336000.000,104000.000,608.863,92.090,282.811,-87.062,178.339,75.593,-10547.302,-9512.291,-38642.036
1512178764,3.900,51.900,-114.600,44190.000,3540.000,997680.000,242000.000,-361000.000,98000.000,458.939,27.570,385.958,-96.495,184.556,91.876,-10775.864,-10337.639,-38340.508
1512178764,-10.900,33.000,-109.100,16480.000,68050.000,1028200.000,242000.000,-361000.000,98000.000,338.310,30.444,460.977,-95.983,171.378,83.866,-10850.906,-10337.761,-38414.864
1512178764,123.800,93.600,-115.400,24900.000,42660.000,1046020.000,242000.000,-361000.000,98000.000,250.139,-60.571,502.024,-94.895,174.631,48.826,-10550.262,-10187.309,-38492.348
1512178764,97.700,38.300,-159.800,-10800.000,66590.000,1118590.000,242000.000,-361000.000,98000.000,252.945,-176.913,454.750,-111.282,164.874,52.104,-10775.681,-10262.642,-38640.465
1512178764,-577.200,40.500,-165.400,37660.000,15320.000,970580.000,242000.000,-361000.000,98000.000,357.965,-148.789,358.292,-127.148,137.559,108.276,-10702.362,-10637.535,-38641.289
1512178764,-200.000,6.100,-118.500,30270.000,-15560.000,1001040.000,251000.000,-342000.000,126000.000,453.289,55.548,277.234,-139.864,81.288,161.424,-10853.378,-10862.755,-38640.114
1512178764,-217.700,-10.700,-58.900,12020.000,-7630.000,935120.000,251000.000,-342000.000,126000.000,379.035,199.796,196.704,-131.207,41.746,158.472,-10631.149,-11462.425,-38792.305
1512178764,-282.600,18.200,-54.100,70620.000,-10500.000,892940.000,251000.000,-342000.000,126000.000,134.195,209.204,111.102,-85.022,21.767,124.620,-10631.149,-11462.425,-38792.305
1512178764,-105.500,52.700,-76.000,-5550.000,-14220.000,959170.000,251000.000,-342000.000,126000.000,-276.549,47.384,57.682,-35.853,-10.650,75.605,-10629.684,-11162.422,-38567.162
1512178764,-55.500,77.100,-85.600,84470.000,5370.000,897950.000,251000.000,-342000.000,126000.000,-735.524,-187.173,16.102,10.677,-15.269,22.920,-10401.718,-10487.083,-38718.758
1512178764,-179.600,-18.600,-159.000,139710.000,-57980.000,962590.000,231000.000,-336000.000,132000.000,-927.046,-324.006,-76.695,25.310,-17.992,-10.902,-10923.462,-9737.862,-38938.957
1512178764,-221.000,-49.800,-158.600,-8540.000,46260.000,1044010.000,231000.000,-336000.000,132000.000,-902.405,-184.973,-141.950,8.301,-16.121,12.835,-10994.858,-8912.971,-39162.926
1512178764,-59.900,28.800,-80.600,-80320.000,17270.000,1109800.000,231000.000,-336000.000,132000.000,-940.030,267.933,-165.438,-9.185,-23.297,39.046,-10466.934,-8237.175,-39392.082
1512178764,325.400,43.100,-43.700,15080.000,53770.000,1147770.000,231000.000,-336000.000,132000.000,-1140.070,684.231,-167.953,60.244,43.121,-12.758,-10238.297,-7411.827,-39543.617
1512178764,28.000,-4.300,-11.700,45350.000,-62260.000,918760.000,231000.000,-350000.000,135000.000,-1103.233,904.384,-193.306,176.171,139.682,-161.809,-9034.775,-6585.030,-39928.429
1512178764,-12.100,22.800,-31.000,55180.000,-10070.000,960820.000,231000.000,-350000.000,135000.000,-652.819,679.772,-236.599,273.173,210.089,-284.203,-8508.163,-6209.236,-40082.726
1512178764,-8.500,2.400,-53.100,81120.000,-38090.000,944760.000,231000.000,-350000.000,135000.000,-151.174,153.910,-234.361,262.382,219.300,-120.358,-8056.717,-5871.064,-40236.389
1512178764,-62.500,-39.700,42.500,20080.000,3110.000,1025210.000,231000.000,-350000.000,135000.000,-267.123,549.770,-100.873,192.856,179.328,221.936,-7830.139,-5533.218,-40125.641
1512178764,-104.700,-21.200,55.700,76660.000,-43210.000,1008420.000,231000.000,-350000.000,135000.000,-928.524,586.237,121.537,162.923,189.293,215.929,-6624.427,-4218.917,-40547.737
1512178764,92.900,92.100,30.500,57070.000,7630.000,1051510.000,231000.000,-350000.000,132000.000,-1117.670,315.669,136.514,110.519,163.475,175.850,-5978.531,-2305.443,-40964.775
1512178764,23.300,45.300,43.800,80510.000,-41990.000,1062740.000,231000.000,-350000.000,132000.000,-761.608,482.644,241.397,47.544,52.724,240.340,-5410.080,-954.597,-41231.423
1512178764,16.400,1.200,19.700,68420.000,-70680.000,1045100.000,231000.000,-350000.000,132000.000,-745.768,745.211,360.340,1.874,-74.689,229.287,-3867.294,247.719,-41468.933
1512178764,-16.900,30.100,-30.400,-40770.000,-43090.000,905640.000,231000.000,-350000.000,132000.000,-1003.597,608.997,441.416,-15.461,-162.704,65.845,-2473.336,1712.310,-41742.554
1512178764,85.400,83.800,-103.900,82760.000,-31620.000,957460.000,247000.000,-324000.000,106000.000,-1179.278,153.272,373.320,20.942,-235.509,-204.570,-1751.724,3700.898,-41410.187
1512178764,154.600,70.700,-59.800,197880.000,34730.000,917600.000,247000.000,-324000.000,106000.000,-703.156,-206.403,315.535,-19.263,-278.593,-385.368,-1669.236,5351.021,-41297.569
1512178764,31.400,-67.900,34.800,159360.000,-63480.000,997070.000,247000.000,-324000.000,106000.000,-174.083,12.911,16.941,-43.911,-277.410,-450.233,-1929.626,5800.628,-41107.628
1512178764,-19.700,-9.700,47.100,-79900.000,-30150.000,1096010.000,247000.000,-324000.000,106000.000,595.772,86.779,-280.272,46.054,-238.092,-545.159,-1628.518,6063.576,-41260.056
1512178764,195.100,127.200,141.800,37900.000,4210.000,1150940.000,247000.000,-324000.000,106000.000,927.097,70.424,-397.594,53.584,-262.220,-416.267,-1712.952,4000.954,-41560.371
1512178764,163.800,87.200,174.000,-47000.000,13730.000,1048710.000,230000.000,-331000.000,133000.000,508.896,194.180,-372.839,93.484,-173.151,-453.582,-1754.326,3138.390,-41560.448
1512178765,18.500,-19.600,206.500,60670.000,36010.000,912230.000,230000.000,-331000.000,133000.000,1165.480,48.053,-244.437,172.945,-11.202,-556.579,-1642.029,3101.067,-41636.421
1512178765,-227.800,-164.800,209.200,194460.000,14950.000,1045290.000,230000.000,-331000.000,133000.000,1861.813,-308.928,-144.977,138.548,55.468,-399.218,-1648.254,1751.045,-41937.050
1512178765,-64.700,-58.700,98.800,-8480.000,14890.000,1032780.000,230000.000,-331000.000,133000.000,2098.132,-474.291,-67.504,59.124,97.744,-124.668,-2255.157,175.148,-41557.671
1512178765,177.900,27.300,103.300,75500.000,8670.000,1118470.000,230000.000,-331000.000,133000.000,1988.683,-400.970,44.169,-14.146,101.773,86.077,-2637.741,-1475.441,-41855.247
1512178765,29.200,17.400,117.400,67930.000,2010.000,1031370.000,237000.000,-324000.000,110000.000,1781.167,-210.313,160.156,-65.454,119.478,180.072,-3094.223,-2976.128,-41327.110
1512178765,-26.900,15.800,124.100,68850.000,-12700.000,1066280.000,237000.000,-324000.000,110000.000,1568.801,-77.279,244.960,-83.235,159.514,176.764,-3324.173,-4101.463,-41100.731
1512178765,2.000,-35.800,147.800,27100.000,-83310.000,1017330.000,237000.000,-324000.000,110000.000,1512.070,-92.472,322.974,-64.345,201.425,132.152,-3554.550,-5301.811,-41024.361
1512178765,30.000,26.800,109.700,112240.000,9030.000,1066770.000,237000.000,-324000.000,110000.000,1529.226,-159.851,378.424,-56.128,243.534,116.354,-2884.567,-6425.804,-40955.620
1512178765,122.500,84.000,100.800,102970.000,-59270.000,1120730.000,237000.000,-324000.000,110000.000,1511.548,-238.993,412.005,-61.409,269.817,147.445,-3566.284,-7926.826,-40875.587
1512178765,77.500,41.000,113.300,106630.000,-11960.000,1073790.000,238000.000,-322000.000,101000.000,1434.703,-230.705,482.346,-67.795,261.015,196.564,-3946.274,-9052.406,-40722.923
1512178765,78.300,89.100,109.300,74100.000,-39370.000,955440.000,238000.000,-322000.000,101000.000,1261.672,-161.709,570.695,-80.725,258.833,229.732,-4023.895,-9652.519,-40572.563
1512178765,108.500,62.500,86.300,55360.000,-11170.000,983460.000,238000.000,-322000.000,101000.000,1014.976,-71.351,601.549,-87.503,267.923,237.364,-4252.045,-10402.855,-40120.995
1512178765,-61.800,-44.900,85.100,49190.000,39730.000,1067380.000,238000.000,-322000.000,101000.000,821.611,-8.550,564.852,-76.763,268.357,209.646,-4480.499,-11153.206,-40269.417
1512178765,7.600,-12.700,144.700,44860.000,-20510.000,1047670.000,251000.000,-306000.000,113000.000,654.362,-47.240,555.900,-49.954,262.005,181.043,-4859.329,-12053.764,-39816.658
1512178765,98.100,36.400,145.700,35580.000,-66350.000,971980.000,251000.000,-306000.000,113000.000,431.700,-129.810,542.790,-29.123,257.259,170.777,-5010.635,-12353.996,-39740.517
1512178765,-12.800,-4.000,185.900,97530.000,-41870.000,965640.000,251000.000,-306000.000,113000.000,252.635,-224.070,536.671,-19.188,242.206,150.742,-5761.688,-12580.132,-39809.242
1512178765,-49.500,2.000,195.500,47970.000,-72270.000,986760.000,251000.000,-306000.000,113000.000,182.750,-294.614,504.498,-36.610,227.366,151.418,-5989.059,-13105.461,-39807.579
1512178765,41.500,45.800,142.900,66220.000,-51150.000,911560.000,251000.000,-306000.000,113000.000,160.443,-309.467,433.761,-65.636,200.987,175.721,-6212.250,-12730.797,-39580.498
1512178765,-22.400,14.200,138.900,95340.000,-35160.000,906980.000,247000.000,-310000.000,126000.000,83.420,-242.071,324.142,-104.873,177.441,212.843,-6960.907,-12431.923,-39573.982
1512178765,-29.400,-24.400,88.400,150880.000,-24720.000,989690.000,247000.000,-310000.000,126000.000,4.099,-51.739,165.879,-138.496,149.768,248.972,-7486.237,-12507.713,-39569.557
1512178765,-91.200,-27.600,44.100,62500.000,-65000.000,955810.000,247000.000,-310000.000,126000.000,-174.890,82.837,36.894,-104.431,125.804,233.451,-6961.838,-12656.929,-39424.080
1512178765,-39.100,-7.600,11.500,53040.000,-33750.000,997310.000,247000.000,-310000.000,126000.000,-484.963,-49.681,-172.743,-80.842,77.519,188.702,-7185.120,-12282.265,-39346.992
1512178765,-35.700,47.400,162.100,120540.000,-62560.000,931580.000,247000.000,-310000.000,126000.000,-764.027,-220.591,-389.526,-29.476,97.721,179.450,-6958.542,-11906.914,-39573.738
1512178765,-54.700,107.600,157.400,134400.000,-119630.000,857240.000,238000.000,-297000.000,111000.000,-892.362,-139.282,-555.278,-22.575,65.804,197.089,-7106.552,-11457.146,-39647.255
1512178765,-73.400,29.000,173.200,113710.000,-82280.000,889830.000,238000.000,-297000.000,111000.000,-1296.631,389.167,-708.542,-8.193,60.566,219.855,-6579.834,-11006.355,-40251.503
1512178765,-80.400,31.000,170.800,98690.000,-61160.000,855650.000,238000.000,-297000.000,111000.000,-1966.229,1028.988,-670.176,133.914,83.126,62.243,-5673.859,-9654.991,-40483.543
1512178765,-10.700,41.900,166.400,63110.000,-41440.000,975100.000,238000.000,-297000.000,111000.000,-1819.450,819.784,-369.216,353.213,215.960,-347.393,-4388.359,-7253.059,-41093.247
1512178765,88.700,7.600,163.100,112120.000,1530.000,1034550.000,245000.000,-297000.000,135000.000,-493.868,112.993,-335.946,270.579,202.935,-147.409,-3856.736,-5789.765,-41022.033
1512178765,20.500,-4.100,192.000,60000.000,310.000,1084110.000,245000.000,-297000.000,135000.000,-693.612,1163.459,-163.549,187.387,86.328,108.829,-2765.580,-4963.127,-41143.402
1512178765,77.600,28.900,214.700,82950.000,-34480.000,1041560.000,245000.000,-297000.000,135000.000,-1378.149,744.986,-14.481,212.552,102.304,-31.080,-1032.868,-3235.527,-41269.768
1512178765,58.200,-16.200,231.300,98820.000,-22400.000,1032900.000,245000.000,-297000.000,135000.000,-1508.746,135.309,20.951,117.270,60.262,56.681,-310.990,-1134.446,-41424.851
1512178765,51.300,-51.300,217.600,94910.000,-21360.000,1013490.000,245000.000,-297000.000,135000.000,-798.447,419.565,242.244,62.145,-47.063,101.346,-302.445,778.069,-41536.468
1512178765,12.000,-60.200,209.200,129030.000,-43820.000,1004330.000,238000.000,-294000.000,142000.000,-565.797,320.898,351.878,-12.597,-139.344,144.620,451.706,1679.199,-41354.927
1512178765,-53.100,-40.700,220.000,134890.000,-11350.000,940060.000,238000.000,-294000.000,142000.000,-836.480,131.184,465.627,-34.267,-212.232,116.034,1093.841,2692.665,-41209.885
1512178765,-87.200,-17.400,224.600,114140.000,-34910.000,989260.000,238000.000,-294000.000,142000.000,-554.814,107.951,547.448,-25.358,-225.571,-27.050,1247.719,3555.389,-41210.762
1512178765,-76.600,-22.200,225.400,128850.000,-76660.000,958800.000,238000.000,-294000.000,142000.000,-360.445,-93.046,516.517,-62.230,-237.834,-157.456,1625.458,4118.462,-40801.193
1512178765,-10.700,1.100,225.600,153260.000,-15080.000,984310.000,238000.000,-294000.000,142000.000,-589.300,-502.589,281.508,-49.545,-235.662,-324.684,1288.483,4230.461,-40760.773
1512178765,-16.600,15.700,225.200,93870.000,-50840.000,953430.000,240000.000,-313000.000,147000.000,-552.764,-970.068,111.974,-53.099,-151.346,-460.099,17.135,5016.052,-40524.574
1512178766,-1.700,19.400,233.200,126280.000,-16910.000,941160.000,240000.000,-313000.000,147000.000,589.796,-583.131,-209.131,-148.393,-82.312,-401.949,-1104.477,5726.860,-40139.687
1512178766,-15.600,-36.100,258.300,78250.000,23190.000,1047850.000,240000.000,-313000.000,147000.000,1063.227,-77.747,-449.974,-183.549,-122.409,-303.881,-1633.530,4826.073,-40135.643
1512178766,122.200,-11.500,260.700,48520.000,-1100.000,1067810.000,240000.000,-313000.000,147000.000,839.568,404.034,-632.766,-143.783,-157.473,-303.117,-1712.952,3850.960,-40210.442
1512178766,279.900,26.500,257.400,85880.000,44250.000,1135190.000,245000.000,-304000.000,128000.000,512.826,497.717,-725.658,5.578,-111.949,-467.004,-1190.948,3176.735,-40140.221
1512178766,203.100,-18.400,278.200,37410.000,6960.000,1111390.000,245000.000,-304000.000,128000.000,633.366,90.835,-685.885,129.792,-24.029,-595.531,-742.828,2727.409,-39844.246
1512178766,171.900,3.200,279.500,93260.000,-11540.000,1068050.000,245000.000,-304000.000,128000.000,1150.917,-522.722,-617.624,125.680,57.336,-514.851,-744.324,2427.406,-40144.402
1512178766,158.900,22.200,274.700,97840.000,4330.000,1091740.000,245000.000,-304000.000,128000.000,1583.015,-746.319,-649.453,14.099,99.164,-246.955,-1349.579,1226.494,-39839.851
1512178766,143.900,15.700,260.500,116330.000,27710.000,981260.000,245000.000,-304000.000,128000.000,1761.639,-568.673,-677.164,-54.378,112.191,15.627,-2031.586,-349.525,-39684.837
1512178766,39.900,3.900,255.100,119200.000,-46260.000,992370.000,254000.000,-292000.000,126000.000,1792.036,-203.404,-628.549,-83.563,94.990,179.155,-2413.300,-1850.105,-39607.338
1512178766,107.100,45.300,249.700,137080.000,-26250.000,941410.000,254000.000,-292000.000,126000.000,1738.077,80.422,-510.010,-61.327,108.988,236.294,-2268.585,-3049.873,-39384.178
1512178766,37.400,2.100,262.900,95700.000,-10010.000,993230.000,254000.000,-292000.000,126000.000,1637.095,202.885,-391.645,-30.996,136.895,228.988,-1748.199,-4099.098,-39164.116
1512178766,92.900,-2.700,248.100,88440.000,-730.000,1054260.000,254000.000,-292000.000,126000.000,1605.288,136.380,-276.136,-8.888,168.795,198.572,-1829.422,-5524.223,-38789.146
1512178766,105.200,7.200,248.100,105960.000,-15010.000,1061770.000,265000.000,-282000.000,133000.000,1555.908,17.447,-132.283,-8.169,193.097,207.334,-1309.906,-6723.442,-38944.160
1512178766,44.300,-22.200,289.100,83800.000,-2560.000,1007020.000,265000.000,-282000.000,133000.000,1489.948,-80.085,-15.242,-43.037,212.010,237.810,-1391.464,-8223.564,-38569.221
1512178766,-6.400,2.500,307.200,92350.000,-46200.000,935790.000,265000.000,-282000.000,133000.000,1293.070,-106.112,26.586,-85.643,218.017,275.169,-1394.394,-8898.567,-38344.536
1512178766,-48.700,6.900,312.400,137210.000,-12020.000,951170.000,265000.000,-282000.000,133000.000,943.983,-119.521,55.596,-98.632,208.371,279.687,-1325.317,-10248.466,-38045.784
1512178766,136.600,30.400,292.400,137570.000,-64090.000,1104550.000,265000.000,-282000.000,133000.000,598.901,-126.545,100.677,-92.528,192.933,250.372,-1477.829,-10848.701,-37669.792
1512178766,-19.400,-9.500,292.300,123660.000,-30150.000,1014770.000,265000.000,-271000.000,133000.000,378.648,-98.120,141.294,-81.005,203.232,215.975,-1630.524,-11448.921,-37668.785
1512178766,-240.600,-38.300,338.800,135250.000,9700.000,880370.000,265000.000,-271000.000,133000.000,263.070,-25.719,171.853,-58.876,209.935,180.770,-1630.798,-11523.933,-37518.837
1512178766,-312.900,-50.200,318.900,109620.000,21850.000,912350.000,265000.000,-271000.000,133000.000,100.001,-26.090,234.520,-34.857,189.380,147.097,-1631.836,-11748.924,-37593.925
1512178766,-0.300,-3.500,295.500,117680.000,-22460.000,1049990.000,265000.000,-271000.000,133000.000,-130.433,-122.719,304.403,-26.675,180.133,135.376,-1406.433,-11673.592,-37445.808
1512178766,-20.000,41.000,276.800,139400.000,-3050.000,1012760.000,265000.000,-271000.000,133000.000,-409.429,-214.024,345.884,-42.310,170.301,120.690,-2004.410,-11224.480,-37440.498
1512178766,18.200,34.100,280.800,150150.000,-44310.000,1075260.000,279000.000,-285000.000,133000.000,-617.067,-261.309,328.852,-64.378,177.183,120.627,-1778.351,-10999.153,-37367.317
1512178766,-71.100,33.400,279.100,109130.000,-34850.000,975040.000,279000.000,-285000.000,133000.000,-695.945,-161.969,268.355,-76.739,174.921,142.576,-2226.440,-10549.812,-37588.280
1512178766,-123.400,-7.600,285.100,164550.000,-52120.000,980770.000,279000.000,-285000.000,133000.000,-750.740,109.447,177.890,-72.707,141.728,154.314,-1924.194,-10024.361,-37815.590
1512178766,-23.300,-14.100,287.500,128970.000,-14530.000,1045530.000,279000.000,-285000.000,133000.000,-805.400,347.775,78.787,-17.541,125.268,106.637,-1621.750,-9498.909,-37667.885
1512178766,-110.000,27.200,287.800,137880.000,-25330.000,950500.000,270000.000,-259000.000,132000.000,-775.139,585.774,-64.400,71.609,64.312,35.298,-753.830,-8260.109,-37974.655
1512178766,-59.400,31.800,300.700,64210.000,-6840.000,867430.000,270000.000,-259000.000,132000.000,-1083.348,777.011,-47.945,138.182,-4.850,-51.855,450.523,-7283.303,-38059.403
1512178766,83.600,48.600,290.400,95210.000,-22520.000,1073120.000,270000.000,-259000.000,132000.000,-1628.922,887.758,-25.081,250.054,23.183,-286.340,2222.946,-5068.146,-38148.353
1512178766,-9.500,45.500,288.300,98270.000,-1460.000,1019230.000,270000.000,-259000.000,132000.000,-1240.866,13.926,28.672,298.380,109.715,-424.171,3432.381,-2966.331,-38195.091
1512178766,55.800,33.400,284.200,67870.000,-6900.000,1029300.000,270000.000,-259000.000,132000.000,-315.127,-73.135,-64.825,201.678,105.320,-121.816,3175.407,-1729.210,-38267.288
1512178766,117.800,37.700,281.800,65370.000,27530.000,1021120.000,282000.000,-250000.000,130000.000,75.066,399.837,85.856,153.986,22.340,128.161,3588.455,-1616.097,-38195.740
1512178766,7.200,20.100,288.600,89720.000,7750.000,1047120.000,282000.000,-250000.000,130000.000,-330.151,96.552,272.421,70.472,17.816,213.324,4114.487,-1390.304,-38162.605
1512178766,134.000,57.100,297.300,80510.000,-21240.000,1077330.000,282000.000,-250000.000,130000.000,-451.653,-182.593,354.444,-45.711,14.404,345.488,4117.859,-677.803,-37824.768
1512178766,61.400,58.200,309.200,97720.000,-60300.000,969120.000,282000.000,-250000.000,130000.000,-279.815,288.471,494.495,-89.550,-45.618,381.203,4081.695,-377.861,-37861.808
1512178766,-120.000,18.100,312.100,68120.000,-22950.000,929500.000,279000.000,-246000.000,150000.000,-408.507,335.651,575.949,-71.717,-85.178,211.226,5133.629,36.225,-37720.543
1512178766,-136.800,-55.400,307.500,111880.000,-28380.000,1100650.000,279000.000,-246000.000,150000.000,-775.110,-102.947,611.217,-42.417,-134.285,37.533,5586.197,599.404,-37649.117
1512178766,110.700,-3.500,301.300,100460.000,2500.000,1112300.000,279000.000,-246000.000,150000.000,-1173.674,-437.318,586.691,-73.322,-144.060,-149.614,5367.859,2061.577,-37496.528
1512178767,111.900,-10.500,336.100,107600.000,-16300.000,1105220.000,279000.000,-246000.000,150000.000,-679.291,-56.376,362.778,-138.772,-94.166,-282.620,5409.149,2886.635,-37346.474
1512178767,158.300,40.100,355.800,76600.000,-59750.000,1041810.000,279000.000,-246000.000,150000.000,-88.606,262.268,113.389,-107.728,-76.328,-378.438,5711.548,3412.086,-37273.781
1512178767,138.500,38.600,363.000,128050.000,-26120.000,1000310.000,282000.000,-257000.000,147000.000,251.286,217.355,-135.561,-60.571,-66.608,-481.766,5861.176,3337.318,-37350.090
1512178767,17.800,-36.800,342.200,126710.000,-65800.000,1163820.000,282000.000,-257000.000,147000.000,450.616,-157.678,-476.184,-31.834,-74.553,-515.191,5934.189,2887.428,-37275.932
1512178767,71.000,32.500,340.600,114010.000,-48710.000,1069640.000,282000.000,-257000.000,147000.000,563.866,-452.829,-764.474,-23.185,-130.853,-436.697,6010.803,3262.535,-37426.384
1512178767,11.700,69.200,359.900,133730.000,-69090.000,958980.000,282000.000,-257000.000,147000.000,510.376,-408.753,-944.190,-20.445,-203.648,-329.106,5933.136,2662.422,-37351.036
1512178767,-56.700,19.000,376.800,112850.000,-8790.000,949710.000,282000.000,-257000.000,147000.000,255.492,68.408,-980.339,20.148,-259.199,-300.479,5557.007,2436.867,-37572.945
1512178767,42.600,5.300,380.400,95030.000,-26370.000,1011050.000,286000.000,-229000.000,143000.000,128.703,424.718,-837.015,139.966,-214.697,-441.937,5481.705,2361.748,-37497.337
1512178767,72.700,5.100,373.900,63840.000,-35830.000,974370.000,286000.000,-229000.000,143000.000,410.992,204.706,-641.804,233.592,-74.846,-600.602,5707.382,2512.077,-37499.184
1512178767,24.200,-2.300,379.100,119510.000,-48650.000,1070190.000,286000.000,-229000.000,143000.000,1096.178,-548.481,-596.117,212.010,66.494,-556.493,5854.675,1912.300,-37500.740
1512178767,43.300,21.000,426.000,86490.000,9400.000,1018070.000,286000.000,-229000.000,143000.000,1677.694,-1031.254,-716.236,82.294,109.740,-271.762,5175.552,1011.284,-37645.409
1512178767,8.900,37.600,475.100,112180.000,-78250.000,1000490.000,286000.000,-229000.000,143000.000,1997.519,-470.139,-624.363,-86.778,71.180,265.674,4041.061,-1090.416,-37711.815
1512178767,64.600,20.000,453.000,149230.000,-86550.000,1046750.000,300000.000,-215000.000,160000.000,1822.210,53.841,-505.683,-118.818,58.938,322.365,3508.636,-2741.219,-37708.122
1512178767,-5.900,9.700,434.600,146670.000,-52730.000,991640.000,300000.000,-215000.000,160000.000,1445.274,266.682,-393.137,-99.618,77.431,263.030,4029.587,-3640.434,-37713.005
1512178767,-121.000,52.600,429.000,120360.000,-36680.000,862730.000,300000.000,-215000.000,160000.000,1970.899,-969.922,-716.040,-6.577,105.098,50.562,4797.897,410.713,-37567.513
1512178767,27.000,51.100,392.700,99670.000,-62010.000,977050.000,300000.000,-215000.000,160000.000,1115.668,151.613,-257.593,-44.255,107.576,154.935,4025.238,-4615.440,-37638.451
1512178767,32.500,69.200,387.100,177000.000,-115720.000,1032960.000,302000.000,-223000.000,142000.000,948.796,-104.239,-106.322,-25.602,132.313,88.995,4393.570,-6114.891,-37492.332
1512178767,41.900,73.200,399.500,126280.000,-22460.000,1091490.000,302000.000,-223000.000,142000.000,843.047,-374.911,22.328,-33.388,162.709,79.606,4317.520,-6340.004,-37566.795
1512178767,-53.000,43.100,415.100,96250.000,10380.000,1047420.000,302000.000,-223000.000,142000.000,699.843,-540.852,100.698,-66.159,187.465,117.761,3566.422,-6566.124,-37710.518
1512178767,-16.200,64.200,432.100,47730.000,-28630.000,969360.000,302000.000,-223000.000,142000.000,520.462,-613.787,114.905,-87.065,207.249,143.861,2887.299,-7467.155,-37855.202
1512178767,-41.500,54.500,523.600,46080.000,29660.000,862980.000,302000.000,-223000.000,142000.000,339.093,-625.830,122.896,-78.236,209.677,156.383,2208.511,-8293.159,-37999.855
1512178767,-44.600,4.400,567.400,123290.000,-71230.000,998780.000,305000.000,-202000.000,145000.000,195.586,-621.858,162.405,-67.542,201.770,149.211,2135.117,-7918.282,-38149.040
1512178767,46.900,8.000,431.700,76420.000,16300.000,1073060.000,305000.000,-202000.000,145000.000,142.874,-567.524,193.812,-57.809,208.907,150.188,1985.718,-7768.501,-38297.691
1512178767,-6.400,-6.500,440.000,80510.000,-2690.000,1056270.000,305000.000,-202000.000,145000.000,143.105,-432.912,186.823,-50.995,209.495,164.181,1159.485,-7994.743,-38740.791
1512178767,55.800,24.200,428.900,39000.000,-32230.000,972230.000,305000.000,-202000.000,145000.000,160.026,-291.917,201.416,-39.179,203.127,161.625,859.589,-7995.186,-38513.237
1512178767,129.200,69.800,405.900,125310.000,-63350.000,936220.000,305000.000,-202000.000,145000.000,192.871,-243.828,215.917,-31.455,179.545,151.110,934.555,-7995.079,-38588.875
1512178767,-56.100,-10.900,413.600,99430.000,-61340.000,930910.000,307000.000,-190000.000,140000.000,43.288,-223.737,205.293,-42.808,141.822,184.151,559.204,-8070.633,-38623.215
1512178767,-53.800,5.600,408.400,90330.000,-66530.000,884090.000,307000.000,-190000.000,140000.000,-318.827,-51.496,63.658,-32.330,96.181,195.990,413.528,-7095.855,-38733.993
1512178767,-67.800,-13.200,402.900,108340.000,-91550.000,920840.000,307000.000,-190000.000,140000.000,-655.966,194.662,-166.908,56.641,25.545,107.638,865.707,-6570.183,-39112.579
1512178767,6.700,-0.900,420.500,91490.000,-63960.000,990300.000,307000.000,-190000.000,140000.000,-887.695,332.108,-168.722,96.428,-47.094,54.886,1360.649,-4881.943,-39415.931
1512178767,-22.600,9.500,433.800,82210.000,-48340.000,940190.000,319000.000,-178000.000,138000.000,-1804.213,1281.694,-42.239,202.697,-25.738,-108.489,2796.234,-2517.280,-39539.459
1512178767,44.500,45.100,422.100,111150.000,-21300.000,1096190.000,319000.000,-178000.000,138000.000,-1155.666,600.839,127.363,377.047,186.830,-520.865,4645.416,110.489,-39816.361
1512178767,119.800,39.300,422.500,90520.000,-23070.000,1089720.000,319000.000,-178000.000,138000.000,-245.157,-375.820,-88.853,215.752,157.868,-136.584,4649.300,935.493,-39478.477
1512178767,109.300,36.000,459.300,113650.000,-36930.000,1079650.000,319000.000,-178000.000,138000.000,-488.334,286.702,144.998,159.967,14.153,196.466,4579.902,2172.890,-39402.268
1512178767,-56.900,42.200,488.600,92710.000,-85020.000,1000790.000,319000.000,-178000.000,138000.000,-577.657,559.730,564.680,125.672,40.537,165.315,5297.111,3223.968,-39445.343
1512178767,-53.800,68.000,435.700,122380.000,-135740.000,949040.000,318000.000,-179000.000,147000.000,-353.136,247.605,574.843,15.923,52.311,241.243,5787.842,3937.203,-39411.659
1512178767,-71.000,78.800,414.100,84720.000,-130680.000,854680.000,318000.000,-179000.000,147000.000,-349.349,306.770,639.067,-52.850,-25.492,346.964,6351.128,4125.550,-39528.854
1512178767,19.400,79.800,417.500,58290.000,-128480.000,1077090.000,318000.000,-179000.000,147000.000,-411.554,583.673,739.872,-69.134,-82.484,262.097,7555.787,5139.855,-39351.082
1512178768,140.200,104.500,433.200,48950.000,-84720.000,1043520.000,318000.000,-179000.000,147000.000,-511.833,506.008,772.261,-34.122,-109.845,88.703,8121.262,5815.712,-39468.056
1512178768,100.700,119.700,447.000,51330.000,-102910.000,994080.000,318000.000,-179000.000,147000.000,-566.510,236.729,777.995,-26.522,-124.773,-28.995,8798.065,6191.719,-39248.619
1512178768,83.400,87.600,449.700,13490.000,-75010.000,1009090.000,316000.000,-156000.000,142000.000,-665.321,-42.153,744.680,-57.483,-142.962,-85.222,9024.643,6567.055,-39475.365
1512178768,69.900,66.700,441.700,-6770.000,-88680.000,1042360.000,316000.000,-156000.000,142000.000,-875.195,-247.401,662.038,-88.234,-159.994,-131.311,9026.062,6867.058,-39325.218
1512178768,108.100,62.300,455.700,10800.000,-61890.000,1013730.000,316000.000,-156000.000,142000.000,-1095.660,-407.806,576.196,-113.011,-175.452,-194.718,9103.241,7392.174,-39700.615
1512178768,58.200,38.100,444.100,-730.000,-67260.000,1048710.000,316000.000,-156000.000,142000.000,-1246.453,-493.157,407.410,-119.575,-142.667,-257.015,8658.157,8441.505,-39321.297
1512178768,117.700,18.500,448.300,28690.000,-59330.000,1053650.000,312000.000,-146000.000,135000.000,-1103.580,-410.188,150.713,-101.370,-77.814,-348.034,8514.343,9791.298,-39094.414
1512178768,-42.900,-49.000,462.500,16970.000,-48520.000,1049990.000,312000.000,-146000.000,135000.000,-531.747,-288.053,-127.345,-48.346,-36.677,-439.135,8067.413,10465.630,-39015.266
1512178768,-106.100,-9.500,472.700,15380.000,-13550.000,1019840.000,312000.000,-146000.000,135000.000,194.408,-209.641,-328.700,-27.651,-55.539,-451.600,7769.028,10840.172,-39162.560
1512178768,35.600,-2.100,493.800,26370.000,310.000,1036190.000,312000.000,-146000.000,135000.000,575.568,-30.356,-483.526,-46.877,-113.216,-363.563,7243.530,10764.397,-39458.122
1512178768,62.300,-3.100,498.500,20510.000,-39670.000,1021060.000,312000.000,-146000.000,135000.000,383.370,190.662,-583.620,-51.315,-176.376,-317.287,6867.447,10538.826,-39605.034
1512178768,36.400,8.400,486.200,54080.000,-117070.000,980040.000,307000.000,-151000.000,143000.000,-90.410,301.092,-615.686,15.018,-169.339,-373.075,6791.321,10313.713,-39829.506
1512178768,12.900,-2.100,481.500,77760.000,-69090.000,989750.000,307000.000,-151000.000,143000.000,-197.187,182.355,-610.180,106.768,-90.189,-480.600,6717.453,10538.597,-39603.752
1512178768,25.300,7.200,466.100,105650.000,-117980.000,1051090.000,307000.000,-151000.000,143000.000,250.805,-202.647,-580.514,145.057,23.195,-517.242,6717.377,10538.597,-39753.761
1512178768,67.800,16.400,474.200,39120.000,-67990.000,978700.000,307000.000,-151000.000,143000.000,1006.880,-499.463,-610.038,63.595,69.401,-351.387,6192.139,10537.819,-40199.303
1512178768,14.000,12.000,472.200,58350.000,-136470.000,941770.000,307000.000,-151000.000,143000.000,1545.513,-345.865,-618.755,-33.446,65.786,-94.551,4756.454,8210.655,-40638.252
1512178768,68.300,22.800,476.700,49990.000,-138180.000,982360.000,325000.000,-116000.000,126000.000,1768.068,11.187,-586.572,-91.811,58.573,75.712,4753.906,7685.646,-41013.496
1512178768,77.200,18.800,485.900,103820.000,-139160.000,1034300.000,325000.000,-116000.000,126000.000,1835.926,288.952,-550.508,-111.950,49.702,141.107,4596.634,6110.420,-41387.947
1512178768,-32.400,-16.100,507.100,84840.000,-65310.000,1072570.000,325000.000,-116000.000,126000.000,1787.184,462.886,-495.173,-88.076,61.550,156.512,4964.355,4535.973,-41766.853
1512178768,-71.900,-25.000,509.300,63900.000,-67870.000,1098820.000,325000.000,-116000.000,126000.000,1673.722,463.470,-337.973,-45.490,70.511,126.427,5032.501,3036.079,-41993.187
1512178768,-222.900,-45.500,524.900,42970.000,-63660.000,941960.000,303000.000,-119000.000,154000.000,1506.256,257.746,-148.157,-31.413,92.687,90.681,4801.376,1685.722,-42066.902
1512178768,-74.600,-71.800,527.300,67200.000,-73910.000,911130.000,303000.000,-119000.000,154000.000,1268.456,-67.580,-30.137,-43.400,133.871,89.850,5022.369,786.064,-41994.225
1512178768,5.100,-68.000,550.500,71290.000,-29480.000,1112120.000,303000.000,-119000.000,154000.000,968.979,-412.084,12.297,-77.344,171.177,120.124,4567.520,-264.626,-42215.889
1512178768,-84.800,-54.300,614.100,22520.000,1530.000,1097050.000,303000.000,-119000.000,154000.000,712.651,-586.634,32.495,-110.592,190.788,176.355,4265.472,-715.080,-42288.551
1512178768,-162.600,-73.500,632.400,-9280.000,-14530.000,1010620.000,303000.000,-119000.000,154000.000,570.818,-488.590,40.377,-133.321,201.956,224.145,3811.676,-1540.764,-42435.112
1512178768,-165.100,-69.500,533.400,51880.000,-4090.000,1090330.000,309000.000,-121000.000,135000.000,517.161,-270.824,72.338,-129.519,200.699,216.748,3134.354,-2066.780,-42354.607
1512178768,-199.100,-51.400,517.200,82760.000,-39000.000,1008610.000,309000.000,-121000.000,135000.000,415.350,-104.549,177.515,-81.613,200.612,169.575,2980.774,-2854.508,-42428.696
1512178768,-181.500,-46.100,521.800,7390.000,-62190.000,1008970.000,309000.000,-121000.000,135000.000,40.501,-364.405,302.305,-54.026,192.004,140.746,2566.811,-3155.128,-42650.329
1512178768,-110.100,-10.700,485.800,73850.000,-105290.000,986570.000,309000.000,-121000.000,135000.000,-348.619,-493.577,232.256,-117.106,172.876,241.758,1479.957,-3006.760,-42678.520
1512178768,-187.400,-22.900,455.000,54810.000,-141360.000,979610.000,303000.000,-116000.000,133000.000,-515.809,11.309,19.444,-81.149,129.230,254.959,1031.288,-2707.428,-42712.051
1512178768,-78.600,-25.800,447.100,102110.000,-137020.000,910340.000,303000.000,-116000.000,133000.000,-938.625,350.151,-150.209,61.990,69.415,127.359,1525.109,-1281.693,-42903.031
1512178768,-67.800,-10.300,434.400,95520.000,-172300.000,925420.000,303000.000,-116000.000,133000.000,-1503.047,122.325,-164.509,172.372,-0.425,-44.976,2245.651,481.895,-42683.281
1512178768,-38.700,-26.400,431.800,143010.000,-157170.000,988830.000,303000.000,-116000.000,133000.000,-1959.726,490.195,-186.905,233.673,6.998,-169.425,2671.615,3445.030,-42422.920
1512178768,55.800,-42.300,439.800,119020.000,-116940.000,1008970.000,303000.000,-116000.000,133000.000,-1443.049,377.407,-8.707,394.262,123.431,-437.709,3660.064,6371.513,-41867.356
1512178768,-30.600,-51.400,466.300,77450.000,-174440.000,956240.000,314000.000,-119000.000,137000.000,-275.999,-226.388,-53.599,317.870,111.571,-230.736,3818.168,8134.246,-41530.320
1512178768,57.400,-14.800,518.400,100770.000,-161380.000,1011600.000,314000.000,-119000.000,137000.000,49.560,230.662,266.126,254.825,-21.472,75.132,3516.671,7796.295,-41490.425
1512178768,128.100,-7.700,527.700,103820.000,-137020.000,966800.000,314000.000,-119000.000,137000.000,-432.188,215.694,711.637,175.211,-10.815,126.261,4230.202,8022.369,-41458.878
1512178768,83.900,-2.500,565.500,107120.000,-153320.000,1007080.000,314000.000,-119000.000,137000.000,-522.530,-211.307,771.207,44.141,42.854,202.791,4534.210,8885.323,-41198.524
1512178769,24.600,-30.200,499.900,90330.000,-91130.000,1100890.000,314000.000,-119000.000,137000.000,-203.971,-71.390,757.655,-32.277,1.261,320.038,4236.511,9409.874,-41308.235
1512178769,47.400,20.600,540.000,114560.000,-94910.000,1036440.000,319000.000,-121000.000,135000.000,-129.189,202.172,760.753,-58.916,-26.207,358.078,4463.318,9785.225,-41084.969
1512178769,-46.300,53.400,538.000,129330.000,-140200.000,1000730.000,319000.000,-121000.000,135000.000,-213.508,391.085,776.180,-60.043,-64.312,333.555,4987.869,9711.006,-41314.476
1512178769,-81.000,51.800,533.800,159970.000,-106450.000,1127440.000,319000.000,-121000.000,135000.000,-313.061,443.221,803.703,-57.850,-95.164,257.309,5289.230,10011.452,-41316.887
1512178769,-32.200,76.700,508.000,172910.000,-78740.000,1120060.000,319000.000,-121000.000,135000.000,-445.630,301.982,819.413,-43.156,-123.541,163.820,6038.956,9937.584,-41173.286
1512178769,15.700,155.500,537.400,135130.000,-118230.000,1061340.000,298000.000,-96000.000,142000.000,-589.554,11.114,870.686,-32.796,-131.307,84.450,6188.660,9862.801,-41099.602
1512178769,-105.300,169.400,574.300,143370.000,-70980.000,987980.000,298000.000,-96000.000,142000.000,-602.919,-134.365,962.733,-60.413,-143.325,28.651,6341.064,10388.039,-41025.627
1512178769,-64.800,165.200,549.000,174380.000,-71170.000,1057310.000,298000.000,-96000.000,142000.000,-409.741,-58.333,1018.035,-98.395,-133.756,-39.573,6493.118,10838.264,-40951.714
1512178769,66.000,242.900,493.500,49740.000,-127010.000,1024110.000,298000.000,-96000.000,142000.000,-109.845,166.588,943.204,-153.458,-94.607,-107.364,6867.859,10763.832,-40804.924
1512178769,218.800,271.900,510.100,12270.000,-76720.000,1018010.000,298000.000,-96000.000,142000.000,201.683,368.405,679.773,-193.862,-77.033,-198.647,7468.460,10914.726,-40959.969
1512178769,172.000,266.400,504.400,97530.000,-127560.000,1024410.000,305000.000,-61000.000,135000.000,332.231,464.367,332.334,-164.073,-71.373,-279.376,7917.084,10615.395,-41038.918
1512178769,46.700,251.100,373.000,-36620.000,-98630.000,951480.000,305000.000,-61000.000,135000.000,225.215,295.905,90.334,-84.148,-106.442,-373.336,8667.831,10766.533,-40895.226
1512178769,135.300,281.000,328.000,11720.000,-108460.000,919010.000,305000.000,-61000.000,135000.000,102.337,-135.574,-43.008,-3.089,-104.313,-450.871,8817.123,10616.753,-40971.581
1512178769,176.700,295.300,327.000,-49320.000,-88320.000,941960.000,305000.000,-61000.000,135000.000,139.650,-550.754,-193.162,-26.234,-95.947,-433.373,8816.483,10466.743,-40896.645
1512178769,111.100,186.200,400.300,-117490.000,-93020.000,1037720.000,305000.000,-61000.000,135000.000,238.010,-614.265,-406.231,-94.720,-90.101,-341.915,7615.082,10239.952,-41636.543
1512178769,-21.400,83.800,493.900,-156980.000,-104310.000,1003780.000,249000.000,-82000.000,172000.000,123.664,-187.800,-628.148,-136.008,-106.397,-259.618,7390.793,10389.610,-41559.563
1512178769,-108.400,-7.600,493.200,-82640.000,-161620.000,986760.000,249000.000,-82000.000,172000.000,-166.463,366.464,-785.001,-30.691,-74.275,-343.207,7088.898,9939.156,-41332.222
1512178769,-242.100,-112.700,504.300,1460.000,-126590.000,972780.000,249000.000,-82000.000,172000.000,-149.186,442.217,-731.189,120.379,-0.636,-526.175,7542.145,10689.842,-41560.692
1512178769,-339.400,-288.300,535.300,-49680.000,-1950.000,1080870.000,249000.000,-82000.000,172000.000,435.797,-130.613,-676.731,227.681,117.101,-563.214,7467.484,10764.732,-41560.020
1512178769,-228.600,-219.200,553.400,-29970.000,-105710.000,1275760.000,244000.000,-70000.000,160000.000,1313.755,-728.274,-806.810,154.132,182.277,-358.139,6335.785,9338.036,-42151.115
1512178769,-119.300,-171.200,616.400,33750.000,-59080.000,1044070.000,244000.000,-70000.000,160000.000,1977.697,-844.524,-929.790,47.692,163.321,-67.036,5578.766,7836.891,-42670.433
1512178769,-161.700,-178.200,601.500,17090.000,-142520.000,1013000.000,244000.000,-70000.000,160000.000,2154.822,-532.473,-858.973,-15.318,95.295,169.380,4746.552,6260.643,-42889.137
1512178769,-181.200,-225.300,595.100,7870.000,-148620.000,1008360.000,244000.000,-70000.000,160000.000,1916.760,-103.762,-689.298,-49.145,49.006,287.829,4514.587,4760.292,-43337.929
1512178769,-40.300,-161.400,587.600,27650.000,-124570.000,984250.000,244000.000,-70000.000,160000.000,1437.769,180.394,-525.745,-34.523,47.282,279.460,4511.246,4010.292,-43263.268
1512178769,-57.900,-139.200,582.200,23130.000,-172490.000,988400.000,249000.000,-58000.000,162000.000,972.799,152.711,-386.524,23.438,91.781,179.947,4806.107,2885.735,-43416.344
1512178769,10.700,-114.100,523.700,21300.000,-163700.000,1034610.000,249000.000,-58000.000,162000.000,737.107,-127.757,-265.119,53.808,127.949,98.195,4426.224,1835.167,-43713.631
1512178769,12.500,-108.100,527.000,23620.000,-135560.000,944150.000,249000.000,-58000.000,162000.000,632.923,-552.305,-110.333,40.981,184.201,116.013,3859.978,1009.316,-43784.233
1512178769,-57.100,-117.200,531.600,89170.000,-166440.000,894900.000,249000.000,-58000.000,162000.000,729.738,-455.173,3.345,-25.615,206.100,254.777,2918.518,145.401,-43926.666
1512178769,-86.200,-103.100,533.000,130430.000,-221860.000,925050.000,249000.000,-58000.000,162000.000,722.861,-13.902,215.861,-28.727,182.718,320.878,2837.876,-1092.217,-44076.606
1512178769,25.000,-33.300,583.200,149600.000,-218990.000,898130.000,230000.000,-66000.000,164000.000,336.318,248.590,331.639,-52.058,182.001,321.866,2831.672,-2442.230,-44339.721
1512178769,-72.600,-27.200,584.300,70560.000,-172550.000,891360.000,230000.000,-66000.000,164000.000,-339.663,39.649,134.025,-69.303,152.078,275.371,3170.540,-2141.716,-44304.954
1512178769,5.500,-28.400,590.300,72080.000,-168330.000,1001460.000,230000.000,-66000.000,164000.000,-744.369,82.719,-81.701,-89.371,82.648,223.100,3098.297,-1504.333,-44529.015
1512178769,-5.600,-18.200,619.700,35640.000,-185360.000,1089840.000,230000.000,-66000.000,164000.000,-892.891,479.411,-398.030,-35.360,16.916,84.418,3553.657,-303.643,-44607.292
1512178769,43.700,16.600,606.900,54570.000,-180110.000,1051090.000,230000.000,-52000.000,170000.000,-973.278,559.281,-335.486,172.407,-114.201,-170.219,4726.044,1873.108,-44428.673
1512178769,107.100,110.300,600.400,58960.000,-197810.000,1056760.000,230000.000,-52000.000,170000.000,-915.015,597.329,-85.053,184.920,-166.104,-214.745,5520.149,3336.800,-44397.187
1512178769,158.500,87.000,525.200,70070.000,-154110.000,1088810.000,230000.000,-52000.000,170000.000,-1207.999,1245.325,161.882,351.462,-58.743,-344.914,7064.743,4876.625,-44072.045
1512178769,141.100,77.000,486.300,33020.000,-156800.000,1118350.000,230000.000,-52000.000,170000.000,-640.764,158.778,426.439,437.543,109.556,-482.078,8874.267,6941.833,-43598.900
1512178769,93.200,106.700,457.800,9950.000,-176700.000,1072690.000,230000.000,-52000.000,170000.000,93.297,-359.717,396.360,266.440,142.648,-67.123,8423.912,6866.158,-43632.599
1512178770,302.800,114.800,426.800,47420.000,-180850.000,969730.000,240000.000,-56000.000,150000.000,255.275,154.211,456.994,193.486,82.544,190.450,7898.514,6790.367,-43740.669
1512178770,357.700,133.400,402.500,-5190.000,-173520.000,1018310.000,240000.000,-56000.000,150000.000,64.442,371.432,662.870,185.205,43.481,236.664,8348.099,6716.042,-43894.539
1512178770,273.900,132.000,442.000,-550.000,-166990.000,887760.000,240000.000,-56000.000,150000.000,-202.080,292.665,852.754,146.026,37.189,234.734,9395.630,6117.622,-43453.743
1512178770,104.000,84.200,461.300,-16850.000,-190120.000,824160.000,240000.000,-56000.000,150000.000,-353.930,61.667,870.005,82.287,73.096,250.615,9395.630,6117.622,-43453.743
1512178770,130.800,98.700,544.200,-14710.000,-185550.000,868470.000,195000.000,-24000.000,181000.000,-310.336,-97.295,805.056,24.293,77.777,303.394,8947.311,6491.936,-43449.745
1512178770,231.400,73.400,475.500,-69400.000,-95890.000,903140.000,195000.000,-24000.000,181000.000,-170.245,-69.261,779.464,-23.191,55.213,373.939,9097.198,6492.165,-43676.018
1512178770,17.400,18.500,478.700,-71960.000,-133610.000,1010860.000,195000.000,-24000.000,181000.000,-63.434,139.208,777.474,-57.239,22.428,425.637,8948.212,6716.942,-43674.629
1512178770,79.400,55.100,489.000,-64150.000,-82520.000,1013790.000,195000.000,-24000.000,181000.000,-59.521,353.859,809.193,-84.280,-13.765,420.221,9322.174,6492.500,-43752.922
1512178770,13.000,26.800,473.000,-59880.000,-126530.000,1011410.000,195000.000,-24000.000,181000.000,-146.588,488.348,794.541,-101.578,-29.686,373.818,10146.942,6418.739,-43534.966
1512178770,-9.500,-15.400,462.200,-50110.000,-99730.000,1008120.000,173000.000,-28000.000,170000.000,-280.350,482.997,695.573,-104.471,-39.709,274.468,10372.620,6569.084,-43536.812
1512178770,-9.900,-21.300,460.700,-50290.000,-133060.000,1021730.000,173000.000,-28000.000,170000.000,-412.929,289.550,645.006,-74.260,-82.965,142.123,11045.715,6120.094,-43317.757
1512178770,-62.500,-55.500,457.700,-46260.000,-121090.000,1016360.000,173000.000,-28000.000,170000.000,-576.919,-73.835,615.778,-46.556,-127.950,32.349,11424.805,7020.653,-43245.537
1512178770,38.600,6.300,471.100,-43950.000,-115910.000,1004580.000,173000.000,-28000.000,170000.000,-834.782,-440.572,590.511,-34.493,-154.525,-51.230,11426.865,7470.665,-43170.326
1512178770,-24.400,-3.200,468.800,-22580.000,-132630.000,1006230.000,173000.000,-28000.000,170000.000,-1031.097,-640.628,590.168,-60.608,-188.788,-142.253,11205.170,8220.329,-43318.062
1512178770,-6.100,17.400,472.200,0.000,-167850.000,979680.000,179000.000,-26000.000,169000.000,-860.683,-535.579,540.769,-89.525,-171.657,-217.200,10234.726,9193.871,-42934.334
1512178770,12.900,16.000,476.000,-9770.000,-172910.000,965940.000,179000.000,-26000.000,169000.000,-425.438,-259.053,407.318,-108.292,-115.785,-278.638,9784.882,9268.196,-43305.473
1512178770,24.900,13.300,480.000,-1100.000,-133300.000,1021610.000,179000.000,-26000.000,169000.000,84.776,-23.905,185.256,-113.328,-81.976,-338.239,10086.716,9643.654,-43007.835
1512178770,11.100,26.200,480.600,-11840.000,-169430.000,1006040.000,179000.000,-26000.000,169000.000,459.752,-80.403,-123.995,-91.944,-58.166,-397.200,10086.655,9643.654,-43157.845
1512178770,11.900,47.400,501.900,27100.000,-167850.000,1000920.000,173000.000,-21000.000,160000.000,732.479,-396.595,-451.622,-58.821,-61.455,-413.520,9784.515,9193.199,-43380.501
1512178770,47.000,56.100,480.000,-240.000,-137330.000,986020.000,173000.000,-21000.000,160000.000,839.185,-692.845,-731.483,-54.035,-103.449,-357.409,8730.713,8366.615,-43521.950
