unixtime,rx,ry,rz,ax,ay,az,mx,my,mz,apprx,appry,apprz,appax,appay,appaz,appmx,appmy,appmz
1512178564,-42.100,7.200,157.300,-36930.000,65120.000,1009890.000,-14000.000,-128000.000,-326000.000,2.755,34.954,-32.233,21.625,-27.032,66.301,-12492.355,-41615.211,-39841.545
1512178564,-71.100,-18.900,151.700,-52190.000,38570.000,1005370.000,-14000.000,-128000.000,-326000.000,-67.137,104.195,6.435,26.167,-16.741,53.673,-12494.095,-41990.211,-39916.725
1512178564,-87.900,-49.700,147.500,-75620.000,37540.000,935000.000,-14000.000,-128000.000,-326000.000,-98.565,78.455,36.809,25.417,-1.632,-0.514,-12492.477,-41615.211,-40066.551
1512178564,30.000,16.100,143.300,-51820.000,46260.000,878540.000,-14000.000,-128000.000,-326000.000,-69.803,34.705,36.007,23.688,12.095,-37.802,-12494.949,-42140.221,-40291.801
1512178564,52.600,1.500,144.300,-16660.000,75500.000,947880.000,-10000.000,-128000.000,-313000.000,17.754,18.833,26.559,15.049,13.663,-43.712,-12490.860,-41240.211,-40216.377
1512178564,-24.200,-9.700,138.600,-31740.000,56700.000,955080.000,-10000.000,-128000.000,-313000.000,52.230,46.706,6.905,15.502,21.209,-34.120,-12493.454,-41840.218,-39991.661
1512178564,-68.800,-34.100,137.200,-59080.000,53770.000,970030.000,-10000.000,-128000.000,-313000.000,60.939,28.577,-5.829,22.913,22.297,-47.327,-12192.703,-41689.766,-39844.139
1512178564,-31.400,-8.100,136.800,-48280.000,91490.000,920590.000,-10000.000,-128000.000,-313000.000,117.352,-31.158,-3.086,32.963,22.698,-48.884,-12273.102,-42889.885,-39844.048
1512178564,-9.500,-23.300,130.900,-40590.000,79040.000,894780.000,-12000.000,-148000.000,-301000.000,170.598,-17.199,0.932,20.652,21.887,-10.649,-12047.653,-42814.552,-39620.934
1512178564,41.800,15.000,128.900,-46750.000,82280.000,941100.000,-12000.000,-148000.000,-301000.000,124.935,-5.499,-9.283,19.541,27.542,15.422,-12499.527,-43190.224,-39992.287
1512178564,28.600,1.300,121.700,-35220.000,64640.000,956240.000,-12000.000,-148000.000,-301000.000,40.889,-18.423,-20.140,13.663,34.841,20.625,-11894.989,-42289.314,-39021.980
1512178564,9.300,-3.200,118.500,-34850.000,51640.000,977170.000,-12000.000,-148000.000,-301000.000,-3.252,-25.893,-59.185,8.962,51.483,1.583,-11969.650,-42214.439,-39021.294
1512178564,-14.800,19.400,116.600,-20140.000,39310.000,1002380.000,-12000.000,-148000.000,-301000.000,15.592,-30.047,-102.632,18.245,66.435,-20.147,-11671.631,-42663.994,-38949.059
1512178564,-14.500,-12.400,111.200,-64760.000,60910.000,971310.000,-7000.000,-142000.000,-319000.000,89.670,-26.671,-134.598,19.174,69.279,-25.495,-11369.461,-42213.539,-38651.405
1512178564,36.800,12.500,106.800,-53830.000,29170.000,890810.000,-7000.000,-142000.000,-319000.000,121.914,-42.604,-150.172,35.975,65.289,-22.768,-11147.018,-42813.210,-38353.584
1512178564,48.600,30.400,104.400,-62260.000,87160.000,1009400.000,-7000.000,-142000.000,-319000.000,142.083,-55.408,-146.731,40.150,51.022,-4.096,-11298.843,-43188.423,-38652.489
1512178564,-50.100,-52.300,103.200,-28020.000,39980.000,931520.000,-7000.000,-142000.000,-319000.000,108.776,-73.644,-131.284,40.131,50.699,11.923,-11068.527,-42063.087,-38128.883
1512178564,69.200,59.100,105.200,-90820.000,48580.000,898070.000,-7000.000,-142000.000,-319000.000,60.989,-71.553,-141.560,32.661,52.638,33.850,-10996.216,-42662.987,-38129.799
1512178564,54.100,-0.100,106.400,-56580.000,32230.000,914060.000,-7000.000,-156000.000,-316000.000,-18.922,-44.973,-143.694,33.628,51.998,38.943,-10547.241,-42887.306,-38133.720
1512178564,64.800,34.900,103.100,-52550.000,29660.000,953190.000,-7000.000,-156000.000,-316000.000,-81.688,-76.028,-153.241,41.763,61.398,2.907,-10320.175,-42436.974,-38060.432
1512178564,-2.400,-40.300,100.900,-73850.000,37050.000,914060.000,-7000.000,-156000.000,-316000.000,-42.964,-105.838,-176.239,30.329,58.867,-6.765,-10096.100,-42661.629,-37912.437
1512178564,25.700,37.800,96.700,-66890.000,94300.000,983640.000,-7000.000,-156000.000,-316000.000,5.496,-48.022,-201.983,15.401,67.005,2.829,-10022.156,-42886.513,-37988.182
1512178564,-45.700,-24.400,91.500,-82520.000,98820.000,979250.000,-5000.000,-172000.000,-321000.000,1.820,-6.304,-236.007,20.814,63.080,4.115,-9720.016,-42436.073,-37765.526
1512178564,15.000,9.300,87.900,-84050.000,114560.000,971250.000,-5000.000,-172000.000,-321000.000,-14.484,1.108,-217.029,25.584,43.002,-8.836,-9569.946,-42435.844,-37616.798
1512178564,0.400,-19.800,86.000,-86490.000,92100.000,947750.000,-5000.000,-172000.000,-321000.000,35.567,55.653,-210.783,18.022,42.722,-17.412,-9569.565,-42360.832,-37541.771
1512178564,10.400,-9.900,76.800,-60910.000,38510.000,942320.000,-5000.000,-172000.000,-321000.000,56.041,5.509,-226.652,16.653,48.375,-23.888,-9119.598,-42360.161,-37620.583
1512178564,38.500,-39.300,72.200,-51940.000,52120.000,907230.000,-5000.000,-172000.000,-321000.000,-7.617,-3.223,-180.698,11.166,30.977,-23.761,-8631.165,-42171.928,-37437.149
1512178564,45.500,61.400,66.300,-72390.000,46690.000,904790.000,7000.000,-156000.000,-319000.000,8.435,26.054,-118.532,-9.979,30.166,-12.177,-8217.880,-42021.302,-37215.592
1512178564,-8.500,10.800,65.800,-57620.000,97290.000,958860.000,7000.000,-156000.000,-319000.000,-8.432,72.856,-30.663,-31.844,25.285,-14.395,-7730.713,-42095.581,-37219.773
1512178564,-20.100,-2.700,65.400,-101500.000,73430.000,955750.000,7000.000,-156000.000,-319000.000,-22.014,83.893,50.200,-42.935,28.926,-25.660,-7279.365,-41832.405,-36885.971
1512178564,-93.900,-30.000,69.100,-58720.000,93810.000,945980.000,7000.000,-156000.000,-319000.000,90.579,247.177,211.773,-34.093,36.480,-71.406,-7015.999,-41644.508,-36850.617
1512178564,21.200,57.800,68.700,-109310.000,67260.000,944400.000,1000.000,-169000.000,-314000.000,96.716,152.440,320.272,-40.190,56.695,-71.155,-6901.336,-41194.335,-36588.867
1512178564,-72.600,-22.200,63.900,-81850.000,50840.000,963680.000,1000.000,-169000.000,-314000.000,92.402,232.345,424.430,-49.816,66.656,-36.150,-7013.618,-41194.503,-36137.909
1512178564,74.600,71.000,71.100,-59390.000,54750.000,998780.000,1000.000,-169000.000,-314000.000,145.771,274.022,454.128,-49.259,99.415,-34.712,-7348.656,-40707.512,-35609.825
1512178564,-22.200,-21.600,64.300,-73490.000,12630.000,954960.000,1000.000,-169000.000,-314000.000,157.654,295.960,446.384,-33.598,81.440,-17.471,-7502.671,-41607.735,-35533.959
1512178564,-65.900,-3.100,58.300,-10560.000,8120.000,954220.000,1000.000,-169000.000,-314000.000,161.637,355.017,562.846,-24.428,62.166,15.827,-7347.183,-40482.506,-34672.226
1512178564,-43.000,27.200,62.500,-38450.000,62010.000,998660.000,-19000.000,-169000.000,-314000.000,98.708,459.527,602.275,-22.752,83.250,18.441,-7572.143,-40520.340,-34257.828
1512178564,-51.100,-16.500,51.800,-29050.000,55790.000,1003480.000,-19000.000,-169000.000,-314000.000,57.168,420.358,663.371,-24.250,89.716,5.628,-8059.914,-40596.077,-34103.721
1512178565,-65.800,-41.500,61.100,-94540.000,92710.000,920530.000,-19000.000,-169000.000,-314000.000,-13.109,498.165,694.070,-41.768,103.773,32.246,-8057.861,-40183.571,-33728.539
1512178565,38.700,34.800,55.000,-74710.000,100770.000,919980.000,-19000.000,-169000.000,-314000.000,-40.510,508.843,675.588,-34.720,111.199,6.204,-8205.841,-39733.788,-33727.043
1512178565,-23.300,-53.100,55.800,-84720.000,68600.000,886230.000,-19000.000,-169000.000,-314000.000,-19.271,503.524,680.141,-35.162,101.217,4.984,-8128.738,-39283.669,-33577.492
1512178565,50.500,45.400,51.700,-20200.000,33870.000,868900.000,-1000.000,-169000.000,-304000.000,-23.592,518.458,683.324,-28.013,97.496,12.307,-8204.071,-39358.788,-33576.881
1512178565,27.000,57.000,48.600,-44920.000,4760.000,938110.000,-1000.000,-169000.000,-304000.000,-89.102,490.537,712.132,-22.215,68.919,31.110,-8204.300,-39433.784,-33351.921
1512178565,25.000,48.200,49.900,-30940.000,47850.000,934080.000,-1000.000,-169000.000,-304000.000,-193.971,539.461,738.500,-22.834,51.073,51.910,-8277.573,-39058.891,-33276.100
1512178565,21.300,24.000,48.600,-54570.000,61040.000,964170.000,-1000.000,-169000.000,-304000.000,-301.897,565.967,755.152,-14.033,42.059,40.846,-8200.623,-38608.788,-33426.537
1512178565,-37.000,-5.300,58.500,-127870.000,101260.000,936400.000,-7000.000,-167000.000,-319000.000,-464.197,471.696,766.331,1.347,40.388,19.385,-8499.908,-38459.236,-33348.915
1512178565,41.400,5.200,62.600,-60420.000,127870.000,958920.000,-7000.000,-167000.000,-319000.000,-629.087,356.134,740.089,7.392,41.574,-26.520,-8646.652,-37709.450,-33572.289
1512178565,-16.800,8.800,59.100,-91430.000,82520.000,996700.000,-7000.000,-167000.000,-319000.000,-548.312,298.673,686.687,10.108,36.848,-47.412,-9395.935,-37485.573,-34165.810
1512178565,-90.100,-49.800,59.400,-37840.000,74950.000,934810.000,-7000.000,-167000.000,-319000.000,-376.045,365.363,587.074,-2.404,17.398,-29.756,-9616.180,-36435.905,-34088.417
1512178565,45.000,30.900,58.300,-71230.000,80750.000,943240.000,-7000.000,-167000.000,-319000.000,-262.380,356.133,482.084,5.332,-17.274,-9.396,-9388.855,-35910.561,-34165.077
1512178565,-54.300,-34.400,55.700,-64330.000,87830.000,974120.000,-8000.000,-151000.000,-311000.000,-270.424,221.600,446.320,24.418,-75.505,22.974,-9614.487,-36060.905,-34088.234
1512178565,-28.500,-6.300,58.100,-103270.000,102110.000,956240.000,-8000.000,-151000.000,-311000.000,-391.403,25.762,532.367,36.240,-149.619,58.317,-9838.562,-35836.235,-34236.214
1512178565,2.700,-57.500,54.500,-67990.000,131230.000,888610.000,-8000.000,-151000.000,-311000.000,-610.292,-56.042,679.228,23.635,-190.181,77.180,-10361.191,-35312.019,-34231.514
1512178565,77.900,47.900,50.300,-68360.000,13850.000,975950.000,-8000.000,-151000.000,-311000.000,-876.637,-176.312,792.216,36.498,-172.595,35.715,-11486.496,-35313.713,-34821.953
1512178565,-74.000,-60.300,51.100,-36380.000,46750.000,913210.000,-7000.000,-167000.000,-292000.000,-1190.959,-685.143,1274.145,112.562,-72.599,-60.559,-12304.520,-33739.937,-35039.223
1512178565,59.400,67.000,61.000,-93810.000,80510.000,976260.000,-7000.000,-167000.000,-292000.000,-1142.086,-1370.197,2027.242,183.617,-21.310,-114.245,-14550.552,-32843.315,-35169.685
1512178565,-77.000,-50.500,55.100,-60060.000,41200.000,988890.000,-7000.000,-167000.000,-292000.000,-709.748,-1330.207,2122.124,52.044,-126.435,-95.668,-17395.050,-31647.575,-34919.899
1512178565,26.200,35.800,57.500,-73180.000,81360.000,938600.000,-7000.000,-167000.000,-292000.000,-500.464,-323.058,1828.034,12.619,5.545,33.462,-18891.006,-30749.825,-34906.731
1512178565,13.600,-23.000,56.300,-58290.000,27340.000,928710.000,-7000.000,-167000.000,-292000.000,-221.685,-160.516,1415.811,-9.825,20.353,-7.889,-19638.672,-30225.945,-34975.121
1512178565,49.500,34.500,54.900,-23990.000,29050.000,902280.000,-1000.000,-169000.000,-301000.000,-50.845,-355.051,1065.807,3.798,-18.257,-29.430,-20835.495,-29552.742,-34664.604
1512178565,43.300,29.200,53.500,-40830.000,52980.000,966370.000,-1000.000,-169000.000,-301000.000,6.659,-362.062,875.793,42.123,-88.230,8.668,-21736.359,-29779.091,-34357.063
1512178565,-65.000,-24.200,54.900,-77820.000,25880.000,989380.000,-1000.000,-169000.000,-301000.000,-30.047,-148.295,785.392,-8.900,-110.743,29.182,-22261.139,-29779.869,-33902.596
1512178565,41.300,-7.900,56.100,-58410.000,118840.000,902040.000,-1000.000,-169000.000,-301000.000,9.675,268.862,529.429,-61.489,-80.019,54.390,-22784.180,-29330.666,-34047.935
1512178565,97.700,30.900,57.300,-112610.000,108150.000,910580.000,-1000.000,-169000.000,-301000.000,90.605,550.952,548.640,-37.201,-97.252,-12.342,-22935.806,-29705.879,-33896.828
1512178565,-26.900,-45.300,60.600,-59200.000,83680.000,947570.000,-12000.000,-169000.000,-308000.000,441.702,704.894,760.546,33.031,-61.779,-57.480,-23125.549,-30193.664,-34007.958
1512178565,22.600,33.600,55.300,-44370.000,63900.000,969060.000,-12000.000,-169000.000,-308000.000,645.171,698.776,768.801,31.207,-27.819,-51.038,-23015.282,-30756.005,-33409.180
1512178565,-91.700,-41.500,54.900,-10930.000,45590.000,960510.000,-12000.000,-169000.000,-308000.000,565.746,616.540,700.738,60.828,-55.312,-36.748,-23245.025,-31881.347,-32770.294
1512178565,24.900,43.400,57.700,-71040.000,48950.000,939580.000,-12000.000,-169000.000,-308000.000,519.290,421.404,760.683,93.356,-62.193,1.152,-23170.967,-32181.236,-31946.067
1512178565,30.900,-21.300,62.200,-78670.000,79960.000,927120.000,-12000.000,-179000.000,-304000.000,389.738,473.757,926.894,90.153,-73.092,29.683,-23809.028,-32369.698,-31378.243
1512178565,117.600,16.000,63.000,-56340.000,41690.000,916320.000,-12000.000,-179000.000,-304000.000,398.933,412.775,980.117,94.456,-18.091,-3.857,-24560.982,-32858.322,-30884.590
1512178565,21.000,-33.700,68.800,-57310.000,78430.000,937930.000,-12000.000,-179000.000,-304000.000,323.668,348.562,983.600,79.396,7.127,29.116,-25084.633,-32634.109,-30205.024
1512178565,37.400,23.800,73.200,-81300.000,86550.000,964780.000,-12000.000,-179000.000,-304000.000,322.224,433.493,978.545,73.974,28.323,34.439,-25798.256,-32935.173,-29749.115
1512178565,-36.000,-26.200,73.800,-27220.000,81180.000,1004330.000,-12000.000,-179000.000,-304000.000,270.888,338.931,951.353,67.264,30.277,37.288,-26396.256,-32561.073,-29106.346
1512178565,45.800,42.700,70.700,-47850.000,37050.000,1004940.000,-8000.000,-162000.000,-304000.000,95.950,241.113,856.265,46.392,14.839,66.760,-27144.287,-32149.697,-28874.778
1512178565,-139.300,-42.600,76.400,-42720.000,49380.000,975650.000,-8000.000,-162000.000,-304000.000,133.066,271.587,869.702,59.109,-13.563,48.117,-27556.862,-32187.821,-28683.792
1512178565,14.500,38.500,74.600,-10500.000,65120.000,957580.000,-8000.000,-162000.000,-304000.000,209.511,369.587,795.992,27.294,1.573,60.236,-27816.795,-31663.200,-28268.822
1512178566,-19.700,-26.600,83.100,-29050.000,54500.000,964230.000,-8000.000,-162000.000,-304000.000,43.933,337.038,653.828,37.604,-23.773,25.771,-27967.392,-31813.438,-28155.113
1512178566,55.700,19.400,87.200,-52190.000,64940.000,923830.000,-8000.000,-162000.000,-304000.000,10.783,262.207,656.285,44.474,-42.060,20.331,-28267.807,-31888.878,-28302.605
1512178566,80.400,8.100,85.400,-50170.000,65550.000,956360.000,-7000.000,-167000.000,-299000.000,-15.873,288.863,657.054,54.851,-35.239,10.584,-28266.129,-31513.878,-28302.422
1512178566,27.300,12.500,89.700,-60240.000,37170.000,949650.000,-7000.000,-167000.000,-299000.000,8.906,223.785,639.068,56.443,-24.889,-30.294,-27965.103,-31288.429,-28304.878
1512178566,-40.700,-34.400,94.900,-35160.000,32170.000,931270.000,-7000.000,-167000.000,-299000.000,89.875,214.418,577.312,30.400,-10.466,-18.414,-28262.039,-30613.869,-28227.013
1512178566,-4.700,36.200,95.700,-15560.000,15080.000,947330.000,-7000.000,-167000.000,-299000.000,138.360,331.100,486.737,6.710,-16.599,15.482,-28187.042,-30613.762,-28227.638
1512178566,-92.000,-49.400,102.000,-57430.000,17640.000,916200.000,-8000.000,-165000.000,-318000.000,139.643,510.699,418.088,-10.498,-16.536,19.104,-28112.930,-30838.646,-28003.395
1512178566,47.300,6.000,110.500,-24540.000,91370.000,897220.000,-8000.000,-165000.000,-318000.000,212.797,461.756,375.268,-21.044,-40.533,-14.312,-27963.043,-30838.417,-28229.668
1512178566,106.800,33.200,116.400,-12080.000,38270.000,919800.000,-8000.000,-165000.000,-318000.000,234.426,256.623,411.113,-34.294,-81.735,-14.230,-27512.726,-30762.749,-28233.452
1512178566,-4.300,24.200,117.000,-18430.000,-30270.000,978150.000,-8000.000,-165000.000,-318000.000,111.080,230.583,520.106,-44.369,-90.782,29.398,-27813.019,-30838.203,-28155.937
1512178566,-36.600,18.100,115.800,-7080.000,-2500.000,981870.000,-8000.000,-165000.000,-318000.000,-84.690,286.812,564.373,-44.876,-57.012,22.329,-27289.825,-31212.410,-28385.567
1512178566,-36.100,2.000,125.800,-38880.000,52730.000,1013670.000,-17000.000,-174000.000,-309000.000,-229.317,275.951,541.984,-39.753,-10.723,-20.927,-27210.403,-30237.297,-28310.768
1512178566,-51.400,-41.800,129.700,-37480.000,41440.000,871340.000,-17000.000,-174000.000,-309000.000,-192.409,219.482,499.682,-34.051,13.276,-55.283,-27060.547,-30237.068,-28612.038
1512178566,124.600,56.300,136.100,-41810.000,85940.000,920650.000,-17000.000,-174000.000,-309000.000,-38.014,96.864,504.690,-31.090,26.230,-41.774,-27284.576,-30012.413,-28685.020
1512178566,47.500,13.700,134.400,-47420.000,19650.000,945500.000,-17000.000,-174000.000,-309000.000,49.831,163.138,545.633,-31.481,27.447,-7.069,-26756.836,-29411.613,-28614.204
1512178566,-19.600,37.400,136.600,-5370.000,21180.000,1037110.000,-17000.000,-174000.000,-309000.000,84.240,205.828,595.323,-51.709,37.939,3.006,-27054.626,-28887.062,-28911.415
1512178566,-42.200,-1.100,138.100,-20080.000,24350.000,991940.000,-5000.000,-179000.000,-311000.000,84.105,200.468,602.763,-69.838,55.304,2.875,-26980.713,-29111.946,-29062.157
1512178566,-55.000,-10.100,139.000,-21420.000,51820.000,886540.000,-5000.000,-179000.000,-311000.000,77.933,146.013,586.493,-79.592,60.038,19.916,-27129.700,-28887.184,-29060.783
1512178566,77.500,42.900,148.200,-30880.000,52490.000,877620.000,-5000.000,-179000.000,-311000.000,23.510,175.829,591.138,-95.073,50.264,38.541,-27204.056,-28737.297,-29135.063
1512178566,40.300,22.200,146.200,16660.000,3110.000,927430.000,-5000.000,-179000.000,-311000.000,-57.933,240.808,620.034,-95.702,41.312,35.957,-27352.448,-28362.511,-29283.623
1512178566,17.800,20.800,153.000,-67990.000,18980.000,900090.000,-7000.000,-192000.000,-309000.000,-131.823,270.568,642.524,-88.270,47.648,16.233,-27277.374,-28287.392,-29809.227
1512178566,29.300,30.400,157.000,-43460.000,8670.000,919800.000,-7000.000,-192000.000,-309000.000,-131.227,347.408,673.711,-71.376,48.554,2.087,-27123.993,-27537.163,-29810.158
1512178566,10.700,16.100,155.500,-24110.000,24900.000,935360.000,-7000.000,-192000.000,-309000.000,-36.182,342.115,729.445,-60.529,39.097,-13.115,-26894.272,-26486.824,-29811.577
1512178566,39.400,1.200,159.700,-17030.000,28630.000,940860.000,-7000.000,-192000.000,-309000.000,42.229,357.127,758.348,-74.769,33.934,11.666,-26669.342,-26486.488,-29963.478
1512178566,101.700,-4.900,167.500,-35710.000,49190.000,861210.000,-7000.000,-192000.000,-309000.000,31.642,379.549,755.075,-76.279,21.372,48.700,-26667.801,-26111.488,-30263.313
1512178566,137.800,40.500,166.400,-64090.000,72080.000,924130.000,-28000.000,-185000.000,-306000.000,-59.391,425.281,781.628,-74.708,2.471,59.342,-26665.939,-25661.476,-30563.103
1512178566,41.500,-34.500,167.500,-36190.000,75560.000,961790.000,-28000.000,-185000.000,-306000.000,-141.981,285.116,838.580,-71.012,-1.592,35.047,-26586.212,-24573.860,-30900.742
1512178566,-28.100,10.400,170.700,-112240.000,76230.000,1030940.000,-28000.000,-185000.000,-306000.000,-201.792,157.968,806.354,-76.915,13.944,47.864,-27181.054,-23374.748,-31382.576
1512178566,-43.100,-46.600,171.400,-56460.000,106080.000,975040.000,-28000.000,-185000.000,-306000.000,-103.797,285.342,753.316,-71.816,-3.236,50.899,-27551.422,-22287.804,-31903.885
1512178566,93.100,-34.400,172.400,-112980.000,117680.000,911500.000,-28000.000,-185000.000,-306000.000,-27.054,312.221,722.538,-62.303,-12.221,50.267,-27209.687,-21312.286,-32206.299
1512178566,54.700,-9.700,169.200,-85750.000,25020.000,884030.000,-36000.000,-197000.000,-294000.000,-110.639,368.248,687.410,-50.750,-46.205,56.709,-27205.864,-20412.285,-32655.891
1512178566,22.900,-37.700,169.100,-52250.000,51880.000,931090.000,-36000.000,-197000.000,-294000.000,-112.873,384.253,694.363,-39.793,-56.194,27.085,-27239.342,-19474.838,-33067.635
1512178566,-72.200,-28.000,169.600,-45720.000,32350.000,992800.000,-36000.000,-197000.000,-294000.000,-76.430,424.853,716.352,-16.708,-83.945,-8.415,-26746.575,-18236.595,-33671.203
1512178566,-61.500,-59.400,175.100,-34550.000,45170.000,969670.000,-36000.000,-197000.000,-294000.000,-5.227,368.738,792.347,-19.937,-88.212,-35.343,-26931.579,-17636.879,-34081.825
1512178566,90.000,15.000,172.800,-5860.000,56580.000,971680.000,-21000.000,-192000.000,-299000.000,62.044,393.954,787.014,-50.035,-89.018,-39.803,-26553.146,-16848.808,-34309.654
1512178566,33.700,-0.500,172.300,5550.000,19710.000,1043520.000,-21000.000,-192000.000,-299000.000,111.118,502.910,821.682,-53.713,-87.809,-76.416,-26513.084,-16211.258,-34909.676
1512178566,-64.000,-62.300,184.400,-50230.000,20630.000,974980.000,-21000.000,-192000.000,-299000.000,199.649,482.757,817.563,-42.157,-64.920,-118.325,-26172.386,-15460.739,-35287.194
1512178566,63.900,28.200,182.800,-14830.000,75200.000,938230.000,-21000.000,-192000.000,-299000.000,334.456,329.155,813.654,-49.842,-70.117,-88.034,-26019.951,-14898.011,-35475.708
1512178567,43.400,-35.400,201.300,-49680.000,49930.000,964110.000,-21000.000,-192000.000,-299000.000,246.261,299.553,859.179,-64.985,-67.465,-19.838,-25944.199,-14710.396,-35663.765
1512178567,-30.800,-10.300,202.100,-26860.000,71720.000,1007870.000,-33000.000,-215000.000,-297000.000,58.595,264.018,860.604,-59.905,-56.790,-8.745,-26317.261,-14260.948,-35810.371
1512178567,59.400,29.300,199.700,-13430.000,17090.000,947630.000,-33000.000,-215000.000,-297000.000,-168.084,206.038,833.663,-62.095,-46.070,0.563,-25864.883,-13735.283,-35813.942
1512178567,5.600,-19.200,207.500,-18370.000,24600.000,968320.000,-33000.000,-215000.000,-297000.000,-319.620,280.679,781.620,-33.875,-15.705,14.423,-25861.893,-13060.280,-35888.634
1512178567,44.900,28.400,209.900,21970.000,10620.000,970760.000,-33000.000,-215000.000,-297000.000,-311.990,401.409,777.888,26.094,11.839,-11.363,-25934.753,-12535.378,-36337.746
1512178567,-57.800,-51.900,214.700,-43210.000,13980.000,908940.000,-33000.000,-215000.000,-297000.000,-147.572,356.698,824.887,63.098,29.663,-43.236,-25780.807,-11635.155,-36563.622
1512178567,44.900,11.900,217.300,-18920.000,51390.000,877440.000,-17000.000,-206000.000,-302000.000,-8.865,133.694,806.933,58.692,60.128,-38.843,-25703.598,-11110.039,-36864.006
1512178567,75.200,30.100,218.200,-39120.000,64580.000,889590.000,-17000.000,-206000.000,-302000.000,17.460,-143.755,683.751,34.215,71.259,19.925,-26004.837,-11410.484,-36636.604
1512178567,62.300,22.600,218.500,23440.000,8730.000,944340.000,-17000.000,-206000.000,-302000.000,-12.453,-253.568,552.876,28.482,52.176,89.061,-26303.299,-11035.927,-36933.876
1512178567,-8.500,44.500,220.800,-2500.000,19780.000,983700.000,-17000.000,-206000.000,-302000.000,32.245,-95.302,500.772,44.311,24.552,135.438,-26749.741,-10286.598,-36554.710
1512178567,-73.100,-7.300,222.900,-9950.000,39730.000,936890.000,-14000.000,-227000.000,-296000.000,110.089,67.173,507.798,64.844,7.065,119.837,-26825.867,-10511.711,-36779.167
1512178567,-57.000,7.200,221.000,-48340.000,77150.000,999630.000,-14000.000,-227000.000,-296000.000,39.654,171.600,581.763,89.488,-2.129,93.900,-26823.730,-10061.714,-36553.963
1512178567,29.400,-16.600,220.400,-46810.000,63350.000,881650.000,-14000.000,-227000.000,-296000.000,-89.641,165.903,665.158,106.912,2.749,56.262,-26747.864,-9836.601,-36854.500
1512178567,96.700,32.800,215.100,-8610.000,41500.000,865840.000,-14000.000,-227000.000,-296000.000,-173.677,35.354,711.455,114.626,16.375,24.334,-26820.511,-9311.714,-36853.615
1512178567,13.800,129.300,218.800,19290.000,-4940.000,1011900.000,-14000.000,-227000.000,-296000.000,-271.679,-119.650,700.974,112.560,25.898,31.242,-26820.465,-9311.714,-36778.618
1512178567,-114.600,-6.300,220.900,-37410.000,51330.000,1039980.000,-17000.000,-216000.000,-302000.000,-324.257,-161.304,654.224,109.457,30.609,69.608,-27115.814,-8262.154,-36925.591
1512178567,-64.400,19.700,219.600,-24480.000,29850.000,954040.000,-17000.000,-216000.000,-302000.000,-244.458,-100.189,602.291,108.476,23.880,97.597,-27187.927,-7662.254,-36549.675
1512178567,-14.800,12.900,228.100,-32230.000,10560.000,935790.000,-17000.000,-216000.000,-302000.000,-33.625,40.149,558.925,106.793,16.663,142.530,-27261.398,-7287.376,-36848.854
1512178567,19.600,10.900,234.800,-6230.000,25210.000,892640.000,-17000.000,-216000.000,-302000.000,135.438,183.606,527.759,97.204,-6.176,187.390,-27485.611,-7137.703,-36621.880
1512178567,50.600,13.400,240.700,-58780.000,25510.000,935120.000,-17000.000,-216000.000,-302000.000,83.582,256.202,508.071,96.475,-35.273,208.544,-27110.001,-6987.144,-36775.002
1512178567,10.100,7.500,239.800,34120.000,-12210.000,963200.000,-14000.000,-237000.000,-306000.000,-104.675,174.663,542.371,94.536,-64.191,187.925,-27257.797,-6462.364,-37073.479
1512178567,-82.000,-37.600,238.800,27040.000,-61770.000,914120.000,-14000.000,-237000.000,-306000.000,-312.933,36.387,623.091,81.544,-84.034,160.797,-27104.187,-5637.138,-37299.370
1512178567,-47.400,-3.600,244.300,-10990.000,-7080.000,910950.000,-14000.000,-237000.000,-306000.000,-443.221,-51.424,632.624,56.500,-71.029,137.119,-27253.174,-5412.361,-37297.981
1512178567,104.900,-1.100,246.500,-1710.000,35950.000,910640.000,-14000.000,-237000.000,-306000.000,-447.876,-33.189,593.179,33.907,-67.370,119.974,-27472.748,-4212.685,-37220.512
1512178567,-44.500,7.200,252.600,-10740.000,-29850.000,968080.000,-10000.000,-234000.000,-306000.000,-256.538,129.169,472.317,4.325,-71.651,86.572,-27058.288,-3762.062,-37373.818
1512178567,-85.900,-20.500,256.900,-3420.000,6530.000,940860.000,-10000.000,-234000.000,-306000.000,-110.680,113.798,257.437,9.152,-96.337,13.161,-27131.287,-3274.673,-37747.955
1512178567,52.500,35.600,259.800,9640.000,-13790.000,954960.000,-10000.000,-234000.000,-306000.000,15.015,-63.609,124.847,5.314,-154.933,-8.338,-26904.427,-2899.330,-37412.194
1512178567,12.100,4.700,271.200,-24900.000,31370.000,975220.000,-10000.000,-234000.000,-306000.000,90.516,85.740,14.525,-38.255,-166.430,-46.883,-26755.501,-3124.115,-37526.069
1512178567,3.100,10.800,272.700,-11600.000,47120.000,989380.000,-10000.000,-234000.000,-306000.000,189.762,156.654,-117.581,-23.970,-159.431,-193.066,-26493.065,-3123.718,-37678.307
1512178567,-4.300,12.500,275.100,14650.000,8670.000,975160.000,-17000.000,-252000.000,-313000.000,360.906,-8.036,-160.448,-53.285,-172.684,-214.294,-26383.774,-3836.052,-37679.588
1512178567,-21.200,30.600,277.600,1460.000,-2260.000,921080.000,-17000.000,-252000.000,-313000.000,188.201,265.855,-244.086,-92.415,-199.289,-117.412,-26049.499,-4548.050,-37720.283
1512178567,-3.100,67.200,284.000,-2870.000,-1890.000,999510.000,-17000.000,-252000.000,-313000.000,-117.035,547.389,-241.665,-56.780,-133.958,-220.120,-25374.893,-4584.542,-38176.041
1512178567,-74.800,4.000,282.300,48460.000,-55970.000,972350.000,-17000.000,-252000.000,-313000.000,323.184,554.593,-301.889,2.395,25.017,-207.008,-24402.145,-5033.081,-38634.537
1512178567,48.600,80.700,285.400,6160.000,-9580.000,975460.000,-17000.000,-252000.000,-313000.000,391.392,130.785,-386.596,45.684,119.712,-32.608,-23920.204,-6232.361,-38976.723
1512178567,-49.100,-6.400,281.000,12150.000,-64880.000,984680.000,-8000.000,-243000.000,-304000.000,319.578,-212.974,-540.742,-30.626,161.611,91.121,-23847.687,-6794.747,-38865.128
1512178567,-37.200,44.500,286.800,-47420.000,1040.000,915770.000,-8000.000,-243000.000,-304000.000,724.659,137.570,-587.492,-101.316,86.526,195.365,-23966.499,-8219.925,-38677.330
1512178567,-58.200,15.200,289.200,-4030.000,-32470.000,961670.000,-8000.000,-243000.000,-304000.000,161.198,181.245,-420.134,-105.864,64.706,90.529,-23147.713,-9568.703,-38947.464
1512178568,-82.000,4.300,305.700,-44310.000,29420.000,945680.000,-8000.000,-243000.000,-304000.000,-239.159,-186.116,-241.188,-72.027,74.084,-9.161,-23148.575,-9756.203,-38985.039
1512178568,-18.600,47.100,305.300,3600.000,38390.000,961000.000,10000.000,-266000.000,-302000.000,-329.791,-429.095,-57.851,-60.028,99.887,-3.567,-23371.887,-9381.538,-38982.948
1512178568,-110.700,-10.000,302.500,-32590.000,-54020.000,1025450.000,10000.000,-266000.000,-302000.000,-405.733,-656.877,10.615,-83.386,74.375,9.562,-23898.834,-9832.329,-38828.712
1512178568,-88.700,-1.700,313.900,-47240.000,24720.000,956300.000,10000.000,-266000.000,-302000.000,-452.947,-841.893,84.977,-81.726,88.518,40.402,-24493.546,-8708.214,-38373.085
1512178568,-30.500,14.400,303.600,6470.000,-13730.000,1000120.000,10000.000,-266000.000,-302000.000,-539.829,-960.519,47.061,-97.428,133.583,101.575,-25167.084,-8409.233,-38142.220
1512178568,-100.100,-9.300,311.900,-56030.000,-36070.000,1001830.000,10000.000,-266000.000,-302000.000,-752.712,-883.649,-98.609,-143.581,123.374,125.930,-25765.961,-8185.127,-37912.010
1512178568,-113.700,-69.200,319.600,-25880.000,-66350.000,912480.000,5000.000,-264000.000,-287000.000,-804.128,-825.441,-404.044,-105.430,97.646,172.264,-26587.967,-7586.357,-37304.726
1512178568,-1.700,4.800,318.800,-64820.000,-44800.000,877080.000,5000.000,-264000.000,-287000.000,-679.516,-871.067,-464.230,-68.428,28.598,147.557,-27035.828,-7137.032,-37075.691
1512178568,66.400,19.600,316.900,16480.000,-75810.000,908690.000,5000.000,-264000.000,-287000.000,-513.681,-746.026,-364.378,-39.672,-6.639,138.190,-27634.628,-6912.926,-36695.488
1512178568,0.300,-20.100,321.800,-1220.000,-55790.000,928280.000,5000.000,-264000.000,-287000.000,-406.155,-718.240,-290.235,-36.267,-22.898,112.652,-27932.373,-6463.371,-36242.744
1512178568,1.500,31.200,321.400,11660.000,-83250.000,916560.000,17000.000,-255000.000,-296000.000,-436.587,-740.916,-191.612,-42.069,-63.054,79.977,-28532.257,-6464.272,-36012.642
1512178568,-53.400,-72.600,320.600,3970.000,-72450.000,850890.000,17000.000,-255000.000,-296000.000,-490.689,-927.063,-86.433,-39.478,-105.043,12.280,-29055.450,-6090.065,-35783.012
1512178568,32.500,64.000,324.000,28140.000,-65980.000,955990.000,17000.000,-255000.000,-296000.000,-455.097,-1078.883,10.567,-24.573,-117.101,-19.007,-29956.253,-6316.414,-35325.462
1512178568,-47.400,-29.200,317.700,25940.000,-76110.000,1021360.000,17000.000,-255000.000,-296000.000,-367.903,-1151.667,149.095,-18.252,-134.223,-43.161,-30703.171,-5717.537,-34568.810
1512178568,-24.800,2.100,318.200,28870.000,-79160.000,944460.000,17000.000,-255000.000,-296000.000,-320.201,-1281.250,352.952,-21.901,-177.717,-99.028,-31451.416,-5418.648,-33737.297
1512178568,2.900,-2.400,316.900,-6350.000,-104490.000,875550.000,35000.000,-273000.000,-309000.000,-306.420,-1434.357,544.511,-33.975,-164.494,-106.471,-32573.792,-4895.332,-33202.507
1512178568,137.600,101.500,324.500,4270.000,-56640.000,931270.000,35000.000,-273000.000,-309000.000,-226.795,-1383.136,631.126,-16.471,-114.366,-99.480,-33245.270,-4221.352,-32221.458
1512178568,-8.500,31.300,322.400,60610.000,-77270.000,1004210.000,35000.000,-273000.000,-309000.000,-121.925,-1395.181,866.075,-47.243,-130.597,-155.677,-34669.968,-4223.488,-31609.352
1512178568,-175.900,8.100,322.800,-13730.000,-60180.000,1056270.000,35000.000,-273000.000,-309000.000,-12.750,-1120.596,916.580,-59.754,-76.573,-119.031,-35265.396,-3324.379,-30553.841
1512178568,-31.200,18.500,325.700,-28810.000,-8790.000,940800.000,35000.000,-273000.000,-309000.000,133.669,-572.263,856.647,-35.679,-3.583,-86.068,-36236.313,-2500.832,-29795.174
1512178568,112.100,86.200,327.300,20260.000,-16240.000,921570.000,24000.000,-280000.000,-292000.000,439.588,-462.727,799.629,-13.848,17.245,-53.977,-36534.470,-2126.274,-29492.455
1512178568,37.400,97.300,334.200,-19410.000,-14280.000,1067630.000,24000.000,-280000.000,-292000.000,775.945,-264.678,840.371,-49.388,-39.608,-17.118,-36457.306,-1676.170,-29192.879
1512178568,20.600,60.200,341.000,-20450.000,6470.000,1025940.000,24000.000,-280000.000,-292000.000,734.721,176.041,1034.263,-96.323,-105.541,-83.753,-36758.545,-1976.616,-28965.477
1512178568,-62.900,54.500,343.400,-14830.000,-3910.000,1035710.000,24000.000,-280000.000,-292000.000,634.319,226.747,1241.930,-19.860,-17.717,-153.077,-36606.216,-1451.393,-29041.512
1512178568,-64.600,-19.300,344.300,-19230.000,-27340.000,948430.000,29000.000,-264000.000,-297000.000,589.976,194.440,1344.588,7.731,75.743,-157.633,-36305.954,-1375.938,-29194.023
1512178568,68.000,68.300,355.300,-106140.000,17940.000,908510.000,29000.000,-264000.000,-297000.000,597.749,297.537,1072.148,4.038,137.568,2.255,-35997.696,499.535,-29570.702
1512178568,83.600,-12.900,344.300,-38210.000,27590.000,957580.000,29000.000,-264000.000,-297000.000,613.809,483.113,688.710,7.984,105.055,145.230,-35773.132,462.364,-30097.626
1512178568,-17.000,-1.600,349.300,-66770.000,-30580.000,923460.000,29000.000,-264000.000,-297000.000,614.297,732.613,380.428,30.895,-37.230,140.248,-34874.313,313.705,-31117.843
1512178568,-54.900,36.800,339.000,-45290.000,15260.000,977480.000,29000.000,-264000.000,-297000.000,302.492,990.708,618.806,98.087,-5.190,48.058,-33486.451,540.794,-32442.024
1512178568,-117.400,-44.700,340.900,-76290.000,13180.000,885070.000,45000.000,-280000.000,-289000.000,202.201,676.434,381.725,117.040,78.719,138.543,-32623.268,804.589,-33461.731
1512178568,-29.000,59.100,336.600,-36560.000,-10130.000,937440.000,45000.000,-280000.000,-289000.000,218.712,610.784,-170.484,53.081,44.102,257.200,-31460.411,956.330,-34109.039
1512178568,-51.000,-33.800,338.600,-46450.000,17760.000,879700.000,45000.000,-280000.000,-289000.000,213.292,437.014,-75.752,-58.210,-13.465,191.781,-30826.095,319.786,-34752.251
1512178568,8.100,90.900,342.700,1220.000,-43880.000,997500.000,45000.000,-280000.000,-289000.000,224.328,131.191,-178.466,-15.179,12.982,103.763,-30527.427,95.230,-35392.395
1512178568,-233.000,-13.800,346.200,14220.000,-78370.000,990360.000,59000.000,-283000.000,-296000.000,-76.868,9.537,-473.221,-95.514,-17.795,52.623,-30490.601,-92.208,-35055.306
1512178568,-115.200,9.500,340.800,-4150.000,-34120.000,917720.000,59000.000,-283000.000,-296000.000,126.588,30.292,-817.736,-186.546,-30.378,-39.233,-30569.443,-917.328,-35317.543
1512178568,-118.200,13.700,341.700,-5070.000,-11350.000,961910.000,59000.000,-283000.000,-296000.000,366.025,249.733,-1137.053,-185.437,-140.682,-117.552,-30465.370,-2754.676,-35619.346
1512178568,-100.100,0.900,341.700,-31680.000,-20570.000,924380.000,59000.000,-283000.000,-296000.000,381.705,596.659,-1004.495,-134.668,-195.166,-172.177,-29871.605,-4103.783,-35962.577
1512178568,-102.500,10.000,342.900,-97600.000,-11470.000,915410.000,59000.000,-283000.000,-296000.000,395.353,374.834,-905.391,-87.599,-134.974,-256.120,-28792.336,-5864.669,-36572.632
1512178569,-64.200,67.200,356.600,-67930.000,45530.000,1054750.000,61000.000,-292000.000,-284000.000,288.611,-232.900,-1023.653,-107.643,-85.202,-196.210,-28685.333,-7064.507,-36761.650
1512178569,19.600,-13.400,358.900,-124570.000,57190.000,1044980.000,61000.000,-292000.000,-284000.000,50.743,-396.443,-1152.397,-136.283,-81.967,-110.401,-28688.965,-7889.503,-36612.022
1512178569,-61.300,-46.500,351.400,-19900.000,-11840.000,957950.000,61000.000,-292000.000,-284000.000,-114.406,-278.003,-1217.278,-89.399,-61.652,-52.774,-29214.157,-7965.294,-36307.594
1512178569,40.500,69.500,350.100,-9700.000,-29660.000,1076720.000,61000.000,-292000.000,-284000.000,-66.289,-122.086,-1152.067,-57.014,-12.449,-32.643,-28843.246,-8864.738,-36386.192
1512178569,-171.600,-61.700,336.900,-22830.000,-72270.000,1018310.000,61000.000,-292000.000,-284000.000,42.666,30.833,-1159.558,-65.861,71.882,11.304,-28769.257,-9089.638,-36386.940
1512178569,4.400,39.400,337.700,42240.000,-37720.000,937070.000,77000.000,-294000.000,-289000.000,254.871,171.213,-1221.025,-91.598,120.925,39.059,-28623.611,-10064.415,-36313.667
1512178569,41.800,-8.000,343.500,-28990.000,1400.000,959350.000,77000.000,-294000.000,-289000.000,298.399,240.811,-1271.323,-84.888,114.249,71.874,-28101.791,-10738.640,-36618.431
1512178569,-47.000,16.800,341.400,-49130.000,-94730.000,921330.000,77000.000,-294000.000,-289000.000,137.306,201.972,-1201.300,-83.426,83.688,104.401,-27730.408,-11563.072,-36397.011
1512178569,-10.300,22.400,344.900,-24720.000,-37780.000,941530.000,77000.000,-294000.000,-289000.000,-10.445,203.812,-1161.855,-66.977,98.773,116.622,-27583.252,-12162.849,-36698.555
1512178569,-1.900,-1.100,345.400,-50660.000,-44680.000,907470.000,72000.000,-306000.000,-284000.000,-8.099,197.304,-1110.673,-42.954,122.108,123.546,-27061.218,-12837.074,-36553.337
1512178569,-18.800,10.900,357.000,-25940.000,-21550.000,901670.000,72000.000,-306000.000,-284000.000,173.070,209.194,-1041.912,-45.977,121.194,127.034,-26612.488,-13061.394,-37082.253
1512178569,87.500,55.100,354.300,-86180.000,-38880.000,969480.000,72000.000,-306000.000,-284000.000,403.458,138.934,-988.717,-34.643,138.345,132.275,-26242.142,-14110.847,-36935.936
1512178569,-34.600,-5.600,356.700,32960.000,-67140.000,984440.000,72000.000,-306000.000,-284000.000,561.423,61.104,-938.723,-32.445,129.649,156.460,-26095.367,-14785.622,-37312.508
1512178569,-13.700,6.100,346.900,17400.000,-68120.000,995360.000,72000.000,-306000.000,-284000.000,604.989,45.009,-865.654,-49.009,109.068,199.615,-25648.895,-15609.947,-36941.734
1512178569,-86.800,-25.700,351.800,-18070.000,-120120.000,953550.000,72000.000,-313000.000,-294000.000,541.795,35.129,-784.521,-52.397,98.338,193.677,-25201.859,-16284.279,-36795.860
1512178569,62.300,-11.200,353.300,-74710.000,-17400.000,878970.000,72000.000,-313000.000,-294000.000,421.901,-52.691,-757.777,-43.579,96.961,171.629,-25130.905,-17184.181,-36796.913
1512178569,182.600,86.700,355.000,-26060.000,-15500.000,942570.000,72000.000,-313000.000,-294000.000,267.083,-137.470,-683.562,-23.169,76.509,137.600,-24984.161,-17933.952,-36573.540
1512178569,-69.100,-62.600,355.700,-6900.000,-84660.000,1054200.000,72000.000,-313000.000,-294000.000,175.219,-185.951,-545.407,8.604,68.839,75.600,-24762.466,-18683.632,-36425.789
1512178569,-44.100,41.100,350.100,33080.000,-76970.000,928770.000,72000.000,-313000.000,-294000.000,142.038,-247.153,-410.710,17.501,60.436,30.704,-24841.583,-19583.733,-36575.569
1512178569,10.000,-32.100,358.500,15990.000,-60060.000,906310.000,82000.000,-303000.000,-287000.000,69.220,-233.544,-325.366,16.631,51.772,-7.030,-24988.434,-18908.958,-36348.976
1512178569,78.600,55.800,351.400,-28930.000,-75500.000,914310.000,82000.000,-303000.000,-287000.000,-3.651,-247.585,-303.017,44.723,48.717,-43.406,-25066.071,-19509.071,-36198.631
1512178569,-10.500,-23.700,354.600,-8240.000,-56460.000,966980.000,82000.000,-303000.000,-287000.000,-173.928,-159.412,-186.844,84.799,-3.285,-76.961,-24764.679,-19208.626,-36126.030
1512178569,-17.200,9.200,350.100,25450.000,-57310.000,937620.000,82000.000,-303000.000,-287000.000,-322.069,37.574,13.176,127.222,-19.904,-129.290,-25140.915,-19509.193,-35897.987
1512178569,-71.900,-16.200,360.100,-25630.000,-29600.000,1004580.000,77000.000,-322000.000,-292000.000,-396.083,206.039,113.966,159.718,15.508,-181.216,-25365.158,-19284.523,-36420.967
1512178569,-18.000,-27.400,359.100,-20870.000,12210.000,926450.000,77000.000,-322000.000,-292000.000,-377.193,222.058,133.487,202.348,29.856,-220.743,-25212.097,-18609.306,-36346.931
1512178569,55.400,31.300,349.800,6290.000,-980.000,934450.000,77000.000,-322000.000,-292000.000,-259.927,133.456,193.510,203.157,21.133,-193.369,-25286.560,-18459.404,-36646.233
1512178569,-5.200,-1.200,348.600,-15810.000,-59450.000,949770.000,77000.000,-322000.000,-292000.000,-311.928,465.587,196.047,148.504,-8.970,-33.738,-25097.923,-18159.126,-37060.181
1512178569,-16.600,-5.500,343.500,11720.000,-33080.000,942320.000,77000.000,-322000.000,-292000.000,-785.908,710.719,376.057,245.330,-6.465,-122.683,-24308.335,-17595.436,-37966.606
1512178569,28.000,-0.800,348.600,-42720.000,-44800.000,926450.000,87000.000,-326000.000,-292000.000,-649.898,186.719,506.796,277.403,59.269,-177.414,-23813.072,-15757.202,-38982.399
1512178569,30.600,-30.800,347.300,5130.000,-11780.000,957640.000,87000.000,-326000.000,-292000.000,-182.930,340.045,576.458,210.835,44.614,36.300,-24070.641,-14557.579,-39917.107
1512178569,-23.800,6.300,348.600,41080.000,-26790.000,979060.000,87000.000,-326000.000,-292000.000,-110.570,636.695,793.888,169.894,24.841,148.430,-23126.709,-13131.172,-39886.917
1512178569,-109.200,-38.200,345.000,-48340.000,-21360.000,997250.000,87000.000,-326000.000,-292000.000,-262.732,253.796,919.343,104.523,57.299,176.963,-23311.691,-12493.950,-40597.534
1512178569,-102.800,-70.200,342.300,34480.000,-23800.000,890380.000,107000.000,-331000.000,-291000.000,74.889,309.279,940.950,34.267,51.862,273.526,-23158.432,-11743.721,-40823.448
1512178569,119.600,32.100,339.300,-18130.000,5800.000,932920.000,107000.000,-331000.000,-291000.000,356.328,703.647,1057.270,-19.143,-1.986,283.720,-22779.961,-10918.152,-41313.766
1512178569,3.500,-81.100,342.100,-34610.000,-23800.000,953120.000,107000.000,-331000.000,-291000.000,278.293,578.723,966.687,-53.732,-22.296,113.572,-22217.461,-10842.308,-41993.507
1512178569,87.600,39.300,337.200,-33260.000,5740.000,980530.000,107000.000,-331000.000,-291000.000,448.681,393.370,839.519,-91.479,-82.817,-2.444,-21880.035,-10804.298,-42483.856
1512178569,-52.200,-61.700,333.800,-17520.000,-60000.000,937990.000,107000.000,-331000.000,-291000.000,307.946,344.000,579.856,-177.053,-162.119,-111.725,-21466.858,-10653.679,-42487.290
1512178569,-38.900,57.900,330.900,15990.000,-52430.000,987550.000,115000.000,-340000.000,-302000.000,-63.483,304.682,183.624,-152.066,-186.291,-277.632,-20979.584,-10652.947,-42941.429
1512178570,-97.700,-41.300,331.200,56030.000,5070.000,911130.000,115000.000,-340000.000,-302000.000,-77.279,53.366,-219.886,-88.532,-157.721,-402.755,-21129.898,-10728.172,-42902.687
1512178570,9.700,35.600,329.800,45590.000,-3600.000,962520.000,115000.000,-340000.000,-302000.000,231.777,-328.039,-490.712,-74.440,-173.737,-394.164,-20904.938,-10727.837,-42979.607
1512178570,-67.600,4.500,327.600,14770.000,28500.000,1013550.000,115000.000,-340000.000,-302000.000,400.877,-410.759,-664.450,-111.666,-247.260,-259.822,-21434.219,-11703.621,-42750.587
1512178570,-9.600,-2.800,328.600,-42720.000,-21420.000,1009220.000,115000.000,-340000.000,-302000.000,190.348,-206.753,-817.105,-89.404,-274.546,-177.559,-21134.064,-11703.178,-42453.148
1512178570,-141.500,-78.200,326.400,-24960.000,-21180.000,954900.000,128000.000,-345000.000,-304000.000,3.570,20.567,-857.398,6.525,-205.441,-259.690,-21213.562,-12678.307,-42677.956
1512178570,51.000,88.000,314.700,14530.000,4330.000,895510.000,128000.000,-345000.000,-304000.000,246.377,-138.365,-785.139,63.100,-64.917,-351.330,-20913.528,-12677.849,-42605.507
1512178570,-104.800,-33.800,317.000,45650.000,-6100.000,997500.000,128000.000,-345000.000,-304000.000,676.722,-371.534,-840.480,21.350,52.867,-249.345,-21142.731,-13653.191,-42229.057
1512178570,-28.400,28.100,316.100,32170.000,-31680.000,916140.000,128000.000,-345000.000,-304000.000,943.989,-171.051,-1006.483,-55.172,42.976,-64.882,-20998.764,-15002.968,-42155.937
1512178570,-25.400,22.900,316.100,55910.000,20260.000,967770.000,131000.000,-334000.000,-294000.000,967.856,186.853,-1013.418,-62.874,-11.214,49.642,-20925.186,-15377.861,-41631.752
1512178570,7.600,17.700,319.000,-32410.000,56880.000,934630.000,131000.000,-334000.000,-294000.000,772.821,412.613,-811.842,-32.934,-25.065,90.737,-20180.588,-16576.744,-41638.680
1512178570,69.600,58.700,308.900,4820.000,34240.000,971620.000,131000.000,-334000.000,-294000.000,424.559,428.702,-572.703,7.214,7.440,86.555,-19735.947,-17776.085,-41568.062
1512178570,-7.900,5.900,308.700,41500.000,-15440.000,895260.000,131000.000,-334000.000,-294000.000,89.497,300.670,-364.788,45.425,62.118,83.367,-19287.643,-18150.414,-41572.060
1512178570,-4.400,66.400,312.300,62320.000,11660.000,962280.000,131000.000,-334000.000,-294000.000,-90.057,22.248,-157.281,68.461,121.525,68.337,-18913.834,-18374.855,-41950.356
1512178570,-139.800,-56.300,312.400,-10560.000,7510.000,913940.000,151000.000,-347000.000,-296000.000,10.121,-350.622,-44.124,57.998,214.371,96.136,-19140.030,-18675.194,-41648.582
1512178570,-50.500,30.500,314.800,9770.000,46020.000,950680.000,151000.000,-347000.000,-296000.000,269.341,-542.461,-63.422,15.850,277.752,200.634,-19288.681,-18375.404,-41647.163
1512178570,-68.300,-11.700,304.500,41870.000,14470.000,952510.000,151000.000,-347000.000,-296000.000,525.335,-406.281,-130.668,-31.721,296.034,317.524,-19668.259,-19425.987,-41344.460
1512178570,-56.600,5.500,308.900,-19840.000,2620.000,999080.000,151000.000,-347000.000,-296000.000,700.678,-120.643,-212.418,-45.097,303.141,380.272,-19895.172,-19876.320,-41117.760
1512178570,-101.300,-13.200,308.700,-9950.000,-26120.000,982850.000,151000.000,-347000.000,-296000.000,800.122,96.371,-219.816,-18.664,295.573,375.342,-19900.055,-21001.335,-40743.294
1512178570,45.500,-9.500,301.300,46940.000,55420.000,915770.000,147000.000,-333000.000,-296000.000,754.375,147.452,-158.470,10.503,284.151,333.290,-19675.919,-21225.990,-40445.305
1512178570,85.100,38.200,300.400,6100.000,28630.000,963930.000,147000.000,-333000.000,-296000.000,581.396,113.913,-79.008,24.755,258.939,295.129,-19529.922,-22125.771,-40372.002
1512178570,6.500,-94.700,295.300,58960.000,16600.000,941710.000,147000.000,-333000.000,-296000.000,296.508,85.551,-0.080,30.299,220.338,257.481,-19379.059,-21975.548,-39998.207
1512178570,122.100,102.100,295.700,74890.000,-13790.000,951720.000,147000.000,-333000.000,-296000.000,-57.464,97.567,132.355,51.580,166.566,202.128,-19756.805,-22576.118,-40070.290
1512178570,-134.600,-8.900,300.800,34670.000,-51510.000,954960.000,159000.000,-338000.000,-301000.000,-374.692,92.480,298.310,69.221,132.241,113.837,-19456.833,-22575.661,-40147.835
1512178570,14.200,35.200,293.900,25450.000,-21480.000,901860.000,159000.000,-338000.000,-301000.000,-713.326,82.269,340.276,59.646,122.984,44.327,-19829.483,-21976.219,-40819.359
1512178570,-19.700,-18.100,293.300,14710.000,-15810.000,899230.000,159000.000,-338000.000,-301000.000,-987.178,108.694,269.238,78.989,103.058,-50.024,-19828.018,-21676.216,-40594.231
1512178570,60.900,31.700,289.400,57680.000,-10860.000,850100.000,159000.000,-338000.000,-301000.000,-1087.190,122.452,258.244,135.450,65.410,-138.039,-20123.215,-20551.659,-41116.158
1512178570,40.200,37.300,299.100,-21550.000,15010.000,909730.000,159000.000,-338000.000,-301000.000,-1046.827,200.466,270.825,186.511,1.820,-200.182,-19968.399,-19426.430,-41604.408
1512178570,-64.200,-0.400,291.300,63170.000,-25450.000,966860.000,152000.000,-349000.000,-294000.000,-793.640,172.957,334.632,209.653,-78.877,-214.249,-19998.696,-17738.976,-42390.816
1512178570,-57.400,28.800,287.800,29790.000,-30270.000,956970.000,152000.000,-349000.000,-294000.000,-1111.038,326.051,453.160,196.903,-152.184,-144.866,-19654.252,-16125.954,-43030.433
1512178570,-0.900,41.100,287.600,56580.000,-60420.000,935240.000,152000.000,-349000.000,-294000.000,-1284.649,361.355,833.483,280.474,-114.643,-236.789,-19645.653,-14138.443,-43704.514
1512178570,15.400,-22.900,288.800,-22220.000,58110.000,975040.000,152000.000,-349000.000,-294000.000,-699.034,257.645,1066.014,272.346,-34.908,-220.529,-19334.885,-11662.980,-44455.917
1512178570,106.100,49.400,289.900,-14280.000,73430.000,1004580.000,152000.000,-349000.000,-294000.000,-203.908,319.616,1168.812,226.564,-13.039,-3.342,-18986.168,-9149.956,-44645.118
1512178570,-58.300,-22.600,283.000,56150.000,8060.000,1033750.000,170000.000,-345000.000,-301000.000,-25.880,492.537,1371.347,169.500,-11.570,128.720,-18535.660,-8999.283,-44986.382
1512178570,-38.700,4.700,279.200,-1710.000,-850.000,1026180.000,170000.000,-345000.000,-301000.000,336.901,454.425,1479.345,86.882,34.881,238.848,-17929.794,-7723.373,-44728.386
1512178570,-30.200,-14.800,278.200,50230.000,2260.000,904660.000,170000.000,-345000.000,-301000.000,452.546,483.438,1482.188,-5.536,52.703,330.636,-17555.000,-7722.809,-45144.081
1512178570,5.500,1.600,271.000,45230.000,-4090.000,926450.000,170000.000,-345000.000,-301000.000,251.446,350.388,1355.148,-72.677,41.533,275.502,-17216.255,-7459.808,-45034.317
1512178570,49.000,6.900,281.800,14400.000,49560.000,878360.000,170000.000,-345000.000,-294000.000,10.680,64.648,1170.504,-114.934,-13.376,89.730,-17326.546,-6934.967,-45333.122
1512178570,-24.000,-6.800,280.300,74770.000,17820.000,940730.000,170000.000,-345000.000,-294000.000,126.160,-115.799,946.076,-209.974,-64.877,-34.843,-18001.099,-6860.978,-45102.356
1512178571,-29.300,15.200,280.200,11840.000,25450.000,920100.000,170000.000,-345000.000,-294000.000,14.595,-52.675,539.044,-292.178,-89.658,-110.398,-18261.215,-6373.863,-44724.892
1512178571,-17.000,-13.000,272.600,63720.000,14220.000,891970.000,170000.000,-345000.000,-294000.000,-156.929,-62.969,208.175,-264.671,-112.564,-228.526,-18185.623,-6223.747,-44875.465
1512178571,27.400,83.900,271.100,82400.000,-20140.000,924740.000,170000.000,-345000.000,-294000.000,-253.762,-193.955,-66.590,-210.991,-102.871,-353.477,-18408.066,-5699.089,-44498.314
1512178571,-40.600,-34.500,275.500,73060.000,-14400.000,968870.000,175000.000,-354000.000,-299000.000,-46.258,-549.791,-384.641,-159.328,-67.849,-458.314,-18934.464,-5999.886,-44568.993
1512178571,8.900,26.900,280.000,23860.000,32710.000,963560.000,175000.000,-354000.000,-299000.000,402.851,-793.026,-738.244,-160.990,-61.778,-408.215,-19460.510,-6300.667,-43964.668
1512178571,6.300,-11.600,281.600,0.000,27040.000,971130.000,175000.000,-354000.000,-299000.000,726.514,-670.183,-1030.559,-165.627,-107.303,-273.781,-19842.117,-7801.247,-43662.178
1512178571,-36.500,-3.900,275.100,29970.000,40830.000,977660.000,175000.000,-354000.000,-299000.000,808.481,-379.167,-1203.193,-128.358,-140.685,-177.157,-20294.891,-8476.921,-43133.659
1512178571,-68.300,7.700,272.200,15010.000,25820.000,1048890.000,202000.000,-349000.000,-294000.000,782.856,-134.492,-1253.885,-66.581,-127.309,-123.561,-20299.881,-9601.936,-42984.184
1512178571,-89.500,-56.900,270.400,66710.000,-1590.000,952940.000,202000.000,-349000.000,-294000.000,651.100,170.709,-1200.362,-48.040,-98.573,-88.540,-19552.795,-10275.810,-42765.862
1512178571,10.900,8.100,274.300,-34180.000,90270.000,937870.000,202000.000,-349000.000,-294000.000,424.467,347.595,-1152.923,-23.329,-39.504,-114.210,-19557.785,-11400.810,-42616.386
1512178571,-12.800,-29.300,274.400,-11230.000,46690.000,926760.000,202000.000,-349000.000,-294000.000,225.394,300.197,-1108.001,0.013,-16.476,-129.874,-18885.071,-11924.812,-42472.374
1512178571,104.700,38.900,272.600,60180.000,57190.000,952270.000,202000.000,-349000.000,-294000.000,7.824,90.253,-982.889,34.519,2.217,-96.237,-18586.090,-12149.361,-42475.029
1512178571,73.800,41.900,273.200,71660.000,-14590.000,992430.000,191000.000,-345000.000,-291000.000,-263.250,-99.636,-780.664,53.239,39.349,-13.580,-18061.386,-12223.564,-42404.518
1512178571,-39.700,-13.300,270.200,75620.000,-43030.000,959660.000,191000.000,-345000.000,-291000.000,-506.691,-93.897,-627.458,52.241,83.545,40.962,-17986.008,-12148.460,-42330.132
1512178571,107.100,43.300,270.800,79280.000,48650.000,966190.000,191000.000,-345000.000,-291000.000,-452.069,-76.948,-512.539,65.837,152.354,45.686,-17984.955,-11923.454,-42255.028
1512178571,97.100,15.400,273.100,40160.000,50840.000,959470.000,191000.000,-345000.000,-291000.000,-21.564,-78.575,-437.013,63.641,225.114,77.072,-17985.291,-11998.451,-42255.058
1512178571,-3.600,-1.200,279.900,47490.000,38570.000,977780.000,200000.000,-336000.000,-282000.000,502.751,81.351,-418.200,44.111,265.843,168.336,-17986.526,-12298.454,-42030.190
1512178571,-7.900,12.900,276.200,18980.000,62130.000,930300.000,200000.000,-336000.000,-282000.000,886.103,309.392,-380.936,36.668,276.918,226.774,-17837.875,-12598.244,-42031.609
1512178571,78.600,61.000,286.700,-24960.000,53280.000,918950.000,200000.000,-336000.000,-282000.000,1007.919,415.217,-329.770,34.824,272.995,251.992,-17241.898,-13497.337,-41962.120
1512178571,31.800,31.300,278.700,43880.000,-2810.000,955750.000,200000.000,-336000.000,-282000.000,839.668,350.772,-279.127,39.244,263.935,256.859,-16718.323,-13871.559,-41441.765
1512178571,-9.500,46.900,275.200,87100.000,-41140.000,968870.000,200000.000,-336000.000,-282000.000,616.102,202.816,-175.208,69.928,250.163,230.165,-16272.400,-14770.882,-41521.004
1512178571,1.200,28.800,285.800,49620.000,-17760.000,971860.000,203000.000,-347000.000,-296000.000,534.936,-33.634,-49.282,97.420,251.532,188.674,-16199.234,-15220.787,-41146.843
1512178571,25.300,39.400,281.200,86360.000,26550.000,980470.000,203000.000,-347000.000,-296000.000,428.203,-337.401,73.914,92.908,227.251,178.170,-16501.907,-15821.236,-41069.572
1512178571,-23.300,-7.600,281.500,20510.000,-17270.000,961060.000,203000.000,-347000.000,-296000.000,168.606,-519.571,162.264,79.087,190.711,162.266,-16728.363,-16196.571,-40617.836
1512178571,70.400,53.700,280.600,89480.000,62070.000,937870.000,203000.000,-347000.000,-296000.000,-192.413,-725.344,226.677,48.085,108.305,111.301,-17552.169,-15972.809,-40235.725
1512178571,71.600,36.800,287.800,51760.000,66890.000,932500.000,203000.000,-347000.000,-296000.000,-1406.054,-1041.187,466.516,83.647,-59.437,-35.267,-19159.439,-14850.220,-39884.003
1512178571,66.400,7.100,293.900,25330.000,57130.000,936770.000,216000.000,-345000.000,-291000.000,-1594.603,-848.792,532.150,100.398,-84.588,-141.813,-21321.541,-12003.464,-39714.195
1512178571,63.800,41.900,293.200,-3300.000,94300.000,911620.000,216000.000,-345000.000,-291000.000,-1110.159,548.689,766.303,95.834,-175.297,-62.736,-22060.730,-9604.568,-39669.220
1512178571,8.800,28.400,298.800,-20080.000,74520.000,963680.000,216000.000,-345000.000,-291000.000,-2044.989,759.996,1223.092,188.477,0.129,-370.924,-20923.271,-6752.861,-40427.460
1512178571,-73.500,6.300,296.000,30150.000,73120.000,975100.000,216000.000,-345000.000,-291000.000,-981.203,-270.992,244.017,127.207,247.564,-351.406,-20269.448,-3076.889,-40843.674
1512178571,-52.300,-8.700,295.200,35280.000,75620.000,945620.000,230000.000,-338000.000,-301000.000,844.644,937.873,-66.997,192.893,-31.318,102.235,-20378.868,-2402.046,-40767.418
1512178571,-85.400,28.800,291.000,19780.000,25760.000,964600.000,230000.000,-338000.000,-301000.000,118.391,1421.059,813.790,272.310,-119.266,110.832,-18246.422,-3448.845,-41461.060
1512178571,-60.900,-30.200,295.900,-11840.000,97050.000,968930.000,230000.000,-338000.000,-301000.000,-747.996,-80.067,1109.437,160.070,50.166,58.909,-16554.474,-2396.309,-42037.414
1512178571,50.100,24.400,300.300,15080.000,107910.000,972350.000,230000.000,-338000.000,-301000.000,-286.349,-518.752,1020.251,33.545,70.486,352.025,-17332.413,-334.976,-41467.270
1512178571,45.500,-27.700,296.800,32170.000,77940.000,910830.000,230000.000,-338000.000,-301000.000,261.414,235.349,1197.648,-69.823,17.465,494.507,-17103.783,452.866,-41281.319
1512178571,99.900,23.300,297.300,52610.000,65250.000,885990.000,233000.000,-334000.000,-294000.000,-75.735,538.903,840.953,-146.018,19.659,323.714,-16277.328,791.603,-41438.179
1512178571,99.500,58.100,293.600,1220.000,71660.000,918090.000,233000.000,-334000.000,-294000.000,-446.068,262.443,723.757,-59.883,-63.109,-56.789,-15373.161,1730.461,-41557.899
1512178572,-21.200,-9.200,292.100,33020.000,52800.000,991580.000,233000.000,-334000.000,-294000.000,13.396,-70.295,804.412,-109.601,-79.578,-300.938,-14846.191,2106.255,-40999.687
1512178572,-37.300,8.000,299.500,-34480.000,76290.000,937620.000,233000.000,-334000.000,-294000.000,267.239,-175.252,597.710,-197.683,-74.160,-348.639,-14845.184,2331.261,-40999.580
1512178572,-21.000,-2.800,298.100,-17640.000,95460.000,963810.000,233000.000,-334000.000,-294000.000,99.312,-144.899,245.718,-220.751,-98.721,-353.185,-14770.599,2256.371,-41150.261
1512178572,-30.100,4.500,299.900,74460.000,22400.000,905090.000,226000.000,-356000.000,-301000.000,-185.204,-45.349,-80.008,-184.915,-125.308,-398.533,-15145.142,2330.803,-40922.020
1512178572,19.200,53.800,305.300,15380.000,44130.000,946350.000,226000.000,-356000.000,-301000.000,33.844,13.241,-365.528,-123.242,-101.951,-442.241,-14770.447,2256.371,-40850.258
1512178572,-82.600,1.900,304.800,89110.000,-34420.000,976990.000,226000.000,-356000.000,-301000.000,630.526,39.311,-670.220,-111.833,-113.176,-409.293,-14847.015,1881.248,-40624.794
1512178572,-85.600,22.100,294.400,63170.000,-5190.000,978270.000,226000.000,-356000.000,-301000.000,997.475,156.828,-937.408,-153.763,-178.011,-307.107,-14477.112,756.813,-40703.499
1512178572,-80.600,15.800,306.900,26310.000,-39610.000,968690.000,237000.000,-327000.000,-294000.000,871.561,323.761,-1179.576,-141.585,-197.347,-214.851,-14107.376,-367.638,-41082.191
1512178572,-44.600,-14.600,299.700,86730.000,66770.000,899350.000,237000.000,-327000.000,-294000.000,472.312,538.159,-1329.597,-25.219,-144.682,-208.902,-13586.044,-1191.856,-41012.047
1512178572,98.700,83.100,300.700,48160.000,12880.000,1002930.000,237000.000,-327000.000,-294000.000,400.379,330.770,-1310.045,61.580,-57.534,-281.871,-13287.460,-1491.402,-41164.742
1512178572,-63.000,-13.300,305.500,31430.000,24050.000,993160.000,237000.000,-327000.000,-294000.000,733.592,-133.523,-1239.669,40.851,26.472,-228.099,-12917.038,-2540.855,-40868.401
1512178572,-29.400,51.700,303.200,25450.000,69890.000,966060.000,237000.000,-327000.000,-294000.000,982.837,-358.536,-1237.907,-58.977,53.792,-70.100,-13223.160,-3891.319,-40941.475
1512178572,-41.400,-19.600,311.100,-17400.000,101320.000,1008180.000,242000.000,-340000.000,-292000.000,800.863,-323.402,-1320.376,-120.209,28.834,68.462,-13301.422,-4641.426,-40716.194
1512178572,8.800,31.600,298.000,15810.000,-2440.000,872440.000,242000.000,-340000.000,-292000.000,386.594,-143.476,-1337.479,-120.625,7.449,159.532,-13080.124,-5466.103,-40718.483
1512178572,45.000,53.700,300.400,27710.000,-27340.000,904110.000,242000.000,-340000.000,-292000.000,36.768,170.806,-1182.609,-85.813,10.407,171.869,-13231.476,-5766.319,-40717.354
1512178572,-105.500,-38.900,307.200,-21120.000,51510.000,919920.000,242000.000,-340000.000,-292000.000,-73.030,406.180,-912.601,-28.725,53.490,109.268,-12782.608,-5990.654,-40946.266
1512178572,-14.000,45.500,315.700,-10680.000,-12630.000,923220.000,242000.000,-340000.000,-292000.000,22.023,302.231,-669.589,15.936,133.593,29.060,-12107.605,-5989.647,-40952.003
1512178572,-61.900,-50.200,318.900,3170.000,23130.000,883060.000,253000.000,-333000.000,-275000.000,303.435,-54.347,-556.952,2.321,208.713,15.435,-12034.622,-6439.537,-40952.858
1512178572,35.800,89.700,321.200,14590.000,-3660.000,922850.000,253000.000,-333000.000,-275000.000,710.556,-364.551,-564.924,-31.729,262.843,108.693,-11583.847,-6288.857,-40731.621
1512178572,-100.700,-46.200,323.000,27280.000,-14220.000,976680.000,253000.000,-333000.000,-275000.000,988.122,-427.100,-592.037,-74.988,256.774,254.525,-12113.571,-7339.653,-40727.638
1512178572,-8.000,12.700,316.400,27280.000,3050.000,989560.000,253000.000,-333000.000,-275000.000,1054.455,-310.676,-536.303,-94.201,217.275,360.055,-12267.807,-8314.873,-40426.811
1512178572,-10.400,-31.600,320.500,-10500.000,5860.000,917480.000,261000.000,-331000.000,-277000.000,971.231,-148.580,-458.051,-91.412,197.042,382.333,-12496.109,-9065.224,-40275.246
1512178572,81.000,51.000,315.600,58470.000,-10740.000,897220.000,261000.000,-331000.000,-277000.000,859.958,-111.422,-432.887,-72.510,210.706,347.503,-12278.900,-10789.894,-40352.959
1512178572,92.100,39.900,322.200,-11290.000,43030.000,975590.000,261000.000,-331000.000,-277000.000,721.364,-120.304,-367.762,-12.640,186.940,294.157,-12277.405,-10489.891,-40052.818
1512178572,-68.000,-44.700,328.600,-46080.000,27100.000,1034730.000,261000.000,-331000.000,-277000.000,530.305,-193.643,-163.973,35.443,113.758,196.383,-12280.106,-11089.897,-40053.093
1512178572,-15.800,-0.700,330.400,1100.000,61770.000,894040.000,261000.000,-331000.000,-277000.000,381.889,-204.961,43.852,56.950,81.347,126.370,-12131.119,-11314.674,-40054.482
1512178572,15.600,4.800,331.300,-18980.000,41930.000,942260.000,265000.000,-334000.000,-291000.000,155.059,-71.207,294.754,75.179,28.561,38.340,-12920.433,-11765.861,-39635.490
1512178572,2.500,23.300,335.700,-12880.000,83190.000,932980.000,265000.000,-334000.000,-291000.000,-619.284,45.142,550.456,155.214,-12.959,-104.091,-12955.124,-11128.410,-39747.376
1512178572,0.400,7.200,330.900,-36740.000,37350.000,962520.000,265000.000,-334000.000,-291000.000,-1069.773,-147.940,610.953,242.133,14.659,-251.350,-12646.461,-9177.948,-39974.029
1512178572,17.000,-17.000,328.800,-25210.000,41560.000,933290.000,265000.000,-334000.000,-291000.000,-641.086,-150.947,569.711,219.403,-22.951,-174.560,-13428.337,-7904.121,-40191.742
1512178572,15.300,12.700,329.300,-9030.000,60240.000,937130.000,291000.000,-329000.000,-289000.000,-958.004,278.916,641.775,151.791,-44.791,-100.655,-13271.644,-6403.885,-40304.825
1512178572,15.600,-7.600,328.200,-9770.000,3910.000,967290.000,291000.000,-329000.000,-289000.000,-829.753,358.102,399.781,162.150,53.121,-142.049,-12699.127,-4153.030,-40533.569
1512178572,14.600,30.500,330.100,-22220.000,30880.000,992920.000,291000.000,-329000.000,-289000.000,-235.969,589.312,346.825,210.203,43.866,-81.903,-11943.802,-2951.897,-40689.392
1512178572,-32.900,19.400,327.800,36250.000,-23620.000,995910.000,291000.000,-329000.000,-289000.000,-92.080,516.195,700.454,207.962,15.111,105.603,-10738.808,-1825.088,-40849.060
1512178572,-93.600,-10.700,335.300,-31920.000,18370.000,1035400.000,291000.000,-329000.000,-289000.000,-191.252,109.994,1037.675,134.720,52.519,218.845,-10286.827,-1374.413,-40927.680
1512178572,90.300,-14.800,331.600,-37840.000,56640.000,882390.000,284000.000,-319000.000,-289000.000,70.201,-81.680,1206.035,21.713,72.403,350.297,-10058.670,-661.560,-41041.755
1512178572,49.500,77.100,329.000,-13980.000,12330.000,964110.000,284000.000,-319000.000,-289000.000,222.864,242.624,1273.875,-72.113,32.638,372.275,-10018.456,-61.508,-41004.295
1512178572,-129.200,6.100,331.200,3910.000,7260.000,1050720.000,284000.000,-319000.000,-289000.000,223.056,421.209,1173.755,-91.808,10.220,178.745,-9042.442,202.461,-41349.968
1512178573,-132.400,-31.400,335.000,-13490.000,26060.000,968200.000,284000.000,-319000.000,-289000.000,274.905,296.940,1127.170,-105.761,-41.386,76.687,-8329.163,391.029,-41505.943
1512178573,52.700,29.600,341.000,36930.000,41810.000,900020.000,284000.000,-319000.000,-289000.000,158.624,205.012,1061.195,-158.314,-88.231,50.320,-8477.737,690.804,-41354.515
1512178573,100.500,45.400,349.500,-38570.000,21120.000,987180.000,286000.000,-327000.000,-291000.000,-140.920,48.875,924.124,-210.397,-120.750,3.879,-8026.505,991.478,-41583.214
1512178573,-27.800,-18.900,346.600,13980.000,-20750.000,948610.000,286000.000,-327000.000,-291000.000,-587.269,-138.431,765.624,-249.785,-145.310,-104.806,-8023.987,1516.487,-41282.967
1512178573,5.600,35.700,352.700,57860.000,16910.000,944580.000,286000.000,-327000.000,-291000.000,-985.455,-205.754,472.853,-245.252,-113.975,-207.790,-8020.950,2191.490,-41282.661
1512178573,-50.700,9.200,352.700,-49500.000,-29360.000,937990.000,286000.000,-327000.000,-291000.000,-1135.128,-192.326,46.439,-212.044,-56.433,-335.661,-8166.458,3166.267,-41055.931
1512178573,42.200,-41.800,349.300,35100.000,59750.000,888980.000,286000.000,-327000.000,-291000.000,-735.255,-272.108,-351.014,-198.901,-58.315,-437.501,-8311.096,4366.051,-41129.097
1512178573,69.400,92.400,346.200,8610.000,-4030.000,969060.000,296000.000,-331000.000,-277000.000,-17.247,-381.387,-713.045,-239.472,-101.881,-442.351,-8761.612,4215.385,-40825.356
1512178573,-130.800,-59.300,339.700,6230.000,-8670.000,961360.000,296000.000,-331000.000,-277000.000,160.599,-84.516,-1076.164,-241.818,-152.789,-360.999,-8914.734,3540.154,-40974.373
1512178573,69.000,39.300,343.800,8420.000,40410.000,883790.000,296000.000,-331000.000,-277000.000,-200.531,361.943,-1328.232,-111.371,-142.949,-396.525,-8989.761,3540.047,-41048.744
1512178573,39.100,-18.400,347.800,-41750.000,67810.000,974120.000,296000.000,-331000.000,-277000.000,-280.026,450.398,-1287.501,7.267,-69.834,-535.043,-8988.159,3915.047,-41198.570
1512178573,8.000,15.300,349.800,60490.000,30520.000,943660.000,298000.000,-312000.000,-275000.000,287.708,145.607,-1208.910,19.734,65.017,-536.320,-8840.439,3390.266,-41050.087
1512178573,-20.200,11.500,354.300,-46880.000,-15320.000,1003050.000,298000.000,-312000.000,-275000.000,940.587,73.085,-1305.245,-94.720,121.136,-368.577,-8991.898,3090.034,-41273.949
1512178573,-77.200,-75.400,357.300,-19960.000,-8610.000,903500.000,298000.000,-312000.000,-275000.000,1205.389,181.674,-1454.542,-140.957,101.370,-201.141,-9147.491,1889.809,-41648.232
1512178573,57.100,69.600,353.000,1100.000,43090.000,945010.000,298000.000,-312000.000,-275000.000,1068.441,208.108,-1423.387,-144.458,60.932,-78.245,-9078.339,614.906,-41874.458
1512178573,-160.700,-132.600,354.500,-37960.000,-16850.000,962280.000,298000.000,-312000.000,-275000.000,667.853,233.975,-1307.569,-142.445,54.903,3.546,-8932.281,-284.874,-41651.146
1512178573,14.400,17.400,356.600,11720.000,30580.000,844240.000,316000.000,-297000.000,-282000.000,236.932,235.297,-1228.522,-104.766,90.977,27.138,-8857.361,-284.767,-41801.796
1512178573,47.000,-15.000,359.100,-22340.000,-32290.000,908200.000,316000.000,-297000.000,-282000.000,2.745,74.510,-1128.001,-53.003,126.908,12.982,-9085.846,-1035.103,-42025.215
1512178573,-30.200,-16.800,352.200,78980.000,-57560.000,904790.000,316000.000,-297000.000,-282000.000,131.960,-227.792,-1026.971,-16.097,175.207,12.319,-9010.101,-884.987,-41875.786
1512178573,17.200,-32.100,358.300,-33020.000,1280.000,898930.000,316000.000,-297000.000,-282000.000,501.830,-493.318,-972.433,-11.225,221.279,86.567,-9312.576,-1410.439,-42098.473
1512178573,38.300,19.400,354.700,-90030.000,29660.000,1006160.000,325000.000,-306000.000,-287000.000,834.054,-600.857,-889.102,-16.688,212.759,182.079,-9990.829,-2161.461,-41868.095
1512178573,-100.300,-124.800,350.200,21060.000,33510.000,932920.000,325000.000,-306000.000,-287000.000,1089.057,-584.677,-772.350,-32.694,205.634,277.824,-10445.633,-3212.151,-42014.748
1512178573,5.900,22.600,352.600,-63840.000,-19170.000,945430.000,325000.000,-306000.000,-287000.000,1250.350,-488.519,-657.743,-49.784,200.424,345.659,-11125.931,-4413.170,-41784.569
1512178573,-41.500,-90.800,348.900,-12270.000,1160.000,975770.000,325000.000,-306000.000,-287000.000,1215.829,-352.032,-561.823,-63.871,191.350,379.147,-11505.951,-5538.734,-41706.902
1512178573,4.400,7.600,349.400,-6040.000,-32710.000,966610.000,325000.000,-306000.000,-287000.000,1112.735,-237.994,-510.683,-69.216,202.179,365.850,-11735.229,-6514.076,-41480.431
1512178573,-93.500,-86.200,348.300,13980.000,-32100.000,944270.000,337000.000,-294000.000,-272000.000,1057.469,-171.836,-517.650,-52.427,216.627,337.383,-12040.558,-7714.546,-41328.438
1512178573,3.200,-16.100,356.200,-72330.000,65120.000,967040.000,337000.000,-294000.000,-272000.000,846.428,-171.812,-423.164,-4.750,158.591,287.030,-12386.001,-9477.555,-41363.884
1512178573,-20.900,-97.500,357.000,-75740.000,98750.000,1016540.000,337000.000,-294000.000,-272000.000,130.028,-131.957,-65.082,114.539,52.187,121.276,-12613.052,-9965.400,-41062.202
1512178573,-63.800,-37.600,358.300,-22640.000,-18550.000,981320.000,337000.000,-294000.000,-272000.000,-292.744,186.136,537.555,220.332,16.873,-54.025,-12912.995,-9928.352,-41284.630
1512178573,-27.000,-38.100,355.900,15260.000,-44310.000,938420.000,337000.000,-294000.000,-272000.000,-608.670,-19.443,808.905,243.844,45.053,-184.611,-12608.642,-8952.896,-41361.732
1512178573,23.300,31.700,351.900,31430.000,-23130.000,1034670.000,335000.000,-299000.000,-284000.000,-1373.191,-322.175,707.227,169.037,-71.986,-86.779,-13425.278,-7079.117,-41503.861
1512178573,-69.500,-30.200,342.100,52120.000,-73430.000,1010860.000,335000.000,-299000.000,-284000.000,-2462.659,-227.171,709.898,192.960,23.141,-255.877,-14011.894,-4079.994,-41722.374
1512178573,105.100,77.600,339.700,39120.000,-14470.000,1024780.000,335000.000,-299000.000,-284000.000,-1228.962,-240.724,142.991,163.871,189.085,-362.310,-14593.636,-30.869,-41640.404
1512178573,42.200,54.500,342.200,-18310.000,-63720.000,1070370.000,335000.000,-299000.000,-284000.000,484.083,654.446,-162.753,230.055,29.956,-86.937,-14590.355,681.641,-41490.074
1512178573,1.700,-12.700,350.600,47670.000,37230.000,980830.000,340000.000,-294000.000,-272000.000,357.174,1084.226,636.981,262.848,-72.680,74.588,-13206.451,-66.285,-41952.210
1512178573,156.200,156.100,324.100,100400.000,-108340.000,886050.000,340000.000,-294000.000,-272000.000,-99.631,50.853,1039.334,145.346,63.266,137.879,-12043.572,47.958,-42224.541
1512178573,-2.000,65.800,344.600,28080.000,-161440.000,977420.000,340000.000,-294000.000,-272000.000,204.498,-270.808,1069.269,38.518,96.830,361.078,-12490.379,759.788,-42257.881
1512178573,-87.000,-41.900,357.000,-80750.000,71720.000,748900.000,340000.000,-294000.000,-272000.000,625.663,508.233,1232.128,-14.312,47.084,461.568,-12415.741,684.899,-42296.051
1512178574,44.200,47.500,367.900,-76110.000,51880.000,833310.000,340000.000,-294000.000,-272000.000,491.832,803.229,1314.371,-33.063,18.228,356.769,-12003.128,760.521,-42749.519
1512178574,10.100,73.600,366.600,-105470.000,4700.000,1023800.000,344000.000,-269000.000,-282000.000,198.801,643.646,1297.840,-37.571,-12.339,257.480,-11179.169,536.751,-42831.627
1512178574,-291.200,-236.600,357.000,-102970.000,78670.000,750370.000,344000.000,-269000.000,-282000.000,-207.809,393.168,1248.438,-32.995,-61.526,138.089,-9902.298,988.670,-43142.265
1512178574,379.400,209.700,347.400,10190.000,34480.000,934330.000,344000.000,-269000.000,-282000.000,-471.965,122.561,1221.281,-31.998,-97.850,12.149,-9899.628,1588.676,-43216.988
1512178574,-275.000,-166.600,354.500,-11720.000,-50420.000,1041630.000,344000.000,-269000.000,-282000.000,-542.222,-22.795,1208.031,-39.358,-125.580,-46.576,-9670.853,2414.024,-43068.520
1512178574,-85.400,-91.900,342.600,-43030.000,-49990.000,911010.000,347000.000,-269000.000,-282000.000,-660.315,12.171,1259.744,-84.721,-171.614,-99.939,-9443.069,3014.366,-42920.158
1512178574,-72.400,-83.900,344.700,19040.000,-2750.000,985170.000,347000.000,-269000.000,-282000.000,-979.870,41.747,1180.592,-128.232,-155.219,-196.574,-9663.651,3989.021,-42842.796
1512178574,-90.400,-31.300,341.000,1770.000,-73430.000,950560.000,347000.000,-269000.000,-282000.000,-1252.364,-131.142,888.206,-164.897,-91.978,-353.536,-9432.907,5264.381,-42844.109
1512178574,-160.700,-74.600,336.800,-21300.000,-90940.000,1044620.000,347000.000,-269000.000,-282000.000,-1112.348,-451.359,333.705,-198.171,-30.852,-462.143,-9878.067,6313.713,-42614.815
1512178574,-28.800,-34.000,337.200,-52550.000,9280.000,916440.000,347000.000,-269000.000,-282000.000,-490.373,-659.489,-350.945,-253.166,-43.173,-457.638,-10701.538,6612.465,-42232.658
1512178574,-101.700,-56.100,332.000,-7510.000,-34060.000,954830.000,351000.000,-273000.000,-282000.000,150.953,-404.276,-894.051,-302.462,-150.733,-344.606,-11301.117,6686.577,-42077.522
1512178574,9.900,22.500,337.000,-14530.000,-46510.000,914180.000,351000.000,-273000.000,-282000.000,234.623,442.484,-1207.579,-266.470,-246.127,-248.884,-11452.805,6386.345,-42751.381
1512178574,-85.200,-14.000,341.700,-5740.000,-100830.000,984250.000,351000.000,-273000.000,-282000.000,100.014,1240.243,-1215.280,-109.784,-208.782,-364.216,-10480.804,5712.807,-42684.990
1512178574,-34.500,35.000,348.900,8360.000,-87650.000,955930.000,351000.000,-273000.000,-282000.000,445.813,1206.257,-1047.282,10.267,-48.071,-552.512,-9583.023,5264.153,-43067.848
1512178574,-46.900,-35.600,354.900,-23380.000,-61580.000,1005130.000,351000.000,-273000.000,-282000.000,1136.759,552.458,-1023.556,-12.278,88.471,-534.936,-9212.891,4214.699,-43371.513
1512178574,-9.300,7.500,350.700,5860.000,-128230.000,891360.000,370000.000,-264000.000,-284000.000,1459.792,-58.687,-1249.142,-121.434,128.557,-330.441,-9292.999,3089.577,-43446.404
1512178574,-6.400,-5.900,347.300,-33940.000,-47000.000,926150.000,370000.000,-264000.000,-284000.000,1309.836,-437.663,-1482.900,-178.232,99.924,-105.024,-9900.497,1438.667,-43592.049
1512178574,6.300,66.200,358.100,1400.000,-116390.000,914610.000,370000.000,-264000.000,-284000.000,1020.247,-324.712,-1564.524,-226.386,46.635,48.912,-10579.880,462.654,-43586.769
1512178574,-4.900,-6.100,347.400,17150.000,-60610.000,909730.000,370000.000,-264000.000,-284000.000,904.409,159.005,-1562.385,-200.392,52.746,115.456,-10585.022,-662.361,-43737.297
1512178574,39.700,43.400,352.500,47670.000,-67200.000,984370.000,370000.000,-264000.000,-284000.000,954.360,609.541,-1402.319,-146.606,68.267,61.995,-10215.805,-1936.806,-43816.063
1512178574,-40.300,-19.200,357.300,-55360.000,-60910.000,1025700.000,374000.000,-246000.000,-277000.000,1083.776,625.298,-1169.056,-96.692,131.068,-15.994,-9697.464,-3361.031,-44346.184
1512178574,2.400,-5.600,350.500,3360.000,-41870.000,971250.000,374000.000,-246000.000,-277000.000,1279.405,326.214,-1022.277,-88.055,202.315,-11.468,-9403.091,-4635.582,-44124.321
1512178574,1.300,12.300,350.300,-16540.000,-90520.000,1010930.000,374000.000,-246000.000,-277000.000,1465.724,-17.586,-960.010,-105.728,250.013,63.586,-9183.075,-5760.246,-43976.753
1512178574,-63.900,-36.900,348.100,17940.000,-55300.000,976260.000,374000.000,-246000.000,-277000.000,1529.438,-226.993,-890.521,-128.888,257.379,175.908,-9189.423,-7185.265,-43827.415
1512178574,-6.100,-11.600,347.400,1040.000,-67020.000,990110.000,384000.000,-260000.000,-294000.000,1365.757,-463.614,-737.537,-137.000,253.798,295.254,-9724.083,-9361.061,-43561.455
1512178574,-73.500,-27.800,348.900,9030.000,-81730.000,952580.000,384000.000,-260000.000,-294000.000,873.252,-448.194,-543.667,-133.520,247.362,373.579,-10819.359,-11162.704,-42915.551
1512178574,-42.900,-27.700,346.200,-12150.000,-16480.000,939390.000,384000.000,-260000.000,-294000.000,638.524,-294.680,-297.607,-80.207,228.398,308.377,-10976.609,-12812.942,-42540.039
1512178574,-55.700,29.800,341.700,-62810.000,-5620.000,1026120.000,384000.000,-260000.000,-294000.000,131.238,-222.313,-12.605,-35.748,147.557,242.422,-11619.316,-14013.908,-42160.172
1512178574,-41.100,-71.400,341.000,-44980.000,-23250.000,1000730.000,384000.000,-260000.000,-294000.000,-894.212,-59.294,216.168,26.576,126.407,69.733,-12028.481,-13264.519,-42231.323
1512178574,50.500,40.100,341.200,13430.000,-48340.000,941040.000,388000.000,-232000.000,-277000.000,-1611.817,-321.175,18.834,160.089,138.482,-172.307,-12130.142,-10827.171,-42491.745
1512178574,77.900,35.600,336.000,37350.000,-128480.000,1067080.000,388000.000,-232000.000,-277000.000,-1624.752,-635.509,-116.769,246.350,1.617,-155.504,-13282.913,-8653.900,-42593.353
1512178574,-19.000,-9.200,329.700,50840.000,-136110.000,1105770.000,388000.000,-232000.000,-277000.000,-2238.091,141.979,297.606,229.754,-105.442,-171.769,-13868.798,-5504.776,-42699.295
1512178574,70.600,-20.500,326.400,24110.000,-86850.000,1002380.000,388000.000,-232000.000,-277000.000,-2047.465,-109.691,233.400,274.609,91.189,-495.439,-13663.986,-1641.976,-42849.106
1512178574,-7.200,-73.800,326.000,6650.000,-115840.000,867680.000,383000.000,-230000.000,-275000.000,-596.839,-580.981,-161.924,234.663,33.064,-254.620,-14703.530,643.975,-42501.632
1512178574,227.200,80.600,325.400,9160.000,-31860.000,827940.000,383000.000,-230000.000,-275000.000,-5.592,170.173,190.929,230.877,-130.864,94.183,-15301.613,1018.067,-42046.356
1512178574,-4.100,-65.400,338.000,-81050.000,-28870.000,921330.000,383000.000,-230000.000,-275000.000,-221.927,100.750,829.319,157.793,-79.222,165.647,-14886.169,1693.696,-42237.060
1512178574,-14.200,49.300,341.200,-15010.000,16300.000,893070.000,383000.000,-230000.000,-275000.000,-77.675,-259.193,920.772,33.349,22.165,265.205,-15033.486,2293.480,-42273.010
1512178575,-135.200,-50.900,340.400,-48830.000,-52800.000,893860.000,383000.000,-230000.000,-275000.000,285.722,30.204,975.017,-10.833,-2.498,379.411,-15444.366,2630.363,-42044.334
1512178575,-14.100,57.800,341.300,-39790.000,20630.000,865110.000,400000.000,-234000.000,-269000.000,435.560,384.984,1021.064,-49.260,4.414,407.864,-14992.676,3006.035,-42047.997
1512178575,14.100,20.800,332.800,-3420.000,-11410.000,935790.000,400000.000,-234000.000,-269000.000,427.637,653.136,997.363,-67.579,0.487,380.909,-15069.839,2555.916,-42347.557
1512178575,-16.200,39.000,323.400,-67570.000,-8610.000,982120.000,400000.000,-234000.000,-269000.000,316.512,678.701,950.004,-64.314,-15.398,286.895,-14546.005,2331.703,-42652.122
1512178575,-33.300,3.700,313.300,-5000.000,4940.000,926570.000,400000.000,-234000.000,-269000.000,97.739,453.098,888.482,-54.206,-38.328,149.864,-13869.614,2632.729,-42582.726
1512178575,-36.900,79.400,303.900,-62500.000,-45290.000,1014650.000,400000.000,-234000.000,-269000.000,-111.334,91.874,813.836,-34.545,-45.088,43.815,-13193.863,2783.730,-42438.393
1512178575,-130.500,-56.600,296.500,10500.000,-47850.000,982300.000,386000.000,-237000.000,-282000.000,-224.611,-195.650,816.525,-28.646,-90.946,-26.561,-13192.551,3083.733,-42513.252
1512178575,-32.200,51.400,294.700,34420.000,-36130.000,972470.000,386000.000,-237000.000,-282000.000,-274.979,-401.900,822.540,-53.605,-126.771,-87.235,-13490.417,3533.287,-42285.500
1512178575,-36.600,-18.600,296.700,-15200.000,-33140.000,962890.000,386000.000,-237000.000,-282000.000,-425.052,-460.720,740.206,-109.534,-140.737,-126.770,-14311.554,4357.063,-41978.111
1512178575,-43.700,14.600,294.900,-27770.000,-38820.000,958560.000,386000.000,-237000.000,-282000.000,-604.493,-449.969,568.142,-131.170,-132.249,-210.960,-14836.594,4356.270,-42048.637
1512178575,-85.500,-24.800,289.800,16660.000,-50110.000,946110.000,404000.000,-206000.000,-296000.000,-544.241,-453.573,275.836,-137.018,-118.009,-253.410,-15054.886,5780.937,-41446.068
1512178575,-47.400,44.100,291.100,-21610.000,-57010.000,978150.000,404000.000,-206000.000,-296000.000,-196.025,-428.699,-152.921,-178.330,-44.523,-338.638,-15580.856,5555.153,-41366.722
1512178575,-96.900,-31.800,286.600,-14530.000,-27530.000,942810.000,404000.000,-206000.000,-296000.000,205.588,-402.657,-586.226,-208.866,-87.577,-322.769,-16181.534,5404.243,-41361.687
1512178575,11.500,44.300,290.800,-41870.000,16420.000,1009950.000,404000.000,-206000.000,-296000.000,288.449,-166.823,-945.602,-219.111,-168.608,-250.964,-16409.195,4803.902,-41285.042
1512178575,27.600,-17.400,293.300,-9160.000,8480.000,984800.000,404000.000,-206000.000,-296000.000,-121.841,605.187,-1109.833,-160.281,-234.607,-258.352,-16336.487,4279.015,-41135.933
1512178575,54.200,-29.000,290.000,-51820.000,5070.000,962520.000,414000.000,-202000.000,-289000.000,-320.247,1097.265,-1077.945,-1.682,-130.993,-466.641,-15660.919,4430.031,-41366.600
1512178575,-122.800,-138.100,296.100,-31010.000,-71350.000,914730.000,414000.000,-202000.000,-289000.000,273.175,799.870,-941.392,138.916,28.004,-650.953,-15063.766,3830.925,-41671.974
1512178575,73.600,75.000,284.400,-17030.000,-83860.000,854310.000,414000.000,-202000.000,-289000.000,1169.924,25.697,-926.830,119.152,123.579,-564.833,-15066.803,3155.922,-41672.279
1512178575,26.100,-32.100,277.500,42360.000,-98690.000,889770.000,414000.000,-202000.000,-289000.000,1453.422,-318.620,-1068.906,-19.666,105.095,-242.993,-15601.593,980.125,-41668.831
1512178575,-98.900,67.100,281.800,4210.000,-85880.000,1005860.000,414000.000,-202000.000,-289000.000,1274.858,-218.299,-1160.692,-85.098,50.353,19.173,-15759.140,-670.113,-41893.318
1512178575,-23.700,-6.400,274.800,-58960.000,-62440.000,958440.000,405000.000,-218000.000,-291000.000,970.766,128.203,-1063.686,-104.171,-12.297,168.684,-15761.459,-1195.122,-41818.550
1512178575,-45.400,-84.000,267.000,50480.000,-83130.000,860840.000,405000.000,-218000.000,-291000.000,621.950,450.904,-839.474,-82.532,-20.063,189.512,-15768.066,-2695.122,-41519.249
1512178575,85.900,132.200,285.500,-22400.000,-93930.000,939030.000,405000.000,-218000.000,-291000.000,389.486,408.502,-643.636,-59.663,44.308,127.869,-15320.877,-3294.456,-41748.360
1512178575,-10.700,18.200,270.000,17700.000,-92650.000,968750.000,405000.000,-218000.000,-291000.000,355.001,131.512,-505.446,-64.784,111.360,99.469,-14797.928,-3743.675,-41828.026
1512178575,-54.700,8.800,271.900,-10070.000,-131710.000,1002870.000,414000.000,-213000.000,-292000.000,464.768,-189.953,-454.872,-92.402,166.582,124.694,-14877.289,-4718.788,-41752.831
1512178575,-138.500,-2.400,271.900,-20810.000,-96070.000,993900.000,414000.000,-213000.000,-292000.000,583.570,-347.793,-491.012,-125.349,198.129,206.163,-15178.864,-5094.246,-41525.459
1512178575,-3.600,43.900,269.200,-54690.000,-4940.000,923890.000,414000.000,-213000.000,-292000.000,759.597,-165.270,-554.455,-141.762,191.107,304.557,-15936.272,-6745.384,-41482.346
1512178575,-5.500,14.200,272.600,-92900.000,-39250.000,993770.000,414000.000,-213000.000,-292000.000,719.217,83.829,-420.916,-88.224,151.492,298.405,-15493.805,-8469.719,-41036.965
1512178575,-95.900,35.800,265.100,-49440.000,-89420.000,979060.000,414000.000,-213000.000,-292000.000,429.316,-165.981,-178.125,-34.183,156.062,182.894,-15387.085,-9782.058,-40776.032
1512178575,32.600,51.700,261.900,-13730.000,-71410.000,981870.000,402000.000,-197000.000,-284000.000,210.495,-438.373,-77.770,-33.686,138.880,106.073,-15802.078,-10382.683,-40360.314
1512178575,59.100,51.500,259.300,-25820.000,-101440.000,982300.000,402000.000,-197000.000,-284000.000,115.264,-110.844,56.847,22.072,76.558,49.223,-16067.558,-11095.573,-39908.401
1512178575,-65.800,6.100,255.100,-46020.000,-113770.000,937070.000,402000.000,-197000.000,-284000.000,-384.576,145.373,287.162,91.424,14.584,-41.540,-15878.800,-10832.802,-39759.880
1512178575,-1.600,41.000,253.500,-80570.000,-73000.000,951420.000,402000.000,-197000.000,-284000.000,-1016.735,-316.480,263.602,159.853,-41.361,-149.550,-15724.769,-9932.564,-39798.233
1512178575,-8.300,25.400,245.300,-47490.000,-75740.000,928220.000,402000.000,-197000.000,-284000.000,-1460.360,182.377,458.798,208.827,-185.491,-43.153,-16203.865,-8058.281,-39868.233
1512178575,18.200,88.400,247.000,-55790.000,-54630.000,977540.000,426000.000,-176000.000,-294000.000,-1600.593,765.257,1071.777,374.874,-37.427,-367.398,-15179.947,-5469.246,-40325.638
1512178575,-7.700,19.200,238.400,-73360.000,-96370.000,953370.000,426000.000,-176000.000,-294000.000,-661.023,-297.616,997.475,340.117,153.174,-434.959,-14681.289,-2956.002,-40628.624
1512178575,-19.000,52.100,239.700,-87040.000,-97960.000,982300.000,426000.000,-176000.000,-294000.000,-5.398,-248.768,837.638,227.898,72.046,-34.541,-15090.508,-2281.616,-40137.314
1512178575,-46.200,-9.100,234.100,-89660.000,-90580.000,977290.000,426000.000,-176000.000,-294000.000,236.022,165.318,1216.232,187.216,55.302,143.912,-15126.549,-1981.666,-39911.843
1512178576,-59.800,15.700,234.900,-116760.000,-101680.000,966800.000,409000.000,-176000.000,-284000.000,374.854,7.100,1387.730,87.802,114.510,236.631,-14787.811,-1718.651,-39802.086
1512178576,-53.500,-35.000,225.000,-36380.000,-59450.000,894780.000,409000.000,-176000.000,-284000.000,468.946,-69.630,1366.436,4.547,138.377,334.066,-14864.044,-2018.776,-39576.591
1512178576,78.400,59.000,222.400,-114010.000,-103940.000,873170.000,409000.000,-176000.000,-284000.000,496.206,14.992,1269.048,-73.069,143.814,428.315,-15165.054,-2244.225,-39574.150
1512178576,64.000,61.700,210.000,-50780.000,-75990.000,986940.000,409000.000,-176000.000,-284000.000,388.739,287.603,1076.551,-134.721,134.692,488.171,-15090.027,-2244.118,-39499.794
1512178576,26.100,16.600,209.100,-104920.000,-81480.000,954830.000,409000.000,-176000.000,-284000.000,241.475,568.649,904.824,-149.516,98.108,462.193,-14714.722,-2168.556,-39577.934
1512178576,-10.500,30.900,211.300,-69820.000,-87460.000,966310.000,402000.000,-155000.000,-294000.000,132.096,740.624,822.817,-128.949,66.275,380.055,-13664.719,-2166.969,-39586.861
1512178576,16.200,73.600,210.700,-102480.000,-39430.000,1008420.000,402000.000,-155000.000,-294000.000,46.512,789.720,779.107,-120.549,36.087,262.264,-12914.490,-2090.843,-39818.199
1512178576,-54.100,-5.200,203.200,-92470.000,-79530.000,982540.000,402000.000,-155000.000,-294000.000,12.693,848.579,699.936,-98.508,9.521,156.716,-12689.346,-2090.508,-39520.119
1512178576,-1.300,44.200,198.900,-86980.000,-102910.000,940980.000,402000.000,-155000.000,-294000.000,-83.128,861.259,692.192,-62.394,-42.833,26.482,-11640.793,-2388.939,-39754.173
1512178576,94.400,35.700,196.000,-91980.000,-77510.000,929260.000,402000.000,-151000.000,-297000.000,-127.213,660.348,705.781,-55.618,-78.544,-120.210,-11039.978,-2163.033,-40134.178
1512178576,8.700,-8.700,198.000,-148990.000,-76600.000,890810.000,402000.000,-151000.000,-297000.000,-157.756,334.448,731.922,-75.355,-116.320,-207.485,-10362.915,-1712.013,-40064.705
1512178576,15.000,14.800,188.200,-131100.000,-6650.000,921140.000,402000.000,-151000.000,-297000.000,-337.329,14.882,680.235,-118.201,-127.852,-268.897,-9461.853,-1485.664,-39997.246
1512178576,90.000,43.800,179.500,-116580.000,-4150.000,952450.000,402000.000,-151000.000,-297000.000,-549.430,-390.926,464.673,-143.050,-90.783,-332.168,-9312.119,-1560.448,-39848.549
1512178576,17.000,35.200,171.500,-125310.000,-50050.000,1038760.000,402000.000,-151000.000,-297000.000,-616.864,-815.527,137.070,-163.148,-67.903,-365.769,-10133.865,-886.681,-39391.228
1512178576,-34.600,-2.500,160.700,-92290.000,-2500.000,1025570.000,404000.000,-139000.000,-292000.000,-417.362,-1023.786,-270.131,-203.036,-70.524,-324.805,-11034.164,-963.020,-39308.617
1512178576,-10.000,32.900,157.800,-113830.000,-41320.000,1010500.000,404000.000,-139000.000,-292000.000,-59.583,-938.147,-629.244,-247.999,-123.219,-242.621,-11481.644,-438.698,-39004.555
1512178576,-73.200,-11.200,155.300,-107300.000,-46020.000,953430.000,404000.000,-139000.000,-292000.000,178.846,-493.931,-908.883,-279.965,-166.254,-114.884,-11557.144,-588.814,-38628.990
1512178576,15.400,24.500,147.100,-80320.000,-30030.000,932190.000,404000.000,-139000.000,-292000.000,-145.814,316.704,-1091.993,-240.040,-183.339,-88.732,-10882.584,-662.804,-38859.764
1512178576,13.600,13.200,146.700,-173160.000,-22950.000,921690.000,404000.000,-139000.000,-292000.000,-503.786,698.691,-1151.285,-108.101,-70.111,-289.327,-10508.942,-962.242,-38863.091
1512178576,35.300,20.600,135.800,-119630.000,-43820.000,910520.000,400000.000,-135000.000,-286000.000,-196.184,409.647,-1136.109,-28.323,60.830,-471.167,-9983.185,-811.455,-38717.476
1512178576,87.900,44.700,131.400,-150090.000,-10500.000,944760.000,400000.000,-135000.000,-286000.000,494.268,-144.625,-1206.923,-60.354,160.193,-420.253,-9685.852,-1411.003,-38645.317
1512178576,-30.500,-22.500,127.300,-114140.000,-6470.000,964840.000,400000.000,-135000.000,-286000.000,793.510,-270.800,-1452.486,-139.834,167.411,-191.152,-9615.234,-2385.902,-38646.400
1512178576,42.600,31.300,124.600,-190610.000,33080.000,972660.000,400000.000,-135000.000,-286000.000,700.963,-2.445,-1645.851,-169.713,108.341,-14.474,-9543.976,-3210.793,-38722.420
1512178576,-28.000,-22.400,117.200,-153750.000,-8420.000,923520.000,400000.000,-142000.000,-272000.000,512.906,382.935,-1664.287,-119.078,59.625,48.489,-9470.337,-3510.689,-38723.183
1512178576,-12.700,6.100,104.400,-117430.000,-3050.000,982300.000,400000.000,-142000.000,-272000.000,393.545,550.061,-1465.018,-21.272,42.131,18.549,-8500.198,-4559.227,-39031.960
1512178576,-35.400,17.300,102.900,-82700.000,-52980.000,917600.000,400000.000,-142000.000,-272000.000,406.888,394.634,-1182.860,18.209,55.839,-10.111,-7976.135,-4783.440,-38886.528
1512178576,2.900,40.100,94.300,-100400.000,-37540.000,991820.000,400000.000,-142000.000,-272000.000,582.316,167.496,-971.093,12.173,106.266,66.287,-7192.520,-5644.768,-38893.623
1512178576,-22.900,-2.500,94.000,-130000.000,-36440.000,959050.000,400000.000,-142000.000,-272000.000,941.150,50.589,-724.840,3.220,112.459,162.684,-6671.913,-6618.980,-38898.537
1512178576,-37.700,-2.100,90.800,-118410.000,-27040.000,972350.000,411000.000,-146000.000,-272000.000,1004.526,-174.258,-409.149,-8.789,104.116,248.930,-6718.972,-8719.063,-39124.176
1512178576,66.700,61.700,88.600,-81240.000,20390.000,985470.000,411000.000,-146000.000,-272000.000,743.661,-411.649,-213.869,-12.121,122.667,267.022,-6834.305,-9431.732,-38373.558
1512178576,8.800,15.200,84.600,-87400.000,-42180.000,982670.000,411000.000,-146000.000,-272000.000,582.168,-468.476,41.581,-4.213,91.040,203.288,-7214.088,-10519.798,-38145.874
1512178576,-51.700,40.900,84.600,-129460.000,-96190.000,1013490.000,411000.000,-146000.000,-272000.000,262.611,-104.565,237.035,17.418,70.761,123.367,-7740.608,-10858.085,-38141.571
1512178576,44.200,-29.700,60.300,-68180.000,-65670.000,786620.000,411000.000,-146000.000,-272000.000,-241.884,166.146,427.357,113.529,65.945,-43.425,-7589.890,-10707.863,-38067.772
1512178576,122.200,196.500,85.800,-110050.000,-99790.000,1060850.000,404000.000,-142000.000,-265000.000,-972.813,-323.960,574.439,145.819,37.879,-119.376,-7660.881,-9770.470,-38479.202
1512178576,31.800,27.300,66.300,-104550.000,-3230.000,853210.000,404000.000,-142000.000,-265000.000,-1005.945,14.673,273.445,96.639,20.739,-14.828,-8178.703,-8158.745,-38623.993
1512178576,88.600,-17.600,63.900,-35280.000,-67990.000,912540.000,404000.000,-142000.000,-265000.000,-1440.673,626.457,354.025,208.829,12.747,-155.631,-7194.206,-5982.269,-39231.269
1512178576,117.400,110.800,63.100,-202700.000,-36740.000,911620.000,404000.000,-142000.000,-265000.000,-1277.899,-172.548,205.954,202.439,139.596,-312.440,-6845.794,-3544.243,-39345.512
1512178576,-25.000,-31.700,61.700,-143430.000,35100.000,949340.000,412000.000,-123000.000,-274000.000,-142.311,208.836,-16.664,148.228,72.666,-18.557,-6952.881,-2344.406,-39306.495
1512178577,106.900,96.300,55.500,-174620.000,41080.000,970830.000,412000.000,-123000.000,-274000.000,150.606,792.864,349.939,203.661,-34.690,135.544,-6537.292,-1631.279,-39572.182
1512178577,-47.700,-16.000,59.300,-212340.000,11290.000,1032470.000,412000.000,-123000.000,-274000.000,-52.044,767.209,742.421,189.508,-43.263,132.024,-5639.740,-2154.930,-39730.080
1512178577,32.500,40.600,44.100,-151250.000,-17210.000,1002140.000,412000.000,-123000.000,-274000.000,-340.606,340.259,895.600,136.089,3.793,117.881,-5038.986,-2004.036,-39585.106
1512178577,19.600,-8.100,39.000,-130490.000,-20570.000,968930.000,412000.000,-123000.000,-274000.000,-479.676,-81.913,903.841,87.703,25.899,141.911,-4737.854,-1703.575,-40037.514
1512178577,19.400,62.700,33.000,-115540.000,-36320.000,979920.000,407000.000,-128000.000,-275000.000,-318.961,-305.998,908.588,54.514,35.394,193.154,-5109.253,-954.140,-39583.977
1512178577,-24.900,14.600,28.600,-117860.000,9400.000,983340.000,407000.000,-128000.000,-275000.000,59.529,-264.954,972.848,38.520,24.409,270.232,-5031.967,-429.024,-39734.383
1512178577,69.900,88.900,27.000,-170840.000,-3600.000,907350.000,407000.000,-128000.000,-275000.000,384.659,-73.524,1112.549,1.886,-8.128,331.723,-5482.941,-654.701,-39655.647
1512178577,-48.100,39.800,27.300,-127200.000,-25090.000,1017580.000,407000.000,-128000.000,-275000.000,418.285,47.036,1212.599,-57.048,-35.932,322.396,-5482.681,-579.704,-39805.611
1512178577,31.700,92.400,25.400,-137020.000,-15560.000,945010.000,407000.000,-128000.000,-275000.000,180.009,-56.866,1176.807,-110.617,-41.001,297.322,-5485.046,-1104.698,-39805.855
1512178577,-102.100,20.600,24.600,-107850.000,-56760.000,974300.000,407000.000,-132000.000,-279000.000,-319.566,-104.458,1084.113,-145.457,-71.566,274.862,-5034.668,-1029.030,-39734.657
1512178577,27.000,79.800,23.700,-155880.000,-5370.000,824890.000,407000.000,-132000.000,-279000.000,-790.728,-156.314,1015.276,-149.426,-86.640,164.504,-4882.614,-578.804,-39660.713
1512178577,77.000,60.500,23.000,-148680.000,-3230.000,943240.000,407000.000,-132000.000,-279000.000,-884.888,-299.367,900.414,-138.634,-44.720,41.713,-5025.864,920.982,-39658.745
1512178577,40.700,67.500,17.600,-182920.000,-20200.000,925290.000,407000.000,-132000.000,-279000.000,-706.559,-425.906,746.913,-173.915,-40.953,-26.949,-4949.509,1221.092,-39659.248
1512178577,-68.000,-48.300,17.600,-102600.000,-60970.000,901550.000,411000.000,-135000.000,-289000.000,-601.456,-396.449,516.137,-241.085,-48.863,-19.118,-5172.150,1745.766,-39657.097
1512178577,65.400,244.700,21.300,-167540.000,-26250.000,1088990.000,411000.000,-135000.000,-289000.000,-771.044,-256.160,205.011,-287.224,-55.063,-15.110,-5618.362,2570.091,-39502.892
1512178577,-204.900,-149.800,-2.100,-191100.000,38450.000,907840.000,411000.000,-135000.000,-289000.000,-1009.868,139.435,-161.664,-307.662,-27.530,-70.442,-5841.980,2869.759,-39425.835
1512178577,-86.200,54.300,3.700,-112060.000,-56210.000,998840.000,411000.000,-135000.000,-289000.000,-836.084,692.797,-588.978,-317.950,18.981,-222.085,-5613.602,3620.110,-39427.406
1512178577,137.700,79.400,-6.500,-142150.000,148560.000,876460.000,411000.000,-135000.000,-289000.000,-209.930,873.065,-1055.807,-284.916,52.203,-402.986,-4785.889,4221.352,-39434.135
1512178577,137.200,-37.000,-15.600,-33940.000,-16970.000,946900.000,407000.000,-146000.000,-296000.000,552.447,597.311,-1465.747,-249.800,25.820,-458.158,-4037.247,3922.462,-39440.651
1512178577,-274.700,-69.200,2.100,-213380.000,-310.000,900330.000,407000.000,-146000.000,-296000.000,737.775,470.850,-1656.461,-180.083,-80.103,-409.496,-4039.490,3472.466,-39890.862
1512178577,245.800,256.100,-12.000,-109250.000,89840.000,941100.000,407000.000,-146000.000,-296000.000,356.095,537.429,-1586.067,-86.503,-129.803,-393.768,-3741.852,2947.914,-39893.654
1512178577,-42.200,-128.800,-3.200,-125610.000,-56270.000,957700.000,407000.000,-146000.000,-296000.000,-56.480,498.215,-1522.888,29.480,-45.775,-501.502,-3292.496,2798.592,-39822.548
1512178577,59.800,71.600,-3.600,-78120.000,-27040.000,909480.000,412000.000,-137000.000,-294000.000,148.589,-219.316,-1517.085,107.636,60.273,-628.392,-3519.333,2423.241,-40120.811
1512178577,-90.900,-40.100,-8.700,-166200.000,-34240.000,883300.000,412000.000,-137000.000,-294000.000,760.426,-939.226,-1612.000,60.287,95.630,-488.345,-4345.306,2196.999,-40038.902
1512178577,41.900,44.600,6.400,-186890.000,-4030.000,964110.000,412000.000,-137000.000,-294000.000,1060.694,-998.365,-1721.922,-37.955,36.674,-226.455,-5472.672,1670.311,-40029.579
1512178577,38.200,7.600,-2.800,-176510.000,-12940.000,941410.000,412000.000,-137000.000,-294000.000,968.487,-546.635,-1732.346,-70.541,-51.611,-34.826,-5928.375,394.630,-39951.347
1512178577,-22.000,10.400,-3.200,-172360.000,550.000,1000430.000,412000.000,-137000.000,-294000.000,663.345,256.100,-1419.487,-11.514,-73.780,0.115,-5859.322,-917.763,-40027.588
1512178577,-12.100,-49.400,-15.000,-158020.000,50900.000,945800.000,411000.000,-142000.000,-292000.000,647.553,-18.290,-960.133,54.463,69.330,-79.142,-5827.103,-2080.215,-40140.938
1512178577,43.400,24.100,-18.100,-178960.000,25820.000,991760.000,411000.000,-142000.000,-292000.000,1268.175,-542.414,-931.643,-0.818,201.629,116.829,-6585.297,-3881.355,-40322.899
1512178577,-4.500,-63.600,-25.600,-152590.000,-22030.000,927370.000,411000.000,-142000.000,-292000.000,1684.375,-96.184,-743.366,-66.912,193.146,377.838,-6894.867,-6056.816,-39871.353
1512178577,124.000,73.500,-28.000,-109130.000,27040.000,980470.000,411000.000,-142000.000,-292000.000,1333.760,-54.835,-586.794,-87.023,243.459,381.232,-6832.405,-8869.225,-39648.292
1512178577,95.900,-45.700,-26.000,-112790.000,14220.000,944030.000,395000.000,-133000.000,-294000.000,891.658,-400.912,-395.581,-48.492,212.434,325.273,-7254.173,-10969.864,-39270.760
1512178577,25.800,5.100,-24.900,-165160.000,-3110.000,932310.000,395000.000,-133000.000,-294000.000,636.339,-578.048,-145.641,-36.512,148.483,250.478,-7971.398,-12058.433,-38927.704
1512178577,44.300,-40.100,-34.000,-147830.000,61100.000,898740.000,395000.000,-133000.000,-294000.000,141.899,-501.725,39.352,-31.602,37.120,191.925,-8910.423,-12434.845,-38582.405
1512178577,111.600,14.600,-33.300,-174680.000,21550.000,904540.000,395000.000,-133000.000,-294000.000,-857.132,-200.439,321.224,88.349,-63.163,108.980,-9471.031,-12023.186,-38502.441
1512178577,97.300,24.200,-34.900,-176210.000,58230.000,906130.000,395000.000,-133000.000,-294000.000,-1717.381,-89.382,485.048,258.087,-109.254,11.604,-9798.759,-9811.180,-38873.550
1512178577,-6.900,-47.400,-40.200,-159240.000,83800.000,921200.000,412000.000,-141000.000,-291000.000,-3351.072,216.194,1080.226,294.482,-80.347,-340.301,-9933.350,-6286.377,-39770.645
1512178577,130.400,139.400,-32.200,-271480.000,42420.000,1021360.000,412000.000,-141000.000,-291000.000,-2526.075,-801.487,746.963,271.218,291.410,-741.644,-10393.676,-287.063,-39426.224
1512178578,-96.700,-206.000,-51.400,-191040.000,-23930.000,812810.000,412000.000,-141000.000,-291000.000,-157.345,-757.698,-121.519,180.025,321.560,-394.519,-11698.212,1435.982,-39001.778
1512178578,240.200,134.800,-38.600,-139400.000,53040.000,922790.000,412000.000,-141000.000,-291000.000,1035.811,365.098,-340.190,201.335,159.578,-60.353,-12300.171,985.069,-38846.886
1512178578,-150.900,-30.600,-31.700,-220460.000,-33630.000,966670.000,412000.000,-141000.000,-291000.000,1529.122,1394.011,-80.006,259.651,20.283,126.314,-11554.779,11.192,-39303.719
1512178578,-43.500,-42.100,-47.500,-160830.000,58110.000,878480.000,407000.000,-146000.000,-302000.000,1332.117,1882.033,383.641,256.120,-51.639,170.037,-10359.192,-962.013,-39389.351
1512178578,83.600,-0.800,-46.600,-204770.000,40770.000,899170.000,407000.000,-146000.000,-302000.000,740.427,1589.836,758.898,215.620,-13.810,122.731,-8637.527,-1634.438,-40004.326
1512178578,39.500,-6.400,-55.000,-163020.000,60970.000,981510.000,407000.000,-146000.000,-302000.000,110.375,833.218,981.671,157.407,57.573,98.489,-7813.797,-1933.205,-39861.473
1512178578,-8.700,-62.700,-55.800,-168150.000,26980.000,913150.000,407000.000,-146000.000,-302000.000,-205.469,27.100,1089.425,84.418,122.979,149.281,-7511.887,-1482.750,-40088.829
1512178578,11.200,47.000,-62.100,-234680.000,16170.000,951170.000,397000.000,-135000.000,-296000.000,-126.187,-323.065,1048.846,11.459,159.597,291.289,-7587.341,-1557.854,-40313.225
1512178578,-24.000,-57.700,-60.900,-153500.000,42110.000,953000.000,397000.000,-135000.000,-296000.000,172.236,-41.583,1001.911,-35.534,136.870,437.363,-7813.843,-1933.205,-39936.485
1512178578,116.800,52.200,-56.900,-178890.000,29660.000,906190.000,397000.000,-135000.000,-296000.000,473.573,477.929,1048.594,-46.840,87.263,499.809,-7737.457,-1633.080,-39861.977
1512178578,-48.500,-91.300,-54.700,-175230.000,72020.000,930240.000,397000.000,-135000.000,-296000.000,519.202,800.281,1206.019,-54.381,31.883,466.467,-7738.235,-1783.089,-40087.059
1512178578,70.300,38.000,-55.100,-200810.000,60360.000,961910.000,397000.000,-135000.000,-296000.000,327.696,782.694,1311.925,-80.178,15.874,384.354,-6761.963,-1481.621,-40245.201
1512178578,-62.900,-100.300,-56.600,-153080.000,26860.000,903260.000,404000.000,-149000.000,-299000.000,-8.734,611.336,1276.604,-99.672,0.208,279.407,-6540.268,-2231.285,-40097.466
1512178578,166.000,76.600,-59.400,-201110.000,34850.000,947810.000,404000.000,-149000.000,-299000.000,-390.776,400.417,1225.560,-94.035,-54.089,158.011,-6014.359,-2005.501,-40326.820
1512178578,-4.700,-111.600,-62.500,-191650.000,46510.000,918580.000,404000.000,-149000.000,-299000.000,-712.693,149.994,1211.496,-68.437,-102.973,22.203,-5639.359,-2004.936,-40330.009
1512178578,103.100,35.400,-67.400,-157350.000,58900.000,919430.000,404000.000,-149000.000,-299000.000,-871.498,-90.565,1197.699,-46.752,-149.838,-111.319,-5634.567,-954.933,-40179.512
1512178578,9.500,-85.100,-69.200,-192690.000,84840.000,959590.000,404000.000,-149000.000,-299000.000,-952.233,-261.679,1236.443,-65.502,-203.496,-223.618,-5630.356,-54.924,-39879.097
1512178578,66.400,-22.800,-70.000,-140560.000,71900.000,933590.000,405000.000,-144000.000,-291000.000,-980.860,-354.625,1222.914,-102.077,-205.343,-339.221,-5927.994,469.627,-39876.305
1512178578,20.400,-66.800,-68.600,-158450.000,62990.000,941410.000,405000.000,-144000.000,-291000.000,-823.370,-434.142,1042.624,-143.854,-151.525,-433.089,-6073.578,1444.420,-39799.583
1512178578,60.300,-5.300,-71.100,-211980.000,56400.000,903690.000,405000.000,-144000.000,-291000.000,-411.031,-512.754,599.512,-185.240,-95.574,-469.774,-6521.729,1818.748,-39495.583
1512178578,3.300,-59.100,-80.200,-138430.000,71590.000,930300.000,405000.000,-144000.000,-291000.000,139.235,-661.345,-0.686,-256.894,-97.533,-431.435,-6670.013,2193.520,-39419.136
1512178578,44.500,5.200,-82.400,-202820.000,39490.000,948060.000,418000.000,-153000.000,-292000.000,504.521,-641.401,-624.302,-314.470,-147.595,-314.055,-7419.296,2342.400,-39337.700
1512178578,-57.300,-83.400,-84.600,-177430.000,48280.000,930730.000,418000.000,-153000.000,-292000.000,518.138,-230.239,-1106.664,-293.762,-190.180,-180.084,-8023.987,1291.481,-39258.080
1512178578,23.000,11.500,-84.800,-208560.000,55110.000,928770.000,418000.000,-153000.000,-292000.000,246.471,683.101,-1331.294,-176.070,-211.877,-205.150,-8026.993,616.478,-39183.388
1512178578,-46.300,-60.300,-90.500,-176450.000,62130.000,948180.000,418000.000,-153000.000,-292000.000,683.074,1013.692,-1253.457,-14.563,-66.920,-426.155,-6195.374,-693.268,-39162.125
1512178578,4.500,-1.900,-87.100,-203980.000,80630.000,930540.000,418000.000,-153000.000,-292000.000,1423.103,250.340,-1431.954,-61.051,22.417,-276.276,-5306.061,-3091.942,-38945.878
1512178578,1.500,-29.300,-87.800,-222840.000,86360.000,945500.000,409000.000,-165000.000,-301000.000,563.399,153.247,-1344.005,-75.278,-65.116,-45.582,-4864.570,-5003.768,-38763.092
1512178578,-13.400,-38.200,-91.900,-185550.000,83680.000,933840.000,409000.000,-165000.000,-301000.000,332.861,61.931,-717.621,-46.894,33.382,-23.836,-4491.692,-5490.715,-38616.501
1512178578,26.100,-36.900,-93.300,-199160.000,95150.000,939330.000,409000.000,-165000.000,-301000.000,1058.295,-455.904,-547.938,-123.189,221.620,103.242,-4423.462,-7028.114,-38317.849
1512178578,27.700,-28.100,-96.500,-198360.000,39550.000,913510.000,409000.000,-165000.000,-301000.000,1714.504,-448.298,-648.210,-178.336,239.109,299.606,-4883.377,-9316.299,-37565.079
1512178578,35.200,-22.100,-94.500,-150760.000,70010.000,880680.000,414000.000,-181000.000,-282000.000,1652.959,-408.022,-533.824,-128.172,211.675,256.466,-5156.769,-11829.209,-36739.014
1512178578,23.300,-8.700,-99.700,-160830.000,69090.000,929140.000,414000.000,-181000.000,-282000.000,973.494,-965.843,-408.623,-47.858,209.612,157.421,-5801.849,-13592.682,-36021.912
1512178578,14.900,-36.000,-100.000,-190490.000,44490.000,915040.000,414000.000,-181000.000,-282000.000,713.201,-654.480,-58.976,31.052,193.388,147.512,-6668.800,-14643.982,-35452.575
1512178578,-2.700,-13.800,-99.700,-230040.000,70130.000,901490.000,414000.000,-181000.000,-282000.000,409.191,-418.080,351.606,89.978,197.773,63.951,-7234.771,-15469.834,-34960.678
1512178578,51.900,-24.000,-105.900,-153260.000,92220.000,911500.000,414000.000,-181000.000,-282000.000,-462.347,-656.855,503.919,125.260,198.354,25.750,-8020.447,-15096.008,-34691.307
1512178578,19.800,-12.700,-95.700,-207950.000,63660.000,998900.000,409000.000,-158000.000,-287000.000,-740.454,-240.893,613.809,195.934,102.131,63.567,-8654.221,-14234.467,-34985.489
1512178578,-58.900,-44.700,-95.600,-181950.000,46260.000,914000.000,409000.000,-158000.000,-287000.000,-1303.967,332.012,809.122,225.915,-16.970,4.681,-8533.150,-12284.279,-35398.049
1512178579,20.400,-13.200,-102.000,-127750.000,63480.000,955930.000,409000.000,-158000.000,-287000.000,-2140.711,181.365,989.432,250.793,-13.017,-189.459,-8301.575,-10783.928,-35736.748
1512178579,-33.600,-40.300,-107.500,-168760.000,62130.000,928710.000,409000.000,-158000.000,-287000.000,-2348.314,39.156,901.714,195.480,70.280,-288.335,-8217.911,-8833.809,-35961.494
1512178579,-53.400,-83.500,-113.900,-111210.000,71660.000,852910.000,409000.000,-158000.000,-287000.000,-2072.239,280.533,592.065,142.740,164.825,-356.722,-8287.094,-7483.910,-36485.237
1512178579,96.500,56.300,-107.300,-137940.000,105530.000,880070.000,407000.000,-171000.000,-282000.000,-1432.843,775.827,176.623,140.110,172.688,-351.142,-7829.285,-5758.217,-36413.261
1512178579,-94.500,-54.500,-106.800,-148440.000,26120.000,1006650.000,407000.000,-171000.000,-282000.000,-797.753,1281.166,89.508,217.849,72.190,-327.756,-6775.681,-4931.633,-36646.797
1512178579,-5.700,-74.400,-118.200,-109130.000,106630.000,863220.000,407000.000,-171000.000,-282000.000,-204.964,1299.855,280.457,296.567,16.015,-307.044,-5874.069,-4555.290,-36804.283
1512178579,108.800,21.700,-122.600,-134770.000,76350.000,895390.000,407000.000,-171000.000,-282000.000,244.065,880.170,570.142,281.949,-1.349,-226.762,-4972.229,-4178.932,-36511.757
1512178579,54.700,-56.300,-122.800,-185120.000,136900.000,912840.000,398000.000,-169000.000,-274000.000,495.478,235.144,678.144,205.193,39.263,-64.825,-4674.408,-4628.487,-36814.522
1512178579,40.900,-21.300,-123.400,-229740.000,158750.000,960330.000,398000.000,-169000.000,-274000.000,585.998,-322.403,721.223,111.792,41.031,147.755,-4827.072,-5228.722,-36738.518
1512178579,-40.900,-67.600,-131.700,-185420.000,98690.000,960080.000,398000.000,-169000.000,-274000.000,568.893,-481.840,845.148,37.487,7.991,359.836,-4902.328,-5303.825,-36587.914
1512178579,-102.500,-68.000,-132.400,-163210.000,129700.000,937620.000,398000.000,-169000.000,-274000.000,470.751,-213.091,991.778,-13.102,-39.465,504.075,-5280.075,-5904.396,-36659.996
1512178579,-22.200,-8.700,-137.700,-167110.000,149960.000,947200.000,398000.000,-169000.000,-274000.000,344.809,105.805,1145.642,-62.972,-46.411,530.793,-5431.351,-6204.628,-36508.858
1512178579,0.800,-69.200,-134.500,-170900.000,101990.000,966430.000,386000.000,-160000.000,-279000.000,-29.304,207.783,1146.976,-137.927,-24.837,423.720,-5206.985,-6354.286,-36435.844
1512178579,71.100,65.200,-140.300,-143860.000,95640.000,1022520.000,386000.000,-160000.000,-279000.000,-190.527,223.785,1033.826,-146.277,-42.267,339.411,-4980.896,-6128.944,-36287.651
1512178579,-49.800,-68.800,-146.100,-138850.000,86490.000,984920.000,386000.000,-160000.000,-279000.000,-202.449,325.466,921.004,-147.183,-80.988,247.922,-4379.501,-5828.041,-36217.613
1512178579,50.700,58.900,-148.200,-149480.000,141660.000,936280.000,386000.000,-160000.000,-279000.000,-194.024,422.664,932.125,-98.722,-158.962,141.703,-3999.710,-4777.473,-36070.320
1512178579,-62.500,-13.700,-149.800,-172060.000,116580.000,994450.000,386000.000,-160000.000,-279000.000,182.977,217.607,1203.387,-101.959,-21.892,487.230,-5432.022,-6354.622,-36508.934
1512178579,-68.700,-17.400,-158.100,-183290.000,120360.000,921510.000,397000.000,-156000.000,-255000.000,-259.478,421.313,1021.784,-62.660,-224.093,26.669,-3777.863,-5452.141,-36297.539
1512178579,-26.900,-10.000,-152.900,-160710.000,114070.000,895200.000,397000.000,-156000.000,-255000.000,-444.071,329.029,1092.348,-46.775,-247.273,-96.352,-3331.299,-6201.469,-36451.714
1512178579,41.700,20.500,-162.600,-140500.000,106990.000,918150.000,397000.000,-156000.000,-255000.000,-698.361,99.063,1051.621,-36.652,-217.426,-206.263,-2875.793,-5000.786,-36229.988
1512178579,-73.500,-92.300,-164.100,-90330.000,117310.000,835510.000,397000.000,-156000.000,-255000.000,-919.242,-68.738,926.304,-41.641,-182.898,-294.225,-2422.684,-4325.111,-36083.504
1512178579,74.400,80.600,-158.300,-98690.000,86980.000,895750.000,409000.000,-158000.000,-264000.000,-838.823,-205.834,632.760,-57.141,-117.094,-403.171,-2719.635,-3650.551,-36080.635
1512178579,-22.000,-29.400,-168.400,-188290.000,90880.000,899600.000,409000.000,-158000.000,-264000.000,-316.756,-403.913,188.691,-107.181,-91.158,-436.731,-2490.707,-2750.221,-36307.137
1512178579,12.800,54.100,-174.700,-75680.000,56760.000,961670.000,409000.000,-158000.000,-264000.000,140.742,-267.720,-266.876,-196.268,-170.601,-332.208,-2565.247,-2675.331,-36081.459
1512178579,14.000,10.400,-178.300,-150450.000,88010.000,977050.000,409000.000,-158000.000,-264000.000,98.770,235.060,-671.907,-198.580,-245.516,-261.612,-2490.891,-2825.218,-36007.179
1512178579,-40.900,-19.400,-178.300,-141600.000,139950.000,949830.000,409000.000,-158000.000,-264000.000,-113.529,731.898,-896.058,-82.568,-221.333,-346.199,-2416.901,-3050.102,-36007.912
1512178579,28.100,-5.300,-182.400,-123350.000,133670.000,911070.000,412000.000,-162000.000,-274000.000,341.401,544.107,-920.501,-1.848,-40.648,-471.481,-1477.409,-2598.694,-36090.667
1512178579,-27.700,19.000,-183.200,-115780.000,106260.000,995180.000,412000.000,-162000.000,-274000.000,1066.192,402.044,-1179.679,-164.267,37.953,-261.063,-206.047,-3421.784,-35951.897
1512178579,-58.300,-46.700,-182.600,-149840.000,159910.000,946290.000,412000.000,-162000.000,-274000.000,1189.676,766.093,-1247.514,-191.432,47.086,-85.022,1398.788,-5106.881,-36116.372
1512178579,11.200,-2.100,-179.200,-206480.000,133850.000,964780.000,412000.000,-162000.000,-274000.000,1422.689,575.484,-1100.351,-158.759,180.122,-67.388,2404.992,-6530.373,-35900.635
1512178579,-53.800,-22.100,-178.200,-153990.000,111940.000,994380.000,412000.000,-162000.000,-274000.000,1635.168,-446.918,-1138.143,-184.927,312.196,101.698,2809.059,-8442.269,-35567.535
1512178579,-20.200,5.500,-182.400,-127930.000,106690.000,1013240.000,418000.000,-171000.000,-279000.000,1538.784,-590.837,-1085.668,-227.820,297.473,364.241,2277.680,-9868.065,-35488.732
1512178579,26.500,-26.500,-193.900,-137570.000,114140.000,1010930.000,418000.000,-171000.000,-279000.000,945.841,-529.007,-939.998,-212.505,293.385,403.445,1818.505,-11893.754,-35598.335
1512178579,68.700,-64.800,-196.900,-89360.000,129700.000,937870.000,418000.000,-171000.000,-279000.000,312.212,-804.653,-865.387,-127.996,299.724,312.227,1556.243,-11856.644,-35446.090
1512178579,136.900,25.200,-195.700,-162050.000,149780.000,902530.000,418000.000,-171000.000,-279000.000,94.376,-768.625,-615.228,-17.335,210.790,247.275,652.778,-12570.495,-35963.760
1512178579,27.600,-92.400,-205.200,-127500.000,194210.000,907040.000,405000.000,-176000.000,-270000.000,-362.920,-672.953,-192.965,61.698,95.434,201.029,19.272,-11671.447,-36070.427
1512178579,97.100,47.500,-205.900,-221250.000,210690.000,909000.000,405000.000,-176000.000,-270000.000,-1383.472,-275.188,170.486,159.364,15.811,55.059,-686.500,-10097.511,-36776.146
1512178579,-62.500,-48.300,-217.700,-160340.000,202820.000,890380.000,405000.000,-176000.000,-270000.000,-1675.747,-112.213,447.725,356.939,17.333,-139.841,-638.092,-7584.931,-37562.798
1512178580,87.400,77.000,-215.600,-137570.000,219360.000,918270.000,405000.000,-176000.000,-270000.000,-1799.033,33.742,820.101,470.180,-51.238,-119.226,-702.957,-5297.539,-37898.613
1512178580,1.100,-4.800,-226.200,-113340.000,166140.000,954220.000,405000.000,-176000.000,-270000.000,-2476.480,257.379,1185.253,480.837,-62.916,-171.234,-695.541,-3647.514,-37897.850
1512178580,-23.300,-12.100,-225.300,-169130.000,152100.000,899350.000,395000.000,-169000.000,-270000.000,-2971.771,106.623,1409.950,465.994,54.029,-362.339,-459.854,-1247.169,-38123.650
1512178580,27.000,14.100,-228.000,-163450.000,232420.000,965390.000,395000.000,-169000.000,-270000.000,-2942.705,-226.416,1312.202,379.347,195.138,-515.504,-373.642,1227.959,-37973.137
1512178580,21.600,-29.000,-237.300,-147830.000,231020.000,886600.000,395000.000,-169000.000,-270000.000,-2172.177,-327.850,803.842,281.830,325.766,-534.875,-439.819,3177.864,-37896.599
1512178580,57.100,-19.000,-244.300,-157350.000,213930.000,903320.000,395000.000,-169000.000,-270000.000,-843.473,67.244,281.844,250.436,328.390,-418.268,-961.105,4002.083,-37891.762
1512178580,33.200,55.000,-260.300,-128660.000,194460.000,1004640.000,412000.000,-186000.000,-287000.000,316.156,810.753,73.092,266.908,175.628,-235.582,-286.896,3853.096,-38122.566
1512178580,-71.500,-60.500,-265.500,-122920.000,198730.000,934880.000,412000.000,-186000.000,-287000.000,773.761,1198.011,140.770,295.436,38.522,-95.606,315.582,4378.990,-37902.428
1512178580,-9.100,-43.800,-257.900,-204410.000,222050.000,927920.000,412000.000,-186000.000,-287000.000,668.518,1032.887,373.203,266.121,-45.323,-1.513,1215.210,4305.351,-37985.100
1512178580,24.200,12.100,-269.600,-126950.000,251710.000,944030.000,412000.000,-186000.000,-287000.000,380.095,529.988,578.355,196.323,-37.253,119.287,2111.420,3481.682,-38143.135
1512178580,30.200,-19.700,-270.300,-232600.000,263180.000,906190.000,412000.000,-186000.000,-287000.000,162.216,48.710,708.914,109.409,-5.468,256.731,2034.958,3181.572,-38367.638
1512178580,8.100,0.300,-278.800,-197810.000,237060.000,1017700.000,407000.000,-178000.000,-289000.000,36.382,-119.442,831.230,16.786,2.405,393.831,2262.665,3781.914,-38369.270
1512178580,26.800,49.000,-290.700,-203190.000,222230.000,983520.000,407000.000,-178000.000,-289000.000,-20.120,90.763,906.835,-60.851,4.223,486.121,2115.250,4306.694,-37917.763
1512178580,-9.500,-17.000,-297.100,-150330.000,235960.000,992490.000,407000.000,-178000.000,-289000.000,-60.312,479.402,971.570,-113.446,-10.274,502.449,2341.858,4682.030,-38069.496
1512178580,71.100,55.300,-296.900,-207580.000,226620.000,1000000.000,407000.000,-178000.000,-289000.000,-196.197,745.088,1014.233,-139.348,-23.366,427.373,3015.732,4458.046,-38300.346
1512178580,-48.600,-20.200,-302.400,-163270.000,230770.000,983090.000,407000.000,-195000.000,-282000.000,-452.167,714.777,1020.014,-153.843,-54.090,301.787,3767.807,4909.172,-38231.499
1512178580,64.000,80.200,-311.900,-138240.000,263980.000,987120.000,407000.000,-195000.000,-282000.000,-826.518,489.885,1019.138,-159.047,-77.686,238.223,4293.518,5059.959,-38160.896
1512178580,-23.000,0.900,-316.000,-87340.000,147580.000,971560.000,407000.000,-195000.000,-282000.000,-1205.711,50.229,1043.031,-118.908,-144.749,-7.773,4899.368,6335.869,-37940.407
1512178580,-33.800,53.800,-304.800,-186340.000,203250.000,1025940.000,407000.000,-195000.000,-282000.000,-1463.495,-563.610,1194.938,-75.921,-191.507,-171.119,4602.402,7010.429,-37937.553
1512178580,-48.900,-8.000,-317.300,-116520.000,252080.000,876220.000,407000.000,-195000.000,-282000.000,-1430.814,-1142.893,1383.156,-41.992,-173.068,-269.289,4760.284,8735.664,-37713.020
1512178580,34.500,70.600,-306.500,-183590.000,183650.000,949460.000,395000.000,-211000.000,-280000.000,-1049.026,-1303.707,1430.767,-86.652,-132.051,-254.885,4164.032,9559.776,-37632.545
1512178580,-51.400,43.700,-313.500,-177550.000,221620.000,937070.000,395000.000,-211000.000,-280000.000,-436.776,-973.505,1296.867,-155.801,-94.067,-206.546,3643.723,10608.986,-37702.599
1512178580,-3.300,23.300,-311.100,-74340.000,234130.000,925420.000,395000.000,-211000.000,-280000.000,260.914,-402.443,972.089,-172.873,-69.952,-160.640,3043.716,10608.086,-37697.487
1512178580,-64.400,48.300,-306.100,-150940.000,184880.000,963990.000,395000.000,-211000.000,-280000.000,749.085,78.506,677.007,-162.035,-124.031,-151.026,2892.029,10307.869,-38371.361
1512178580,-2.800,9.300,-309.200,-138980.000,242800.000,903690.000,395000.000,-211000.000,-280000.000,935.169,134.907,384.598,-159.381,-177.693,-173.141,3042.709,10458.092,-38372.566
1512178580,48.600,48.900,-313.500,-199770.000,241460.000,997440.000,391000.000,-211000.000,-287000.000,773.275,-237.325,-30.543,-179.235,-207.405,-165.259,2815.369,10007.744,-38970.863
1512178580,-13.300,1.300,-310.300,-119200.000,223690.000,907590.000,391000.000,-211000.000,-287000.000,-408.249,356.632,-691.624,-99.154,-231.702,-111.014,2402.184,9894.623,-39342.399
1512178580,132.400,116.400,-318.200,-154720.000,176450.000,883730.000,391000.000,-211000.000,-287000.000,-213.843,1190.411,-835.686,165.870,81.293,-613.228,2556.816,10944.862,-39530.693
1512178580,45.100,44.700,-311.900,-185060.000,226260.000,954960.000,391000.000,-211000.000,-287000.000,1954.335,637.457,-1240.083,-0.461,171.808,-350.347,2589.927,10044.914,-40206.421
1512178580,202.100,117.000,-318.200,-178530.000,238220.000,956240.000,398000.000,-211000.000,-287000.000,986.539,477.582,-1355.402,-66.808,-41.355,-36.697,2200.805,7044.319,-41442.116
1512178580,63.400,-19.800,-319.000,-116150.000,235900.000,914180.000,398000.000,-211000.000,-287000.000,488.243,80.611,-862.957,-87.264,47.192,7.003,1816.558,5056.252,-42039.849
1512178580,24.100,128.200,-326.800,-142820.000,253780.000,982360.000,398000.000,-211000.000,-287000.000,1008.417,-344.025,-718.845,-232.575,203.609,198.000,532.013,2991.822,-42554.963
1512178580,6.800,39.700,-322.500,-179630.000,281250.000,963500.000,398000.000,-211000.000,-287000.000,1401.083,-36.926,-951.950,-301.839,228.425,407.705,-457.817,-309.662,-42510.696
1512178580,-15.400,-55.800,-320.900,-158810.000,285520.000,933040.000,398000.000,-211000.000,-287000.000,916.961,63.787,-938.892,-228.351,138.927,386.844,59.884,-1958.885,-42253.418
1512178580,125.300,78.700,-322.800,-205320.000,264220.000,997010.000,384000.000,-236000.000,-280000.000,-404.504,-764.862,-747.175,-89.670,91.110,177.100,-693.360,-2710.022,-41984.894
1512178580,-35.300,-37.600,-322.100,-111270.000,221800.000,965210.000,384000.000,-236000.000,-280000.000,-235.651,-630.054,-184.045,67.175,98.919,12.116,-2003.350,-2224.480,-41336.014
1512178580,80.700,57.800,-318.800,-141110.000,199950.000,934020.000,384000.000,-236000.000,-280000.000,850.863,91.979,420.006,108.465,143.649,-55.020,-1893.471,-2824.318,-41187.248
1512178580,-66.400,-16.900,-324.100,-142270.000,153140.000,1033940.000,384000.000,-236000.000,-280000.000,297.437,-131.558,676.659,129.565,115.508,-23.735,-1898.872,-4061.828,-40850.326
1512178581,-1.100,-43.400,-314.500,-120790.000,245360.000,935910.000,384000.000,-236000.000,-280000.000,-499.212,-459.965,841.476,169.204,125.093,-25.464,-2047.867,-3874.550,-40511.467
1512178581,68.700,18.000,-316.300,-176820.000,273070.000,904300.000,391000.000,-229000.000,-270000.000,-703.638,-726.335,877.029,181.649,102.221,-32.873,-2419.037,-3050.102,-40282.890
1512178581,52.300,-37.600,-315.300,-197200.000,288940.000,916200.000,391000.000,-229000.000,-270000.000,-1041.414,-817.748,927.252,173.201,29.136,33.906,-3089.615,-2076.103,-40201.714
1512178581,50.100,35.700,-319.000,-130740.000,256040.000,927490.000,391000.000,-229000.000,-270000.000,-1704.892,-505.044,1095.694,192.994,-54.963,63.089,-3459.900,-1026.665,-40198.036
1512178581,-24.800,-10.400,-320.500,-145260.000,181760.000,977910.000,391000.000,-229000.000,-270000.000,-2291.832,-39.509,1284.966,252.519,-11.889,-54.776,-3527.771,548.225,-40121.681
1512178581,34.200,-4.400,-318.200,-113100.000,230040.000,864810.000,393000.000,-227000.000,-279000.000,-2371.788,285.070,1300.927,268.799,123.649,-254.753,-3519.104,2423.241,-39670.799
1512178581,75.400,35.600,-318.800,-134580.000,211850.000,857240.000,393000.000,-227000.000,-279000.000,-1696.654,426.572,1029.762,281.983,278.007,-431.530,-2834.503,4524.269,-39375.572
1512178581,38.100,-51.400,-314.400,-118040.000,251220.000,897220.000,393000.000,-227000.000,-279000.000,-539.008,306.513,510.950,274.051,336.845,-456.920,-2156.158,5275.291,-39455.971
1512178581,45.800,67.500,-313.100,-101810.000,224490.000,929870.000,393000.000,-227000.000,-279000.000,317.324,342.806,107.722,263.889,223.817,-274.234,-1929.779,5575.630,-39382.744
1512178581,-5.600,25.800,-317.000,-116640.000,177060.000,1025090.000,393000.000,-227000.000,-279000.000,515.543,476.740,53.492,308.200,67.966,-66.057,-1930.069,5500.633,-39307.777
1512178581,-1.100,-44.100,-302.900,-120480.000,202760.000,929690.000,377000.000,-260000.000,-280000.000,141.807,707.232,425.197,332.239,-79.682,75.417,-1407.440,4976.418,-39312.477
1512178581,95.200,4.400,-301.300,-145260.000,202270.000,835820.000,377000.000,-260000.000,-280000.000,-363.341,691.579,932.734,314.141,-103.398,87.176,-507.477,4977.760,-39395.134
1512178581,114.400,-12.700,-295.200,-137150.000,239560.000,916020.000,377000.000,-260000.000,-280000.000,-486.019,220.777,1237.408,231.741,4.976,73.115,-429.764,5577.873,-39395.485
1512178581,40.600,10.700,-291.200,-111270.000,213200.000,1017460.000,377000.000,-260000.000,-280000.000,-261.886,-231.977,1328.628,107.211,74.657,147.502,322.327,6029.015,-39251.656
1512178581,-21.600,-33.400,-279.600,-139650.000,234130.000,991150.000,377000.000,-260000.000,-280000.000,85.588,-400.084,1259.520,3.611,102.860,297.261,98.450,6253.670,-39024.651
1512178581,-67.800,-92.100,-273.500,-114500.000,203860.000,888310.000,377000.000,-250000.000,-277000.000,366.619,-156.992,1166.358,-58.742,77.364,433.634,247.818,6103.889,-38950.981
1512178581,110.000,4.300,-264.900,-143010.000,253480.000,969480.000,377000.000,-250000.000,-277000.000,507.674,295.199,1103.882,-96.631,29.057,500.213,469.742,5429.222,-39028.221
1512178581,-10.500,-54.500,-256.600,-112790.000,235960.000,946900.000,377000.000,-250000.000,-277000.000,489.658,678.628,1115.613,-103.878,-17.343,484.251,994.003,5280.022,-39182.732
