time_unix,rotate_x,rotate_y,rotate_z,acc_x,acc_y,acc_z,mag_x,mag_y,mag_z
1512180271,0.0013,-0.0009,0.0004,-20.45,-12.76,971.31,-15,10,0
1512180271,-0.0020,0.0024,-0.0008,-17.40,-15.44,974.91,-15,10,0
1512180271,0.0033,0.0025,0.0007,-9.34,-14.77,990.66,-15,10,0
1512180271,-0.0092,0.0039,0.0013,-22.71,-30.15,988.89,-1,3,16
1512180271,-0.0048,0.0035,-0.0011,-14.04,-11.72,984.07,-1,3,16
1512180271,0.0065,0.0003,0.0005,-12.08,-13.00,985.90,-1,3,16
1512180271,-0.0049,0.0028,0.0009,-20.94,-21.24,979.86,-1,3,16
1512180271,-0.0013,-0.0007,0.0013,-13.12,-16.78,993.71,-1,3,16
1512180271,-0.0013,0.0005,0.0005,-16.85,-11.29,967.47,-5,-7,0
1512180271,-0.0132,0.0044,0.0008,-16.17,-17.46,976.38,-5,-7,0
1512180271,0.0059,-0.0003,0.0013,-11.41,-11.66,997.44,-5,-7,0
1512180271,0.0047,0.0001,0.0005,-22.22,-20.57,975.46,-5,-7,0
1512180271,-0.0063,0.0032,0.0000,-16.11,-15.93,984.68,-3,5,5
1512180271,-0.0032,0.0009,0.0001,-13.98,-11.35,980.59,-3,5,5
1512180271,-0.0033,0.0011,-0.0011,-21.55,-22.52,992.19,-3,5,5
1512180271,0.0021,0.0019,-0.0005,-12.76,-14.53,997.99,-3,5,5
1512180271,0.0060,0.0004,0.0007,-17.27,-12.88,963.62,-3,5,5
1512180271,-0.0149,0.0025,0.0003,-22.52,-28.38,979.00,7,1,-5
1512180271,-0.0023,0.0005,0.0009,-15.01,-18.43,988.77,7,1,-5
1512180271,0.0005,-0.0021,0.0005,-20.81,-14.47,976.26,7,1,-5
1512180271,-0.0055,0.0035,0.0016,-21.55,-19.96,984.01,7,1,-5
1512180271,0.0075,-0.0015,0.0004,-16.48,-15.81,1000.43,1,-3,-3
1512180271,-0.0003,0.0008,0.0008,-23.62,-24.05,978.09,1,-3,-3
1512180271,-0.0092,0.0019,-0.0003,-15.26,-16.91,972.96,1,-3,-3
1512180271,0.0076,0.0009,0.0004,-15.20,-10.31,999.76,1,-3,-3
1512180271,0.0000,0.0019,-0.0007,-20.94,-25.45,990.17,1,-3,-3
1512180271,0.0053,0.0020,0.0004,-13.49,-13.18,989.14,-7,-1,1
1512180271,0.0027,0.0023,-0.0001,-7.93,-14.10,976.07,-7,-1,1
1512180272,-0.0150,0.0055,0.0003,-22.03,-26.79,979.25,-7,-1,1
1512180272,0.0060,-0.0020,-0.0007,-21.55,-14.34,990.11,-7,-1,1
1512180272,0.0052,0.0020,-0.0001,-23.93,-16.72,971.98,-7,-1,1
1512180272,-0.0111,0.0021,0.0012,-19.04,-22.03,976.20,1,0,0
1512180272,-0.0024,0.0015,0.0013,-17.52,-20.81,997.25,1,0,0
1512180272,-0.0072,0.0037,-0.0003,-27.04,-22.83,990.17,1,0,0
1512180272,-0.0089,0.0029,-0.0003,-19.17,-16.85,984.31,1,0,0
1512180272,-0.0035,0.0049,-0.0001,-27.16,-18.68,1007.08,0,15,-1
1512180272,-0.0216,0.0096,-0.0031,-61.22,-36.87,984.80,0,15,-1
1512180272,0.0128,0.0051,-0.0059,-62.62,-41.26,996.70,0,15,-1
1512180272,0.0108,0.0073,-0.0104,-69.52,-42.72,979.37,0,15,-1
1512180272,-0.0217,0.0071,-0.0119,-69.46,-64.58,979.06,0,15,-1
1512180272,0.0031,0.0013,-0.0148,-67.69,-49.80,1007.93,0,8,-11
1512180272,0.0060,0.0009,-0.0138,-79.47,-47.85,967.71,0,8,-11
1512180272,-0.0145,0.0045,-0.0164,-75.62,-56.27,983.89,0,8,-11
1512180272,0.0072,0.0020,-0.0156,-65.55,-47.97,1011.90,0,8,-11
1512180272,0.0081,0.0001,-0.0189,-82.52,-58.78,981.51,1,0,-3
1512180272,-0.0085,0.0040,-0.0225,-66.83,-50.23,1002.50,1,0,-3
1512180272,0.0095,-0.0004,-0.0265,-54.08,-38.51,1013.61,1,0,-3
1512180272,-0.0001,0.0028,-0.0298,-81.12,-57.80,988.22,1,0,-3
1512180272,0.0021,0.0029,-0.0324,-67.20,-34.24,1004.21,1,0,-3
1512180272,0.0137,0.0009,-0.0352,-66.83,-29.24,972.47,-17,8,-1
1512180272,-0.0103,0.0039,-0.0369,-83.25,-56.09,984.80,-17,8,-1
1512180272,-0.0059,-0.0001,-0.0380,-69.34,-33.33,986.02,-17,8,-1
1512180272,0.0001,-0.0003,-0.0383,-72.51,-36.32,967.90,-17,8,-1
1512180272,-0.0189,0.0035,-0.0410,-67.20,-49.80,982.85,-17,8,-1
1512180272,0.0103,-0.0047,-0.0435,-51.15,-38.15,997.38,-19,-3,0
1512180272,-0.0033,-0.0020,-0.0439,-70.07,-55.11,970.46,-19,-3,0
1512180272,-0.0168,0.0031,-0.0486,-60.49,-43.21,988.65,-19,-3,0
1512180272,0.0136,0.0001,-0.0497,-54.14,-33.75,995.79,-19,-3,0
1512180272,0.0036,-0.0007,-0.0527,-74.40,-60.42,985.23,-14,-5,18
1512180272,-0.0065,0.0021,-0.0515,-63.17,-42.72,999.45,-14,-5,18
1512180272,0.0089,0.0025,-0.0562,-50.11,-33.39,1011.66,-14,-5,18
1512180272,-0.0141,0.0051,-0.0542,-78.06,-60.12,988.65,-14,-5,18
1512180272,-0.0013,0.0003,-0.0565,-62.01,-31.98,1005.07,-14,-5,18
1512180272,0.0093,0.0019,-0.0594,-60.12,-28.69,992.37,-10,-1,5
1512180272,-0.0146,0.0027,-0.0601,-80.20,-57.98,982.79,-10,-1,5
1512180272,-0.0060,-0.0013,-0.0603,-56.21,-31.25,986.15,-10,-1,5
1512180273,0.0024,-0.0027,-0.0617,-63.54,-33.81,963.87,-10,-1,5
1512180273,-0.0216,0.0013,-0.0640,-75.87,-53.34,981.38,-10,-1,5
1512180273,0.0096,-0.0043,-0.0674,-50.42,-34.91,998.54,7,5,-1
1512180273,-0.0016,-0.0003,-0.0666,-64.21,-46.75,961.79,7,5,-1
1512180273,-0.0240,0.0019,-0.0684,-61.58,-48.71,980.47,7,5,-1
1512180273,0.0045,-0.0031,-0.0688,-49.13,-40.28,999.51,7,5,-1
1512180273,0.0044,-0.0020,-0.0660,-65.61,-51.33,967.47,-10,12,-1
1512180273,-0.0245,0.0059,-0.0686,-63.29,-59.02,981.51,-10,12,-1
1512180273,0.0085,-0.0008,-0.0702,-45.17,-44.92,996.22,-10,12,-1
1512180273,-0.0019,-0.0012,-0.0684,-70.07,-54.87,963.32,-10,12,-1
1512180273,-0.0213,0.0011,-0.0687,-62.99,-46.88,980.53,-10,12,-1
1512180273,0.0293,-0.0049,-0.0700,-55.18,-32.47,1003.11,-15,-10,-6
1512180273,0.0113,0.0004,-0.0678,-60.06,-47.61,963.13,-15,-10,-6
1512180273,-0.0422,0.0084,-0.0687,-53.22,-45.23,980.10,-15,-10,-6
1512180273,0.0365,-0.0040,-0.0731,-48.46,-31.86,1020.63,-15,-10,-6
1512180273,-0.0065,-0.0024,-0.0714,-65.92,-51.09,961.30,-15,-10,-6
1512180273,-0.0240,0.0017,-0.0716,-62.07,-31.86,971.86,-12,-7,16
1512180273,0.0192,-0.0021,-0.0735,-49.93,-18.86,1010.93,-12,-7,16
1512180273,-0.0133,0.0028,-0.0723,-60.61,-46.81,954.71,-12,-7,16
1512180273,-0.0394,0.0111,-0.0727,-58.84,-44.43,957.34,-12,-7,16
1512180273,0.0324,0.0035,-0.0738,-41.32,-39.98,1017.64,-19,-3,3
1512180273,0.0017,0.0031,-0.0718,-63.23,-55.79,952.15,-19,-3,3
1512180273,-0.0326,0.0111,-0.0727,-57.13,-46.88,967.65,-19,-3,3
1512180273,0.0158,0.0036,-0.0708,-35.95,-25.33,1020.39,-19,-3,3
1512180273,0.0067,0.0073,-0.0675,-59.88,-34.48,975.16,-19,-3,3
1512180273,-0.0262,0.0091,-0.0654,-61.58,-39.31,987.18,-15,-7,3
1512180273,0.0140,-0.0051,-0.0633,-45.96,-18.80,1020.81,-15,-7,3
1512180273,0.0017,-0.0079,-0.0618,-63.11,-29.54,966.98,-15,-7,3
1512180273,-0.0320,-0.0009,-0.0631,-72.08,-51.64,966.25,-15,-7,3
1512180273,0.0290,-0.0084,-0.0675,-49.87,-24.29,1013.92,-24,1,-8
1512180273,0.0134,-0.0069,-0.0680,-70.56,-35.34,961.06,-24,1,-8
1512180273,-0.0377,-0.0012,-0.0722,-71.72,-61.22,957.70,-24,1,-8
1512180273,0.0162,-0.0055,-0.0760,-63.60,-36.38,1004.21,-24,1,-8
1512180273,0.0321,-0.0023,-0.0782,-59.94,-54.81,972.35,-24,1,-8
1512180273,-0.0284,0.0029,-0.0759,-80.87,-68.85,951.66,-26,-3,-6
1512180273,-0.0089,0.0027,-0.0762,-69.70,-33.75,1002.81,-26,-3,-6
1512180273,0.0318,-0.0060,-0.0732,-70.98,-33.69,1000.67,-26,-3,-6
1512180274,-0.0461,0.0039,-0.0704,-87.10,-57.74,934.94,-26,-3,-6
1512180274,-0.0341,0.0023,-0.0708,-68.54,-32.04,1002.62,-26,-3,-6
1512180274,0.0546,-0.0087,-0.0744,-63.84,-36.62,1033.51,-22,-10,-3
1512180274,-0.0168,0.0027,-0.0756,-63.05,-55.30,974.55,-22,-10,-3
1512180274,-0.0397,0.0059,-0.0779,-63.48,-54.81,988.10,-22,-10,-3
1512180274,0.0445,-0.0041,-0.0822,-61.83,-36.62,1029.24,-22,-10,-3
1512180274,-0.0217,0.0023,-0.0799,-67.75,-51.27,952.33,-14,-8,22
1512180274,-0.0421,0.0027,-0.0800,-81.67,-50.17,988.83,-14,-8,22
1512180274,0.0527,-0.0095,-0.0815,-75.62,-44.19,1012.76,-14,-8,22
1512180274,-0.0035,-0.0008,-0.0762,-73.24,-50.84,963.20,-14,-8,22
1512180274,-0.0475,0.0001,-0.0742,-81.12,-58.84,978.15,-14,-8,22
1512180274,0.0433,-0.0154,-0.0724,-66.77,-23.07,1016.30,-15,10,6
1512180274,0.0272,-0.0196,-0.0714,-54.63,-35.28,1002.81,-15,10,6
1512180274,-0.0792,-0.0133,-0.0654,-87.52,-45.10,959.05,-15,10,6
1512180274,0.0008,-0.0202,-0.0690,-74.71,-21.42,1015.14,-15,10,6
1512180274,-0.0113,-0.0204,-0.0686,-72.75,-43.09,966.19,-15,10,6
1512180274,-0.0888,-0.0099,-0.0639,-87.77,-54.20,948.67,-28,1,18
1512180274,-0.0099,-0.0101,-0.0703,-56.76,-32.84,1006.96,-28,1,18
1512180274,0.0233,-0.0153,-0.0738,-25.27,-70.19,1009.28,-28,1,18
1512180274,-0.0687,-0.0107,-0.0732,-48.95,-88.44,965.70,-28,1,18
1512180274,-0.0658,-0.0092,-0.0783,-40.10,-83.74,1016.85,-47,-7,23
1512180274,0.0655,-0.0285,-0.0788,-45.04,-59.20,1040.95,-47,-7,23
1512180274,-0.0546,-0.0153,-0.0663,-69.58,-67.93,940.86,-47,-7,23
1512180274,-0.0771,-0.0049,-0.0618,-62.26,-54.44,981.63,-47,-7,23
1512180274,0.0590,-0.0148,-0.0658,-64.33,-40.53,1036.44,-47,-7,23
1512180274,-0.0244,-0.0079,-0.0558,-69.27,-35.10,929.75,-26,-7,23
1512180274,-0.0099,-0.0067,-0.0606,-58.23,-36.25,980.77,-26,-7,23
1512180274,0.0474,-0.0168,-0.0646,-37.54,-36.50,1023.38,-26,-7,23
1512180274,-0.0300,-0.0031,-0.0642,-44.74,-60.91,939.09,-26,-7,23
1512180274,-0.0443,-0.0055,-0.0647,-67.20,-51.88,994.38,-28,-8,18
1512180274,0.0541,-0.0166,-0.0662,-59.75,-31.19,1015.75,-28,-8,18
1512180274,-0.0200,-0.0079,-0.0630,-65.61,-54.20,922.00,-28,-8,18
1512180274,-0.0727,-0.0056,-0.0605,-62.38,-78.67,990.05,-28,-8,18
1512180274,0.0356,-0.0229,-0.0574,-48.83,-36.01,994.20,-28,-8,18
1512180274,-0.0141,-0.0204,-0.0518,-54.69,-74.04,957.82,-35,8,15
1512180274,-0.0679,-0.0205,-0.0469,-67.99,-74.46,945.80,-35,8,15
1512180274,0.0237,-0.0282,-0.0466,-58.11,-36.19,1009.64,-35,8,15
1512180274,0.0124,-0.0218,-0.0461,-44.56,-64.76,1003.05,-35,8,15
1512180275,-0.0811,-0.0095,-0.0431,-48.77,-70.98,977.54,-35,8,15
1512180275,0.0538,-0.0221,-0.0485,-43.21,-29.24,1019.23,-36,-3,30
1512180275,0.0461,-0.0116,-0.0495,-21.91,-76.42,1033.08,-36,-3,30
1512180275,-0.0372,0.0012,-0.0410,-47.36,-76.54,950.32,-36,-3,30
1512180275,-0.0025,-0.0008,-0.0417,-40.65,-55.79,986.08,-36,-3,30
1512180275,0.0413,0.0004,-0.0357,10.25,-73.30,1014.89,-36,-3,30
1512180275,-0.0248,0.0085,-0.0221,-9.34,-43.15,971.74,-42,-5,18
1512180275,-0.0193,0.0228,-0.0217,-20.87,-47.91,1031.49,-42,-5,18
1512180275,0.0157,0.0246,-0.0222,-13.06,-47.79,1009.28,-42,-5,18
1512180275,-0.0422,0.0285,-0.0185,-26.25,-77.45,960.82,-42,-5,18
1512180275,-0.0333,0.0330,-0.0182,-39.06,-57.86,976.62,-42,-5,22
1512180275,0.0113,0.0170,-0.0169,-35.16,-47.42,988.77,-42,-5,22
1512180275,-0.0280,0.0146,-0.0160,-68.91,-46.02,909.00,-42,-5,22
1512180275,-0.0455,0.0189,-0.0164,-38.39,-37.84,966.55,-42,-5,22
1512180275,0.0415,0.0093,-0.0176,-61.65,-24.17,1007.39,-42,-5,22
1512180275,0.0229,0.0120,-0.0138,-36.80,-58.78,982.91,-45,-1,25
1512180275,-0.0410,0.0145,-0.0128,-36.13,-64.15,971.80,-45,-1,25
1512180275,0.0021,0.0104,-0.0145,-29.36,-39.67,998.60,-45,-1,25
1512180275,0.0386,0.0021,-0.0129,-30.94,-56.21,1022.34,-45,-1,25
1512180275,-0.0145,0.0169,-0.0096,-43.58,-28.32,947.14,-26,-3,16
1512180275,-0.0362,0.0306,-0.0104,-40.41,-60.55,1020.63,-26,-3,16
1512180275,0.1230,0.0025,-0.0081,-51.15,-49.99,990.66,-26,-3,16
1512180275,0.0043,0.0214,-0.0045,-27.95,-37.11,909.91,-26,-3,16
1512180275,-0.0483,0.0265,-0.0103,-61.16,-62.07,949.65,-26,-3,16
1512180275,0.0972,0.0072,-0.0134,-69.03,-7.20,995.91,-47,-10,20
1512180275,-0.0150,0.0176,-0.0084,-64.45,-27.71,923.03,-47,-10,20
1512180275,-0.0742,0.0162,-0.0023,-80.63,-49.93,934.57,-47,-10,20
1512180275,0.0201,0.0079,-0.0073,-75.20,-23.50,990.78,-47,-10,20
1512180275,0.0870,0.0025,-0.0076,-38.33,-11.90,975.22,-47,-10,20
1512180275,0.0326,0.0099,-0.0055,-40.53,-65.00,999.21,-42,5,25
1512180275,-0.0929,0.0181,-0.0021,-64.94,-73.55,956.05,-42,5,25
1512180275,0.0308,0.0075,-0.0057,-29.72,-17.03,1019.65,-42,5,25
1512180275,0.0783,-0.0052,-0.0049,-48.03,-34.79,1033.14,-42,5,25
1512180275,-0.0095,0.0004,0.0017,-44.74,-38.02,971.44,-42,-1,28
1512180275,-0.0048,0.0053,-0.0004,-49.74,-30.64,1010.80,-42,-1,28
1512180275,0.0411,-0.0067,-0.0016,-45.29,-39.00,980.83,-42,-1,28
1512180275,-0.0579,0.0124,0.0025,-62.62,-39.00,922.85,-42,-1,28
1512180275,0.0141,0.0069,-0.0029,-30.88,-49.80,1032.47,-42,-1,28
1512180276,0.0100,-0.0072,0.0033,-23.50,-33.39,991.82,-28,-8,15
1512180276,-0.0230,-0.0057,0.0039,-31.07,-52.61,983.76,-28,-8,15
1512180276,-0.0312,-0.0100,0.0073,-63.54,-24.05,962.65,-28,-8,15
1512180276,0.0237,0.0033,0.0027,-35.77,-10.86,1042.72,-28,-8,15
1512180276,0.1016,-0.0264,0.0033,-23.80,-27.65,1052.37,-33,7,20
1512180276,-0.1642,-0.0096,0.0164,-42.36,-41.38,934.45,-33,7,20
1512180276,-0.1202,-0.0208,0.0165,-53.28,-40.16,997.44,-33,7,20
1512180276,0.1166,-0.0455,0.0067,-55.05,-23.44,1016.91,-33,7,20
1512180276,-0.0850,-0.0241,0.0144,-9.64,-70.13,951.23,-33,7,20
1512180276,-0.0796,-0.0298,0.0128,-12.70,-60.67,988.95,-42,5,8
1512180276,-0.0266,-0.0410,0.0119,-29.97,-38.39,1023.74,-42,5,8
1512180276,0.0510,-0.0579,0.0156,-26.79,-13.00,976.44,-42,5,8
1512180276,-0.1099,-0.0310,0.0208,-9.83,-77.64,949.52,-42,5,8
1512180276,-0.1314,-0.0304,0.0316,-41.69,-33.45,932.43,-42,5,8
1512180276,-0.1001,-0.0254,0.0240,-20.14,-37.29,1008.06,-38,-8,25
1512180276,0.0276,-0.0364,0.0245,-13.31,-56.52,1019.53,-38,-8,25
1512180276,-0.0819,-0.0221,0.0273,-3.30,-85.27,946.59,-38,-8,25
1512180276,-0.0795,-0.0174,0.0249,1.95,-72.75,987.49,-38,-8,25
1512180276,0.0687,-0.0352,0.0225,-4.88,-65.98,994.87,-35,-12,25
1512180276,0.0061,-0.0224,0.0253,13.85,-93.87,994.93,-35,-12,25
1512180276,-0.1394,-0.0120,0.0383,0.67,-67.99,909.00,-35,-12,25
1512180276,-0.0170,-0.0238,0.0361,-9.46,-44.68,1016.54,-35,-12,25
1512180276,0.1051,-0.0310,0.0357,34.55,-42.66,1042.85,-35,-12,25
1512180276,-0.1325,-0.0040,0.0487,20.45,-75.87,957.89,-29,-3,10
1512180276,-0.0454,0.0036,0.0385,19.84,-83.68,1031.25,-29,-3,10
1512180276,0.0011,0.0105,0.0349,26.86,-79.83,1044.25,-29,-3,10
1512180276,0.0790,-0.0049,0.0350,29.54,-58.65,1034.73,-29,-3,10
1512180276,0.0294,-0.0005,0.0380,3.91,-63.60,980.83,-29,-3,10
1512180276,-0.0465,0.0125,0.0475,-19.53,-39.61,977.11,-33,-10,6
1512180276,0.0651,0.0027,0.0527,-24.66,-31.01,959.59,-33,-10,6
1512180276,0.0758,0.0025,0.0581,16.42,-27.53,957.09,-33,-10,6
1512180276,-0.0138,0.0140,0.0625,-6.16,-50.96,951.97,-33,-10,6
1512180276,-0.0386,0.0149,0.0666,0.67,-56.70,955.51,-28,-19,25
1512180276,-0.0040,0.0144,0.0679,-10.80,-37.41,982.18,-28,-19,25
1512180276,0.0386,0.0075,0.0644,4.33,-49.19,990.84,-28,-19,25
1512180276,-0.0726,0.0250,0.0627,31.56,-51.88,915.95,-28,-19,25
1512180276,0.0571,0.0174,0.0523,-6.53,-77.09,1021.55,-28,-19,25
1512180276,0.1699,-0.0048,0.0519,-12.33,-30.09,984.56,-28,-5,11
1512180277,0.0170,0.0138,0.0638,-3.17,-66.77,952.33,-28,-5,11
1512180277,-0.0618,0.0218,0.0707,-25.09,-65.00,961.06,-28,-5,11
1512180277,-0.0036,0.0154,0.0756,3.30,-42.36,974.98,-28,-5,11
1512180277,0.0754,0.0025,0.0798,-20.87,-26.18,1019.23,-15,0,23
1512180277,-0.0305,0.0123,0.0832,-3.11,-69.15,977.29,-15,0,23
1512180277,-0.0386,0.0158,0.0782,4.15,-63.17,1004.39,-15,0,23
1512180277,-0.0061,0.0124,0.0738,3.97,-31.43,996.70,-15,0,23
1512180277,0.1306,-0.0109,0.0682,23.62,-16.42,1009.70,-15,0,23
1512180277,-0.0783,0.0197,0.0739,-6.65,-84.17,955.63,-29,-3,33
1512180277,-0.1895,0.0386,0.0788,-14.40,-90.45,873.05,-29,-3,33
1512180277,0.1446,0.0178,0.0710,-28.93,-36.56,988.04,-29,-3,33
1512180277,0.0963,0.0011,0.0819,-8.67,-44.49,901.79,-29,-3,33
1512180277,-0.1007,0.0124,0.0860,13.24,-85.82,947.81,-29,-3,33
1512180277,-0.0466,-0.0111,0.0859,-39.06,-23.99,934.39,-31,8,28
1512180277,-0.0019,-0.0109,0.0810,-22.52,-31.49,1006.77,-31,8,28
1512180277,0.1020,-0.0266,0.0811,-13.18,-27.28,1035.03,-31,8,28
1512180277,0.0298,-0.0169,0.0818,-13.55,-42.30,989.87,-31,8,28
1512180277,-0.0862,-0.0119,0.0828,-20.51,-51.64,1004.64,-19,3,13
1512180277,-0.0238,-0.0316,0.0819,-12.08,-25.82,1010.44,-19,3,13
1512180277,-0.0305,-0.0304,0.0803,-16.42,-48.83,991.52,-19,3,13
1512180277,0.0382,-0.0361,0.0788,7.08,-40.83,1020.26,-19,3,13
1512180277,-0.1035,-0.0290,0.0893,-11.35,-88.87,942.50,-19,3,13
1512180277,-0.1224,-0.0353,0.0884,1.46,-21.48,961.61,-8,14,6
1512180277,-0.0449,-0.0521,0.0883,-21.06,-48.58,1018.19,-8,14,6
1512180277,-0.0481,-0.0545,0.0909,11.90,-32.53,999.82,-8,14,6
1512180277,-0.1294,-0.0394,0.0941,7.51,-69.95,995.85,-8,14,6
1512180277,-0.1041,-0.0483,0.0912,-7.20,-51.21,998.54,-8,14,6
1512180277,0.0209,-0.0618,0.0876,-0.18,-38.57,1016.24,-21,8,32
1512180277,-0.0373,-0.0575,0.0901,17.46,-77.15,967.10,-21,8,32
1512180277,-0.0186,-0.0541,0.0858,28.69,-73.79,976.68,-21,8,32
1512180277,-0.0767,-0.0450,0.0901,21.36,-89.66,931.09,-21,8,32
1512180277,-0.0123,-0.0391,0.0883,-8.91,-48.95,947.94,-14,5,15
1512180277,0.0216,-0.0427,0.0858,60.42,-84.23,999.02,-14,5,15
1512180277,0.0575,-0.0574,0.0895,34.91,-79.16,958.62,-14,5,15
1512180277,-0.0634,-0.0451,0.0920,5.80,-89.29,921.02,-14,5,15
1512180277,0.0529,-0.0407,0.0812,44.13,-38.33,1026.98,-14,5,15
1512180277,0.1162,-0.0318,0.0763,68.42,-98.82,1082.82,-15,-3,6
1512180278,0.0113,-0.0201,0.1013,65.06,-95.76,975.95,-15,-3,6
1512180278,-0.0430,-0.0023,0.0874,70.86,-78.06,1022.77,-15,-3,6
1512180278,0.0920,-0.0119,0.0803,37.17,-73.79,1083.19,-15,-3,6
1512180278,0.0772,-0.0073,0.0868,31.01,-57.25,1017.58,-15,-3,6
1512180278,0.0007,0.0111,0.0897,23.32,-60.85,962.04,-15,3,10
1512180278,-0.0719,0.0250,0.0971,19.84,-54.44,950.68,-15,3,10
1512180278,0.0071,0.0214,0.0916,57.80,-58.90,996.77,-15,3,10
1512180278,0.0750,0.0314,0.0913,79.65,-21.91,1042.05,-15,3,10
1512180278,0.0659,0.0501,0.1205,53.04,-55.42,1024.60,-8,17,13
1512180278,-0.0270,0.0834,0.1304,37.78,-60.73,964.97,-8,17,13
1512180278,-0.0537,0.0800,0.1293,26.67,-43.33,852.48,-8,17,13
1512180278,0.1326,0.0391,0.0886,-38.02,-35.71,968.57,-8,17,13
1512180278,0.0587,0.0170,0.0883,-55.18,-35.83,856.81,-8,17,13
1512180278,-0.0478,0.0169,0.0900,-46.26,-36.01,933.41,-21,26,15
1512180278,0.0563,-0.0128,0.0903,-63.29,-48.28,947.08,-21,26,15
1512180278,-0.0281,-0.0063,0.0892,-55.85,-71.47,937.01,-21,26,15
1512180278,-0.0364,-0.0222,0.0878,-26.00,-79.28,957.21,-21,26,15
1512180278,0.0093,-0.0450,0.0851,14.16,-48.03,1055.30,0,26,-1
1512180278,-0.0085,-0.0684,0.0875,-17.94,-108.09,980.53,0,26,-1
1512180278,-0.0233,-0.0573,0.0858,-17.33,-123.60,905.58,0,26,-1
1512180278,0.0658,-0.0503,0.0830,-1.77,-115.05,946.59,0,26,-1
1512180278,0.0494,-0.0249,0.1104,9.28,-129.15,941.65,0,26,-1
1512180278,-0.0706,0.0007,0.0921,18.74,-111.27,984.86,0,26,11
1512180278,-0.0510,0.0027,0.0955,20.32,-106.14,1015.99,0,26,11
1512180278,-0.0292,0.0001,0.1021,1.04,-83.07,961.36,0,26,11
1512180278,-0.0108,-0.0095,0.1021,19.90,-97.60,1021.73,0,26,11
1512180278,0.0965,-0.0345,0.1001,6.35,-102.05,1020.14,0,26,11
1512180278,-0.0178,-0.0254,0.1124,-2.93,-85.57,946.41,-5,31,10
1512180278,0.0252,-0.0193,0.1035,0.06,-77.51,1021.91,-5,31,10
1512180278,-0.0538,-0.0213,0.1091,-40.28,-78.19,931.82,-5,31,10
1512180278,-0.0538,-0.0150,0.1032,-40.59,-43.33,910.64,-5,31,10
1512180278,0.0060,-0.0181,0.0973,-3.72,-83.68,990.30,-5,31,10
1512180278,0.0382,-0.0305,0.0983,-26.37,-57.25,1009.95,10,26,8
1512180278,-0.0069,-0.0419,0.1084,-19.84,-74.46,986.82,10,26,8
1512180278,-0.0401,-0.0513,0.1137,-15.87,-68.91,1002.08,10,26,8
1512180278,0.0348,-0.0736,0.1202,-32.65,-57.98,989.75,10,26,8
1512180278,-0.0350,-0.0577,0.1173,-3.05,-106.75,942.14,5,24,13
1512180278,-0.0854,-0.0402,0.1374,5.55,-124.27,989.81,5,24,13
1512180279,0.0282,-0.0521,0.1378,37.84,-90.94,1005.49,5,24,13
1512180279,-0.0225,-0.0514,0.1491,47.18,-109.74,1012.82,5,24,13
1512180279,-0.0579,-0.0537,0.1156,17.64,-104.49,1042.42,5,24,13
1512180279,-0.1437,-0.0368,0.1237,27.16,-126.95,984.37,10,26,8
1512180279,-0.1031,-0.0224,0.1124,18.19,-107.54,1041.20,10,26,8
1512180279,-0.0197,-0.0258,0.1057,64.15,-98.14,1042.30,10,26,8
1512180279,0.0012,-0.0326,0.1258,26.55,-138.12,992.86,10,26,8
1512180279,-0.0369,-0.0184,0.1715,38.21,-108.95,959.41,29,31,0
1512180279,-0.0995,-0.0112,0.2294,43.21,-128.23,988.34,29,31,0
1512180279,-0.0201,-0.0206,0.3105,37.48,-130.55,992.25,29,31,0
1512180279,-0.0726,-0.0068,0.4224,11.96,-134.40,956.24,29,31,0
1512180279,0.0613,0.0310,0.4563,5.55,-145.63,941.77,29,31,0
1512180279,0.2258,-0.0563,0.4675,-17.94,-113.89,920.17,65,59,-16
1512180279,-0.2144,0.0842,0.3498,27.83,-116.88,1027.28,65,59,-16
1512180279,-0.0475,0.0411,0.3630,14.22,-133.79,959.35,65,59,-16
1512180279,-0.0694,0.0598,0.4045,35.52,-142.27,1060.85,65,59,-16
1512180279,0.0539,0.0328,0.4482,2.75,-121.95,912.35,65,59,-16
1512180279,-0.0129,0.0937,0.5594,-26.37,-87.59,627.38,170,211,-125
1512180279,0.9800,0.5523,0.7646,-16.17,-100.83,641.54,170,211,-125
1512180279,-0.5222,1.6437,0.9911,168.40,-310.79,1355.59,170,211,-125
1512180279,-0.6308,0.0334,1.0358,-108.83,-1.04,516.60,170,211,-125
1512180279,-0.6261,-0.6340,0.7775,-121.83,-12.82,920.90,247,405,-284
1512180279,-0.1746,0.0128,0.2684,-3.48,-50.11,1030.40,247,405,-284
1512180279,-0.1995,-0.0270,0.0955,-68.36,-105.29,739.75,247,405,-284
1512180279,-0.0241,0.1446,0.1601,-44.74,-98.02,1134.58,247,405,-284
1512180279,-0.1465,-0.1559,0.1127,-20.69,-133.12,831.48,247,405,-284
1512180279,0.0546,0.1344,0.1261,-29.85,-130.25,1006.84,247,416,-277
1512180279,0.0515,0.1346,0.1077,6.04,-105.22,988.95,247,416,-277
1512180279,-0.0264,-0.0832,0.1194,-32.65,-125.92,1030.58,247,416,-277
1512180279,-0.0209,-0.0539,0.1329,-62.56,-68.54,963.75,247,416,-277
1512180279,0.0398,0.0281,0.1431,-84.11,-107.91,923.52,247,416,-277
1512180279,-0.0079,-0.0134,0.1393,-67.57,-140.08,982.73,247,412,-280
1512180279,0.0756,0.0579,0.1308,-39.98,-116.88,1051.57,247,412,-280
1512180279,0.0245,-0.0133,0.1282,9.95,-120.00,972.72,247,412,-280
1512180279,0.0308,0.0349,0.1403,-30.33,-115.54,974.98,247,412,-280
1512180279,-0.0157,0.0196,0.1353,-87.46,-88.50,997.74,256,410,-296
1512180279,0.0146,-0.0115,0.1306,-34.42,-56.95,1068.18,256,410,-296
1512180279,-0.0132,-0.0096,0.1337,-74.83,-89.42,1060.55,256,410,-296
1512180280,-0.0451,0.0104,0.1321,-63.48,-78.31,953.55,256,410,-296
1512180280,-0.0124,0.0342,0.1326,-14.10,-141.54,990.36,256,410,-296
1512180280,0.0093,0.0513,0.1313,-4.33,-111.51,933.96,253,428,-286
1512180280,0.0280,0.0509,0.1304,-16.72,-123.05,991.09,253,428,-286
1512180280,0.0386,0.0049,0.1340,-18.01,-82.09,1068.79,253,428,-286
1512180280,0.0059,0.0322,0.1309,-63.05,-60.24,1082.46,253,428,-286
1512180280,0.0397,-0.1095,0.1423,-66.89,-66.04,1044.37,261,437,-270
1512180280,0.0083,-0.0338,0.1442,-67.32,-82.09,989.32,261,437,-270
1512180280,0.0742,-0.0124,0.1546,-46.14,-62.50,1011.66,261,437,-270
1512180280,0.0031,-0.0517,0.1498,-47.73,-106.45,940.86,261,437,-270
1512180280,0.0048,0.0317,0.1421,-6.59,-130.19,866.03,261,437,-270
1512180280,-0.0150,-0.0306,0.1322,10.93,-120.97,985.84,261,433,-277
1512180280,-0.0095,-0.0411,0.1314,17.40,-129.15,988.95,261,433,-277
1512180280,-0.0071,0.0119,0.1298,-16.78,-152.34,974.30,261,433,-277
1512180280,-0.0170,-0.0019,0.1308,9.77,-106.75,969.54,261,433,-277
1512180280,0.0028,0.0674,0.1294,-2.69,-152.16,1021.48,261,433,-277
1512180280,-0.0184,0.0003,0.1376,-20.32,-116.33,963.01,258,437,-277
1512180280,0.0411,0.0382,0.1380,-19.90,-82.21,973.27,258,437,-277
1512180280,0.0390,0.0124,0.1346,-17.76,-114.87,1020.32,258,437,-277
1512180280,-0.0165,-0.0160,0.1357,-27.28,-87.04,939.94,258,437,-277
1512180280,0.0534,0.0858,0.1376,-85.02,-115.36,1061.95,263,446,-272
1512180280,-0.0125,-0.0237,0.1443,-90.21,-70.37,922.73,263,446,-272
1512180280,0.0256,0.0610,0.1389,-68.85,-120.61,961.98,263,446,-272
1512180280,0.1333,0.0450,0.1384,-42.54,-66.28,1014.22,263,446,-272
1512180280,0.0718,-0.0190,0.1390,-54.20,-114.62,1033.75,263,446,-272
1512180280,0.0802,0.0344,0.1345,-45.10,-145.26,977.84,249,442,-292
1512180280,0.0551,0.0075,0.1370,-5.55,-95.64,1001.16,249,442,-292
1512180280,0.1107,0.0639,0.1372,-18.86,-123.90,1005.98,249,442,-292
1512180280,0.0558,0.0417,0.1385,-50.05,-116.76,951.54,249,442,-292
1512180280,0.0369,0.0771,0.1328,-15.81,-92.35,971.98,249,442,-292
1512180280,0.0310,0.0393,0.1425,-50.42,-68.73,1032.41,254,447,-280
1512180280,0.0256,0.0037,0.1395,-23.80,-58.11,1011.84,254,447,-280
1512180280,0.0181,0.0083,0.1353,-37.11,-47.36,996.28,254,447,-280
1512180280,-0.0336,0.0356,0.1349,-70.62,-108.09,1068.36,254,447,-280
1512180280,-0.0668,0.0000,0.1357,-27.47,-98.08,976.01,258,458,-280
1512180280,0.0123,0.0680,0.1330,-17.52,-103.52,1036.44,258,458,-280
1512180280,-0.0080,0.0101,0.1281,-17.94,-114.87,966.67,258,458,-280
1512180280,0.0372,0.0210,0.1280,5.49,-138.79,934.08,258,458,-280
1512180281,0.0425,0.0282,0.1224,-39.92,-125.73,966.61,258,458,-280
1512180281,0.0358,-0.0001,0.1278,-29.05,-103.70,979.43,254,465,-280
1512180281,-0.0051,0.0108,0.1300,-38.39,-108.76,980.83,254,465,-280
1512180281,-0.0586,0.0356,0.1389,-50.90,-102.36,910.83,254,465,-280
1512180281,-0.0329,0.0591,0.1361,-60.42,-80.63,959.72,254,465,-280
1512180281,-0.0573,0.0047,0.1294,-10.99,-142.03,987.12,254,465,-280
1512180281,-0.0485,0.0099,0.1332,-52.92,-99.85,951.11,263,477,-272
1512180281,0.0189,-0.0083,0.1238,-68.36,-83.07,915.89,263,477,-272
1512180281,0.0192,-0.0233,0.1273,-83.13,-70.98,1002.01,263,477,-272
1512180281,0.0377,0.0011,0.1188,-14.04,-88.87,1036.80,263,477,-272
1512180281,0.0197,0.0043,0.1237,-56.95,-70.13,1057.80,261,472,-277
1512180281,-0.0573,-0.0174,0.1233,-7.75,-124.45,956.30,261,472,-277
1512180281,-0.0031,0.0614,0.1273,-9.16,-102.54,1020.02,261,472,-277
1512180281,-0.0342,0.0072,0.1218,-71.47,-131.16,956.73,261,472,-277
1512180281,-0.0093,0.0228,0.1168,12.57,-134.77,989.01,261,472,-277
1512180281,-0.0383,0.0831,0.1172,-29.66,-106.99,1109.80,254,475,-270
1512180281,-0.0250,-0.0352,0.1216,-119.32,-60.85,955.32,254,475,-270
1512180281,0.0262,-0.0284,0.1234,-47.12,-106.32,935.55,254,475,-270
1512180281,0.1268,0.2073,0.1178,16.24,-118.77,1072.14,254,475,-270
1512180281,-0.0977,-0.0779,0.1164,-35.10,-159.36,797.36,256,477,-269
1512180281,0.0348,0.0820,0.1213,-82.34,-116.70,986.45,256,477,-269
1512180281,-0.0443,0.0153,0.0923,-18.13,-91.92,943.05,256,477,-269
1512180281,0.0057,0.0113,0.1000,-101.50,-51.82,1011.90,256,477,-269
1512180281,-0.0551,0.0174,0.1003,-89.17,-81.85,947.57,256,477,-269
1512180281,-0.0041,0.0457,0.0965,-9.09,-52.31,943.42,260,481,-275
1512180281,-0.0189,0.0875,0.1021,-52.12,-92.10,1114.56,260,481,-275
1512180281,-0.1084,-0.0304,0.0973,-50.84,-71.90,929.26,260,481,-275
1512180281,0.0555,0.0489,0.0854,-19.35,-82.09,1046.63,260,481,-275
1512180281,-0.0751,-0.0172,0.0855,-46.88,-96.31,991.03,260,481,-275
1512180281,0.0177,0.0336,0.0738,11.96,-96.13,977.23,256,481,-279
1512180281,0.0882,0.0654,0.0712,-36.74,-48.95,1041.87,256,481,-279
1512180281,0.0293,0.0246,0.0698,-34.00,-59.14,962.71,256,481,-279
1512180281,0.0466,0.0465,0.0726,-31.49,-53.65,1012.02,256,481,-279
1512180281,0.0130,0.0434,0.0726,-33.69,-77.27,1032.04,268,497,-284
1512180281,-0.0124,0.0210,0.0758,-67.20,-30.94,978.21,268,497,-284
1512180281,-0.0277,0.0535,0.0714,-11.72,-28.75,945.56,268,497,-284
1512180281,-0.0407,0.0509,0.0722,-39.31,-90.09,1001.65,268,497,-284
1512180281,-0.0703,0.0308,0.0674,-49.68,-72.02,927.86,268,497,-284
1512180282,-0.0357,0.0582,0.0579,-20.51,-75.01,932.13,268,493,-284
1512180282,-0.0672,0.0391,0.0563,-72.08,-55.60,984.01,268,493,-284
1512180282,0.0073,0.0085,0.0474,-43.88,-43.21,971.01,268,493,-284
1512180282,0.0414,0.0188,0.0505,-42.66,-61.34,1001.46,268,493,-284
1512180282,0.0517,0.0245,0.0474,-37.60,-48.22,1031.49,268,493,-284
1512180282,-0.0083,0.0119,0.0510,-26.00,-77.27,957.28,254,500,-294
1512180282,0.0047,0.0417,0.0447,-30.33,-60.06,989.01,254,500,-294
1512180282,-0.0345,0.0189,0.0471,-36.01,-32.17,980.71,254,500,-294
1512180282,-0.0666,-0.0232,0.0462,-36.68,-37.29,1003.72,254,500,-294
1512180282,-0.0742,0.0148,0.0497,-111.15,-46.88,1016.42,267,491,-299
1512180282,-0.0908,-0.0220,0.0336,-4.33,-74.89,925.11,267,491,-299
1512180282,-0.0538,0.0403,0.0458,-13.61,-99.18,877.50,267,491,-299
1512180282,0.0040,0.1194,0.0439,-53.77,-73.00,917.05,267,491,-299
1512180282,-0.0397,0.0636,0.0356,-67.93,-39.12,974.37,267,491,-299
1512180282,0.0360,-0.0728,0.0332,-42.79,-40.22,1039.55,261,497,-294
1512180282,0.1109,0.0294,0.0340,-44.56,-4.27,1044.31,261,497,-294
1512180282,0.0670,-0.0439,0.0353,-42.72,-76.29,988.28,261,497,-294
1512180282,0.0601,0.0330,0.0349,-72.69,-29.11,927.73,261,497,-294
1512180282,0.0734,0.0513,0.0274,-28.32,-32.59,958.68,254,497,-297
1512180282,0.0609,0.0338,0.0411,-81.67,-5.25,1046.75,254,497,-297
1512180282,-0.0162,-0.0591,0.0285,-71.72,13.61,955.20,254,497,-297
1512180282,0.0020,-0.0458,0.0280,-58.78,-39.25,1031.43,254,497,-297
1512180282,0.0208,-0.0249,0.0284,-54.69,-45.23,1051.57,254,497,-297
1512180282,-0.0296,0.0008,0.0193,-46.94,-65.31,985.72,256,488,-286
1512180282,-0.0407,0.0232,0.0161,-51.09,-46.08,963.07,256,488,-286
1512180282,0.0229,0.0417,0.0067,-51.09,-61.22,1023.62,256,488,-286
1512180282,0.0138,-0.0523,0.0145,-74.28,-40.71,1055.36,256,488,-286
1512180282,-0.0238,-0.0340,0.0121,-15.56,-35.64,969.79,254,490,-301
1512180282,-0.0188,0.0008,0.0185,-88.32,-57.92,981.99,254,490,-301
1512180282,-0.0494,0.0209,0.0168,-59.75,-80.75,952.64,254,490,-301
1512180282,0.0425,0.0493,0.0172,-43.40,-35.03,980.04,254,490,-301
1512180282,-0.0107,0.0405,0.0097,-105.10,-69.76,967.10,254,490,-301
1512180282,0.0040,-0.0123,0.0076,-74.40,-32.90,928.77,261,472,-297
1512180282,0.0567,-0.0134,0.0032,-85.39,-4.15,1019.96,261,472,-297
1512180282,0.0206,-0.0194,0.0017,-89.60,-33.39,1007.81,261,472,-297
1512180282,-0.0059,0.0121,-0.0019,-39.37,-43.64,931.46,261,472,-297
1512180282,-0.0206,0.0221,-0.0011,-85.14,-99.24,954.16,261,472,-297
1512180283,-0.0088,0.0720,-0.0091,-30.82,-75.50,948.18,247,493,-294
1512180283,0.0025,0.0542,-0.0085,-72.81,-43.52,974.73,247,493,-294
1512180283,-0.0196,-0.0383,-0.0044,-113.22,-26.92,998.05,247,493,-294
1512180283,-0.0083,-0.0218,-0.0041,-106.38,-12.70,964.78,247,493,-294
1512180283,0.0178,-0.0084,0.0036,-103.88,-10.13,985.60,251,475,-301
1512180283,0.0493,-0.0028,-0.0032,-82.46,-26.61,960.63,251,475,-301
1512180283,0.0582,0.0140,-0.0041,-72.63,-27.40,982.12,251,475,-301
1512180283,0.0184,0.0130,-0.0100,-70.13,-36.50,977.11,251,475,-301
1512180283,-0.0474,-0.0298,-0.0109,-105.71,-55.24,972.53,251,475,-301
1512180283,-0.0261,-0.0092,-0.0124,-83.56,-12.45,950.62,258,475,-294
1512180283,-0.0352,-0.0109,-0.0117,-94.30,-59.14,1016.36,258,475,-294
1512180283,-0.0447,-0.0316,-0.0075,-111.57,-52.73,972.29,258,475,-294
1512180283,-0.0198,0.0304,-0.0097,-90.33,-61.40,952.21,258,475,-294
1512180283,-0.0357,0.0080,-0.0096,-76.11,-91.06,971.07,258,475,-294
1512180283,0.0451,-0.0120,-0.0160,-84.41,-42.05,998.72,258,479,-308
1512180283,0.0372,-0.0202,-0.0103,-118.35,-60.18,950.32,258,479,-308
1512180283,0.0318,-0.0073,-0.0112,-96.74,-4.94,1014.89,258,479,-308
1512180283,0.0474,-0.0019,-0.0125,-64.39,-16.54,1013.49,258,479,-308
1512180283,0.0192,-0.0007,-0.0117,-103.27,-73.55,997.92,247,475,-297
1512180283,0.0495,0.0250,-0.0200,-51.39,-37.60,917.66,247,475,-297
1512180283,0.0638,0.0121,-0.0146,-90.03,-18.62,1001.83,247,475,-297
1512180283,-0.0501,-0.0356,-0.0164,-147.03,-37.35,992.61,247,475,-297
1512180283,-0.0224,-0.0188,-0.0201,-93.63,13.18,959.11,247,475,-297
1512180283,0.0382,-0.0353,-0.0192,-92.10,-34.85,1077.03,249,477,-306
1512180283,0.0025,-0.0293,-0.0236,-79.47,-43.76,1006.10,249,477,-306
1512180283,0.0686,0.0349,-0.0265,-89.78,-44.19,989.50,249,477,-306
1512180283,0.0080,-0.0153,-0.0200,-145.14,-40.53,969.67,249,477,-306
1512180283,0.0067,0.0081,-0.0272,-80.57,-11.72,950.07,249,477,-306
1512180283,-0.0009,-0.0459,-0.0206,-128.36,-12.70,1004.33,254,497,-294
1512180283,-0.0565,-0.0728,-0.0216,-116.64,-41.56,928.89,254,497,-294
1512180283,0.0236,0.0198,-0.0220,-79.04,-27.47,1006.77,254,497,-294
1512180283,0.0001,-0.0206,-0.0229,-94.12,-56.76,1005.55,254,497,-294
1512180283,0.0081,0.0005,-0.0260,-87.59,-27.53,959.35,235,484,-299
1512180283,0.0441,-0.0119,-0.0266,-111.33,-10.62,974.49,235,484,-299
1512180283,0.0229,-0.0601,-0.0304,-92.22,-23.50,984.68,235,484,-299
1512180283,0.0358,-0.0523,-0.0285,-80.51,-24.48,977.48,235,484,-299
1512180283,0.0314,-0.0202,-0.0300,-74.58,-21.00,931.95,235,484,-299
1512180283,0.0338,-0.0077,-0.0234,-98.45,-41.69,969.73,261,475,-297
1512180284,0.0246,0.0047,-0.0284,-72.14,-47.79,989.62,261,475,-297
1512180284,-0.0138,-0.0297,-0.0277,-94.97,-40.59,974.49,261,475,-297
1512180284,-0.0312,-0.0312,-0.0264,-110.60,-23.74,958.68,261,475,-297
1512180284,-0.0282,-0.0079,-0.0269,-98.39,-29.05,978.33,251,472,-291
1512180284,-0.0301,-0.0226,-0.0290,-101.99,-31.80,974.30,251,472,-291
1512180284,-0.0358,-0.0040,-0.0280,-91.49,-29.30,946.41,251,472,-291
1512180284,0.0265,0.0092,-0.0305,-74.22,-33.69,968.99,251,472,-291
1512180284,-0.0107,-0.0225,-0.0309,-97.05,-59.20,988.40,251,472,-291
1512180284,-0.0119,-0.0099,-0.0321,-77.39,-30.46,959.47,251,475,-287
1512180284,0.0216,-0.0077,-0.0365,-98.14,-30.09,976.99,251,475,-287
1512180284,-0.0248,-0.0256,-0.0377,-107.06,-58.23,970.70,251,475,-287
1512180284,-0.0087,0.0012,-0.0395,-80.81,-30.09,1004.52,251,475,-287
1512180284,-0.0321,-0.0297,-0.0369,-102.29,-39.92,971.86,263,467,-292
1512180284,-0.0064,-0.0033,-0.0409,-90.33,-44.49,953.74,263,467,-292
1512180284,0.0622,-0.0085,-0.0376,-74.04,-9.58,949.77,263,467,-292
1512180284,0.0593,-0.0056,-0.0378,-119.81,-15.99,1013.61,263,467,-292
1512180284,0.0434,-0.0390,-0.0341,-111.76,14.83,1017.09,263,467,-292
1512180284,-0.0228,-0.0228,-0.0360,-97.78,-26.37,1018.13,249,449,-296
1512180284,-0.0194,-0.0085,-0.0393,-82.28,-5.07,1012.27,249,449,-296
1512180284,-0.0146,-0.0192,-0.0454,-99.43,-25.82,983.15,249,449,-296
1512180284,-0.0631,-0.0150,-0.0418,-116.27,-32.04,959.05,249,449,-296
1512180284,-0.0278,0.0091,-0.0482,-57.31,-11.05,953.37,249,449,-296
1512180284,-0.0282,-0.0330,-0.0446,-86.36,-34.85,995.48,247,461,-277
1512180284,0.0329,-0.0254,-0.0458,-96.07,-26.18,984.56,247,461,-277
1512180284,0.0566,-0.0125,-0.0455,-94.97,33.87,981.87,247,461,-277
1512180284,0.0668,-0.0395,-0.0473,-81.42,13.85,1005.31,247,461,-277
1512180284,-0.0210,-0.0494,-0.0470,-96.56,-2.38,997.38,265,461,-284
1512180284,-0.0202,-0.0260,-0.0455,-91.00,-15.44,932.50,265,461,-284
1512180284,-0.0180,-0.0120,-0.0515,-48.52,-35.10,1007.87,265,461,-284
1512180284,-0.0495,-0.0115,-0.0487,-97.96,-48.22,978.52,265,461,-284
1512180284,-0.0470,-0.0165,-0.0483,-90.45,-62.81,939.21,265,461,-284
1512180284,-0.0209,0.0136,-0.0491,-114.07,-44.43,981.57,261,468,-294
1512180284,-0.0354,-0.0369,-0.0511,-45.23,-24.23,1012.08,261,468,-294
1512180284,-0.0328,-0.0153,-0.0530,-55.24,-29.97,1001.65,261,468,-294
1512180284,-0.0180,-0.0246,-0.0498,-86.43,-49.56,967.90,261,468,-294
1512180284,-0.0442,-0.0128,-0.0531,-80.99,-31.80,983.89,261,468,-294
1512180284,0.0354,-0.0157,-0.0503,-83.37,13.49,990.78,249,456,-279
1512180285,0.0234,-0.0258,-0.0606,-69.82,-46.45,1025.76,249,456,-279
1512180285,0.0276,-0.0228,-0.0627,-40.59,-18.01,983.28,249,456,-279
1512180285,-0.0272,-0.0067,-0.0633,-55.18,-37.84,956.60,249,456,-279
1512180285,-0.0541,-0.0099,-0.0683,-60.55,-24.17,952.21,242,463,-282
1512180285,-0.0836,-0.0212,-0.0667,-16.66,8.12,986.27,242,463,-282
1512180285,-0.0852,-0.0184,-0.0625,-88.44,1.77,997.92,242,463,-282
1512180285,-0.0766,-0.0244,-0.0633,-48.65,-3.66,960.02,242,463,-282
1512180285,-0.0262,0.0040,-0.0650,-86.06,-34.61,1029.42,242,463,-282
1512180285,-0.0115,0.0325,-0.0668,-53.10,-2.14,964.05,244,447,-277
1512180285,0.0434,0.0494,-0.0711,-54.93,-15.56,1010.99,244,447,-277
1512180285,0.0150,0.0109,-0.0670,-86.43,9.95,1014.28,244,447,-277
1512180285,-0.0077,-0.0075,-0.0728,-55.60,-1.59,994.81,244,447,-277
1512180285,0.0132,-0.0214,-0.0678,-87.65,33.81,1001.22,256,463,-265
1512180285,-0.0591,0.0013,-0.0718,-59.94,-8.67,954.47,256,463,-265
1512180285,0.0003,0.0499,-0.0772,-31.19,-15.63,981.26,256,463,-265
1512180285,-0.0214,0.0320,-0.0692,-82.64,-2.93,975.04,256,463,-265
1512180285,-0.0061,-0.0216,-0.0724,-68.66,13.37,911.50,256,463,-265
1512180285,0.0274,-0.0264,-0.0678,-94.18,25.15,943.42,247,447,-243
1512180285,0.0041,-0.0378,-0.0810,-81.67,21.67,984.25,247,447,-243
1512180285,0.0056,-0.0398,-0.0758,-56.64,41.44,1006.96,247,447,-243
1512180285,0.0329,-0.0300,-0.0816,-70.31,17.33,1018.92,247,447,-243
1512180285,0.0626,-0.0111,-0.0750,-87.16,49.99,973.45,247,447,-243
1512180285,0.0172,0.0314,-0.0883,-68.97,21.12,1019.96,261,479,-253
1512180285,0.0197,-0.0325,-0.0916,-54.69,-4.58,995.30,261,479,-253
1512180285,0.0202,-0.0041,-0.0945,-7.45,-22.58,990.17,261,479,-253
1512180285,-0.0157,0.0501,-0.0904,-66.59,-27.95,1026.67,261,479,-253
1512180285,-0.1000,-0.0196,-0.0872,-58.23,-7.57,986.51,268,490,-267
1512180285,-0.0399,0.0087,-0.0870,-60.73,4.52,967.10,268,490,-267
1512180285,-0.0517,0.0212,-0.0872,-109.44,-14.04,974.00,268,490,-267
1512180285,-0.0083,-0.0043,-0.0911,-65.37,-27.71,948.85,268,490,-267
1512180285,0.0201,0.0108,-0.0913,-88.93,4.46,989.26,268,490,-267
1512180285,0.0024,-0.0047,-0.0985,-80.51,-25.02,970.83,268,479,-280
1512180285,0.0053,0.0177,-0.1041,-33.94,-6.77,1000.55,268,479,-280
1512180285,-0.0288,0.0068,-0.1037,-54.57,-13.67,1005.07,268,479,-280
1512180285,-0.0553,-0.0164,-0.0991,-91.98,46.75,991.88,268,479,-280
1512180285,-0.0316,0.0213,-0.1041,-72.51,24.54,1034.12,268,479,-280
1512180285,-0.0228,-0.0276,-0.1027,-59.39,-20.94,1007.20,268,472,-280
1512180285,-0.0405,-0.0028,-0.1077,-44.19,-48.16,942.81,268,472,-280
1512180286,0.0033,0.0422,-0.1121,-41.02,-17.40,986.76,268,472,-280
1512180286,-0.0184,-0.0541,-0.1146,-35.95,-16.91,982.97,268,472,-280
1512180286,0.0477,-0.0201,-0.1216,-61.52,5.68,993.65,265,475,-291
1512180286,0.0481,-0.0458,-0.1164,-59.57,9.52,1001.16,265,475,-291
1512180286,0.0298,-0.0360,-0.1156,-58.65,31.68,966.13,265,475,-291
1512180286,0.0726,0.0399,-0.1193,-55.11,18.80,982.85,265,475,-291
1512180286,0.0015,-0.0115,-0.1182,-59.39,5.62,976.26,265,475,-291
1512180286,0.0015,0.0196,-0.1222,-49.19,-6.71,953.12,261,461,-277
1512180286,-0.0202,0.0080,-0.1238,-57.68,-19.90,989.75,261,461,-277
1512180286,-0.1344,-0.0067,-0.1261,-40.65,-13.24,929.26,261,461,-277
1512180286,-0.0684,0.0346,-0.1264,-37.72,-10.50,954.83,261,461,-277
1512180286,-0.0786,0.0377,-0.1321,-56.82,-39.98,993.65,260,467,-286
1512180286,-0.0838,0.0181,-0.1294,-51.21,2.69,968.26,260,467,-286
1512180286,-0.0123,0.0061,-0.1312,-56.09,-20.51,972.35,260,467,-286
1512180286,-0.0381,0.0013,-0.1258,-81.18,-9.95,985.17,260,467,-286
1512180286,-0.0848,-0.0121,-0.1326,-37.72,-24.23,958.01,260,467,-286
1512180286,-0.0088,-0.0290,-0.1225,-75.32,8.91,942.93,261,440,-287
1512180286,0.0309,0.0169,-0.1272,-61.46,-6.71,934.63,261,440,-287
1512180286,0.0321,0.0033,-0.1346,-47.24,-20.81,980.59,261,440,-287
1512180286,0.0186,-0.0293,-0.1324,-73.12,30.82,967.16,261,440,-287
1512180286,0.0182,0.0020,-0.1284,-54.57,47.24,951.48,261,440,-287
1512180286,0.0296,-0.0076,-0.1349,-61.04,21.18,1036.01,260,453,-282
1512180286,-0.0194,-0.0108,-0.1350,-42.18,8.97,1028.26,260,453,-282
1512180286,-0.0044,0.0091,-0.1340,-51.76,42.66,974.73,260,453,-282
1512180286,0.0417,0.0165,-0.1415,-45.59,9.52,1016.60,260,453,-282
1512180286,-0.0526,-0.0041,-0.1403,-62.99,22.89,1013.00,253,453,-282
1512180286,-0.0081,0.0020,-0.1410,-58.04,44.37,987.73,253,453,-282
1512180286,-0.0217,-0.0013,-0.1405,-73.06,4.46,971.13,253,453,-282
1512180286,-0.0458,0.0028,-0.1435,-55.79,14.04,970.64,253,453,-282
1512180286,-0.0119,0.0449,-0.1434,-62.44,27.40,950.26,253,453,-282
1512180286,0.0107,0.0160,-0.1498,-52.86,6.90,1036.56,258,440,-284
1512180286,-0.0256,0.0354,-0.1553,10.25,17.64,1029.42,258,440,-284
1512180286,-0.0104,0.0156,-0.1527,-43.27,7.63,1043.95,258,440,-284
1512180286,-0.0538,-0.0004,-0.1507,-35.22,17.03,981.75,258,440,-284
1512180286,-0.0173,0.0346,-0.1545,-22.09,31.31,1029.17,253,449,-282
1512180286,-0.0161,0.0173,-0.1566,-50.78,-12.88,1009.28,253,449,-282
1512180286,-0.0407,0.0467,-0.1553,-61.65,-1.16,966.37,253,449,-282
1512180286,-0.0176,0.0387,-0.1563,-65.43,23.80,965.76,253,449,-282
1512180287,-0.0571,-0.0019,-0.1579,-24.84,14.47,975.16,253,449,-282
1512180287,-0.0055,0.0345,-0.1583,-34.79,30.82,965.45,256,431,-286
1512180287,-0.0221,-0.0129,-0.1575,-57.13,17.88,1004.76,256,431,-286
1512180287,-0.0393,0.0168,-0.1551,-60.36,23.86,940.37,256,431,-286
1512180287,0.0182,0.0706,-0.1639,-45.17,0.43,973.75,256,431,-286
1512180287,-0.0156,0.0134,-0.1554,-74.89,-8.12,1027.83,256,431,-286
1512180287,-0.0509,0.0346,-0.1535,-65.43,34.06,968.32,240,437,-280
1512180287,-0.0726,0.0288,-0.1617,-31.68,-13.67,931.03,240,437,-280
1512180287,-0.1121,-0.0220,-0.1573,-61.28,-1.10,928.89,240,437,-280
1512180287,-0.0260,0.0827,-0.1585,-52.73,26.37,947.51,240,437,-280
1512180287,-0.0258,0.0684,-0.1695,-36.62,10.74,985.60,244,440,-294
1512180287,-0.0382,0.0101,-0.1643,-87.22,39.73,988.77,244,440,-294
1512180287,-0.0055,0.0257,-0.1654,-78.98,33.94,945.56,244,440,-294
1512180287,-0.0148,0.0465,-0.1679,-52.98,-6.04,1015.81,244,440,-294
1512180287,-0.0467,0.0121,-0.1675,-69.64,15.14,1026.00,244,440,-294
1512180287,-0.0170,0.0405,-0.1637,-73.85,17.82,1022.34,244,423,-277
1512180287,-0.0356,0.0240,-0.1639,-114.81,23.38,1015.56,244,423,-277
1512180287,-0.1049,0.0156,-0.1670,-102.97,17.76,937.99,244,423,-277
1512180287,-0.0458,0.0534,-0.1694,-76.84,8.97,1018.55,244,423,-277
1512180287,0.0153,0.0004,-0.1751,-127.62,-12.02,967.77,242,421,-279
1512180287,0.0310,0.0455,-0.1723,-94.60,-19.59,925.54,242,421,-279
1512180287,0.0652,0.0730,-0.1776,-120.00,-11.11,975.83,242,421,-279
1512180287,0.0329,0.0435,-0.1759,-134.70,-18.13,976.26,242,421,-279
1512180287,0.0004,0.0648,-0.1834,-94.67,-11.41,951.42,242,421,-279
1512180287,0.0202,0.0676,-0.1767,-132.57,3.05,1044.43,249,428,-282
1512180287,0.0101,0.0160,-0.1818,-118.59,8.85,1021.67,249,428,-282
1512180287,0.0370,0.0314,-0.1812,-125.24,59.94,945.98,249,428,-282
1512180287,0.0421,0.0376,-0.1855,-105.71,10.50,972.41,249,428,-282
1512180287,0.0569,0.0320,-0.1856,-135.62,65.00,947.57,249,428,-282
1512180287,0.0748,0.0309,-0.1892,-134.28,43.03,1039.86,240,419,-277
1512180287,0.0294,-0.0269,-0.1948,-96.68,66.16,990.05,240,419,-277
1512180287,0.0714,0.0021,-0.1963,-141.30,40.28,1000.00,240,419,-277
1512180287,-0.0177,-0.0035,-0.1924,-115.84,40.89,955.93,240,419,-277
1512180287,0.0245,0.0233,-0.1945,-101.01,48.95,1020.63,238,421,-286
1512180287,-0.0349,-0.0036,-0.1936,-120.00,6.53,984.68,238,421,-286
1512180287,-0.0457,0.0116,-0.1943,-128.54,26.12,998.54,238,421,-286
1512180287,0.0360,0.0008,-0.1969,-107.24,18.68,1016.48,238,421,-286
1512180288,0.0210,0.0133,-0.2020,-145.63,-1.40,1010.68,238,421,-286
1512180288,-0.0156,0.0075,-0.1989,-108.28,5.55,937.81,235,407,-292
1512180288,-0.0020,0.0292,-0.2032,-70.19,-8.00,998.72,235,407,-292
1512180288,0.0240,-0.0088,-0.2043,-141.05,16.85,994.69,235,407,-292
1512180288,0.0742,0.0005,-0.2036,-117.00,56.09,1007.20,235,407,-292
1512180288,0.0429,-0.0253,-0.2012,-156.86,37.90,992.31,235,407,-292
1512180288,0.0646,0.0011,-0.2023,-138.18,75.38,979.43,226,409,-280
1512180288,0.0333,0.0395,-0.1992,-133.97,29.05,1014.22,226,409,-280
1512180288,-0.0027,0.0121,-0.2064,-100.59,9.83,993.35,226,409,-280
1512180288,0.0041,0.0258,-0.2091,-73.79,-9.09,978.15,226,409,-280
1512180288,-0.0270,0.0290,-0.2080,-112.00,22.46,1038.57,238,396,-275
1512180288,-0.0915,0.0250,-0.2131,-75.99,-25.02,970.46,238,396,-275
1512180288,-0.0743,-0.0180,-0.2048,-116.21,15.14,970.70,238,396,-275
1512180288,-0.0569,0.0381,-0.2039,-103.82,36.62,942.32,238,396,-275
1512180288,-0.0214,0.0502,-0.2060,-98.63,55.05,997.19,238,396,-275
1512180288,-0.1277,-0.0177,-0.2129,-142.58,6.04,979.74,230,394,-280
1512180288,-0.0876,0.0180,-0.2161,-52.92,38.09,928.47,230,394,-280
1512180288,-0.0816,0.0132,-0.2081,-129.39,-35.77,961.67,230,394,-280
1512180288,-0.0360,0.0487,-0.2166,-92.53,-64.39,935.85,230,394,-280
1512180288,-0.0932,0.0425,-0.2112,-122.44,-58.35,984.68,230,394,-280
1512180288,-0.1395,0.0077,-0.2193,-107.18,-9.58,974.00,226,394,-277
1512180288,-0.0726,0.0285,-0.2115,-93.75,-5.00,984.25,226,394,-277
1512180288,-0.0792,-0.0174,-0.2101,-148.99,-15.87,942.20,226,394,-277
1512180288,-0.0819,0.0292,-0.2063,-127.50,12.76,915.34,226,394,-277
1512180288,-0.0634,-0.0205,-0.2053,-114.69,18.49,945.68,224,393,-269
1512180288,-0.0304,0.0117,-0.2013,-135.13,51.94,916.20,224,393,-269
1512180288,0.0715,0.0172,-0.2053,-123.54,54.50,983.58,224,393,-269
1512180288,0.0134,-0.0378,-0.2111,-122.38,30.64,1003.48,224,393,-269
1512180288,0.0230,-0.0293,-0.2164,-91.19,58.53,1030.21,224,393,-269
1512180288,0.0067,-0.0212,-0.2127,-109.62,60.18,987.18,216,380,-280
1512180288,-0.0402,-0.0028,-0.2087,-146.55,44.56,983.52,216,380,-280
1512180288,-0.0346,-0.0136,-0.2152,-111.33,23.25,938.42,216,380,-280
1512180288,-0.0487,0.0142,-0.2077,-134.58,25.76,996.58,216,380,-280
1512180288,-0.0341,0.0052,-0.2158,-75.44,16.85,957.70,216,380,-280
1512180288,-0.0142,-0.0109,-0.2049,-117.13,48.16,1027.10,223,359,-280
1512180288,-0.0383,-0.0429,-0.2081,-104.49,30.70,927.25,223,359,-280
1512180288,0.0091,-0.0206,-0.2051,-113.77,72.14,1000.12,223,359,-280
1512180288,0.0248,-0.0035,-0.2087,-87.77,55.85,995.42,223,359,-280
1512180289,0.0268,-0.0040,-0.2073,-115.66,50.23,1024.11,212,370,-294
1512180289,0.0387,0.0007,-0.2147,-108.52,45.29,933.78,212,370,-294
1512180289,0.0372,0.0161,-0.2064,-111.45,49.44,991.33,212,370,-294
1512180289,0.0060,0.0221,-0.2193,-76.11,11.54,980.41,212,370,-294
1512180289,0.0241,0.0105,-0.2197,-58.84,65.06,1021.67,212,370,-294
1512180289,-0.0565,-0.0301,-0.2053,-124.39,24.29,1032.71,203,371,-292
1512180289,-0.0851,0.0068,-0.2080,-95.46,31.49,931.82,203,371,-292
1512180289,-0.0682,-0.0011,-0.1961,-128.85,41.87,989.87,203,371,-292
1512180289,-0.0643,-0.0206,-0.1991,-82.52,14.95,892.09,203,371,-292
1512180289,-0.0430,0.0644,-0.2033,-87.65,9.70,1000.55,205,356,-284
1512180289,-0.1249,-0.0423,-0.2028,-85.33,23.25,958.86,205,356,-284
1512180289,-0.0959,-0.0052,-0.1920,-72.14,61.40,947.69,205,356,-284
1512180289,-0.0005,0.0329,-0.1984,-104.55,36.44,1014.53,205,356,-284
1512180289,-0.0904,-0.0595,-0.1939,-97.90,34.55,957.28,205,356,-284
1512180289,-0.0257,0.0373,-0.1956,-67.02,19.23,955.99,196,343,-272
1512180289,-0.0478,0.0067,-0.1872,-107.24,15.69,996.09,196,343,-272
1512180289,-0.0238,-0.0505,-0.1900,-92.65,11.05,905.27,196,343,-272
1512180289,0.0489,0.0265,-0.1890,-61.22,16.78,1013.12,196,343,-272
1512180289,0.0020,-0.0197,-0.1828,-75.74,11.66,1024.29,196,343,-272
1512180289,0.0268,-0.0459,-0.1680,-60.97,68.60,1013.98,202,342,-267
1512180289,0.0390,-0.0300,-0.1617,-54.08,39.79,960.69,202,342,-267
1512180289,0.0583,0.0212,-0.1654,-67.63,11.96,966.55,202,342,-267
1512180289,-0.0028,-0.0493,-0.1603,-76.90,37.29,857.24,202,342,-267
1512180289,0.0425,0.0212,-0.1642,-82.40,69.64,968.51,195,342,-277
1512180289,-0.0678,-0.0317,-0.1656,-30.52,54.08,941.10,195,342,-277
1512180289,0.0096,-0.0718,-0.1522,-67.93,29.79,1017.27,195,342,-277
1512180289,-0.0029,-0.0100,-0.1453,-51.03,-39.12,1040.41,195,342,-277
1512180289,-0.0475,-0.0166,-0.1225,-10.56,-80.38,952.27,195,342,-277
1512180289,-0.0423,0.0748,-0.1495,-57.37,-55.54,1013.67,202,338,-277
1512180289,-0.0012,0.0296,-0.1322,-68.60,17.94,931.09,202,338,-277
1512180289,-0.0451,0.0129,-0.1302,-57.68,56.46,970.83,202,338,-277
1512180289,-0.0722,-0.0314,-0.1301,-103.21,-43.52,952.58,202,338,-277
1512180289,0.0852,-0.0467,-0.1166,-35.46,26.12,974.73,202,338,-277
1512180289,0.1290,0.0550,-0.1249,-36.13,-13.61,1031.68,195,349,-284
1512180289,0.0465,0.0176,-0.1237,-80.38,17.70,929.50,195,349,-284
1512180289,0.1265,0.1001,-0.1224,-57.56,35.28,985.96,195,349,-284
1512180289,0.0470,-0.0281,-0.1194,-113.77,2.01,1048.89,195,349,-284
1512180289,-0.0145,-0.0081,-0.1224,-28.93,4.21,921.26,186,336,-282
1512180290,0.0165,-0.0045,-0.1080,-35.89,-7.08,1066.35,186,336,-282
1512180290,-0.0470,-0.0048,-0.0939,-71.35,-33.81,964.66,186,336,-282
1512180290,0.0052,0.0711,-0.0895,-32.71,3.36,900.63,186,336,-282
1512180290,0.0309,0.0667,-0.0875,-14.89,-36.99,1012.76,186,336,-282
1512180290,-0.0409,0.0478,-0.0863,-27.53,-50.54,963.68,180,342,-287
1512180290,0.0176,0.0217,-0.0732,-46.39,-2.32,944.40,180,342,-287
1512180290,0.0100,-0.0112,-0.0676,-70.74,-1.65,1008.42,180,342,-287
1512180290,0.0204,0.0117,-0.0602,-78.49,0.18,926.76,180,342,-287
1512180290,0.0586,0.0168,-0.0545,-76.84,1.71,992.31,180,342,-287
1512180290,0.0336,-0.0035,-0.0453,-67.14,-23.80,942.63,180,327,-291
1512180290,-0.0237,-0.0045,-0.0454,-43.03,-36.25,954.35,180,327,-291
1512180290,-0.0124,-0.0158,-0.0333,-39.25,-44.43,978.94,180,327,-291
1512180290,-0.0423,-0.0158,-0.0273,-24.29,-36.44,1032.47,180,327,-291
1512180290,-0.0577,-0.0015,-0.0092,-16.30,-59.63,987.00,177,331,-274
1512180290,-0.0174,0.0055,0.0003,-17.88,-83.92,1046.63,177,331,-274
1512180290,0.0260,0.0208,0.0053,-19.41,-41.02,1037.84,177,331,-274
1512180290,0.0016,-0.0027,0.0115,-5.68,-84.17,1035.16,177,331,-274
1512180290,-0.0108,0.0200,0.0262,-7.57,-59.45,1004.39,177,331,-274
1512180290,-0.0314,0.0220,0.0382,-8.73,-42.11,991.64,175,340,-292
1512180290,-0.0895,0.0226,0.0438,-17.21,-61.16,959.05,175,340,-292
1512180290,-0.0382,0.0864,0.0515,-25.09,-54.14,987.55,175,340,-292
1512180290,-0.0469,0.0324,0.0643,-37.78,-33.51,1014.95,175,340,-292
1512180290,-0.0321,-0.0013,0.0731,-42.79,-34.48,938.17,177,345,-291
1512180290,0.0437,0.0377,0.0771,-60.18,-34.85,977.78,177,345,-291
1512180290,-0.0169,-0.0168,0.0810,-25.88,-20.69,916.93,177,345,-291
1512180290,0.0333,0.0111,0.0883,-69.09,-46.20,970.89,177,345,-291
1512180290,0.0041,0.0165,0.0929,-36.19,-42.36,944.46,177,345,-291
1512180290,0.0374,0.0084,0.0977,-2.75,-72.51,1030.88,182,340,-289
1512180290,0.0037,-0.0004,0.0955,-26.55,-104.31,979.92,182,340,-289
1512180290,-0.0324,-0.0248,0.1119,-26.25,-80.20,880.98,182,340,-289
1512180290,-0.0541,0.0565,0.1099,-54.02,-109.68,1018.19,182,340,-289
1512180290,-0.0731,-0.0884,0.1250,-31.62,-63.17,952.58,182,340,-289
1512180290,0.0360,-0.0439,0.1356,-54.14,-54.57,1023.74,188,342,-280
1512180290,0.0391,0.0225,0.1454,-3.85,-48.77,1012.27,188,342,-280
1512180290,0.1216,-0.0154,0.1401,-12.94,-48.58,1063.96,188,342,-280
1512180290,0.0786,-0.0357,0.1434,8.73,-99.73,1066.65,188,342,-280
1512180290,0.0866,0.0621,0.1302,-51.88,-83.07,1018.19,189,347,-286
1512180290,-0.0312,0.0076,0.1280,-27.83,-133.18,1013.18,189,347,-286
1512180291,0.0365,0.0478,0.1461,-31.68,-72.27,1075.07,189,347,-286
1512180291,-0.0394,-0.0103,0.1453,-88.38,-97.90,964.66,189,347,-286
1512180291,-0.0234,0.0627,0.1503,-67.99,-83.92,925.35,189,347,-286
1512180291,-0.0855,0.0486,0.1529,-94.73,-65.19,938.11,189,357,-282
1512180291,-0.0664,0.0561,0.1589,-119.87,-41.69,940.55,189,357,-282
1512180291,-0.0650,-0.0158,0.1601,-76.17,-56.03,893.01,189,357,-282
1512180291,0.0154,0.0217,0.1643,-71.35,-56.40,934.63,189,357,-282
1512180291,0.0115,0.0138,0.1605,-44.74,-50.72,950.07,189,357,-282
1512180291,0.0888,0.0165,0.1527,-42.42,-67.44,1017.21,189,357,-286
1512180291,0.0474,-0.0104,0.1526,-23.50,-57.98,978.09,189,357,-286
1512180291,0.0903,0.0136,0.1593,-29.17,-21.67,1068.24,189,357,-286
1512180291,0.0369,-0.0675,0.1594,-60.18,-60.30,970.95,189,357,-286
1512180291,0.0629,0.0033,0.1581,-31.13,-64.27,995.67,195,363,-291
1512180291,0.0346,0.0286,0.1638,-58.53,-57.74,988.46,195,363,-291
1512180291,-0.0005,0.0149,0.1670,-74.10,-97.29,963.87,195,363,-291
1512180291,-0.0274,0.0268,0.1652,-46.08,-67.50,951.90,195,363,-291
1512180291,0.0152,-0.0036,0.1678,-63.72,-43.82,1019.53,195,363,-291
1512180291,-0.0716,-0.0720,0.1694,-75.38,-91.00,913.82,186,357,-282
1512180291,0.0377,0.0356,0.1755,-24.05,-34.61,959.53,186,357,-282
1512180291,0.0105,-0.0021,0.1743,-50.29,-98.57,1017.76,186,357,-282
1512180291,-0.0382,-0.0115,0.1748,-48.83,-93.69,937.44,186,357,-282
1512180291,0.0044,0.0362,0.1790,-55.85,-95.95,971.86,186,357,-282
1512180291,0.0059,0.0079,0.1795,-72.02,-95.76,1030.40,200,375,-275
1512180291,-0.0298,-0.0314,0.1890,-78.49,-103.27,952.03,200,375,-275
1512180291,-0.0356,0.0181,0.1863,-28.87,-96.80,962.16,200,375,-275
1512180291,-0.0348,0.0354,0.1951,-18.31,-113.16,1010.01,200,375,-275
1512180291,-0.0870,0.0216,0.1973,-47.49,-89.42,954.77,188,373,-284
1512180291,-0.0598,0.0161,0.2045,-45.04,-87.46,947.94,188,373,-284
1512180291,-0.0028,-0.0109,0.2076,-16.85,-80.20,983.83,188,373,-284
1512180291,0.0024,0.0011,0.2104,-34.79,-81.67,973.39,188,373,-284
1512180291,0.0256,0.0205,0.2087,-31.25,-75.32,992.68,188,373,-284
1512180291,-0.0220,0.0049,0.2139,-21.55,-83.01,1041.20,202,377,-274
1512180291,-0.0169,0.0229,0.2129,28.44,-70.19,1014.16,202,377,-274
1512180291,-0.0708,-0.0007,0.2166,1.53,-109.44,1019.59,202,377,-274
1512180291,-0.0807,0.0031,0.2161,-21.06,-112.06,990.60,202,377,-274
1512180291,-0.0407,-0.0072,0.2190,11.17,-104.37,965.45,202,394,-274
1512180291,0.0065,-0.0008,0.2202,-15.38,-123.90,1033.33,202,394,-274
1512180292,-0.0077,-0.0121,0.2310,-53.16,-86.18,937.38,202,394,-274
1512180292,-0.0064,-0.0206,0.2322,-39.61,-57.98,1014.47,202,394,-274
1512180292,0.0671,-0.0258,0.2372,-0.67,-41.14,1042.36,202,394,-274
1512180292,0.0193,-0.0791,0.2396,-52.25,-96.37,979.37,205,394,-277
1512180292,0.0373,-0.0478,0.2505,-31.62,-29.17,964.11,205,394,-277
1512180292,0.0015,-0.0471,0.2571,-31.74,-73.85,895.02,205,394,-277
1512180292,0.0148,0.0061,0.2549,-11.41,-138.85,948.97,205,394,-277
1512180292,-0.0312,-0.0213,0.2599,-7.75,-109.74,929.14,205,394,-277
1512180292,-0.0402,-0.0194,0.2587,-31.92,-125.61,992.61,198,398,-284
1512180292,-0.0507,-0.0198,0.2622,-31.68,-59.75,1019.04,198,398,-284
1512180292,-0.0554,-0.0716,0.2563,-0.55,-95.40,1022.64,198,398,-284
1512180292,-0.0531,-0.0603,0.2653,20.63,-114.26,943.24,198,398,-284
1512180292,-0.0049,0.0437,0.2622,73.73,-94.42,968.81,207,410,-275
1512180292,-0.0326,0.0101,0.2739,5.86,-115.66,1001.71,207,410,-275
1512180292,-0.0835,-0.0534,0.2740,9.22,-111.27,940.49,207,410,-275
1512180292,-0.0052,0.0041,0.2831,-17.70,-79.10,943.97,207,410,-275
1512180292,-0.0121,-0.0691,0.2767,-5.80,-88.01,958.19,207,410,-275
1512180292,0.0246,-0.0141,0.2746,40.04,-92.90,963.75,219,398,-284
1512180292,0.0052,-0.0117,0.2836,25.63,-104.61,990.30,219,398,-284
1512180292,0.0125,0.0130,0.2822,64.39,-89.84,1023.19,219,398,-284
1512180292,-0.0020,0.0089,0.2824,78.25,-130.80,1026.73,219,398,-284
1512180292,-0.0471,-0.0204,0.2859,55.30,-126.65,1022.34,219,398,-284
1512180292,-0.0119,0.0124,0.2916,51.70,-94.30,1017.52,228,407,-282
1512180292,0.0380,-0.0193,0.2947,26.18,-74.10,1072.14,228,407,-282
1512180292,-0.0855,-0.0116,0.3009,36.68,-121.28,1008.06,228,407,-282
1512180292,-0.0129,0.0531,0.3076,33.51,-85.45,968.81,228,407,-282
1512180292,-0.0029,0.0149,0.3116,26.49,-92.59,1007.39,226,412,-291
1512180292,-0.0027,-0.0180,0.3117,8.85,-116.15,979.19,226,412,-291
1512180292,-0.0044,0.0142,0.3176,-4.39,-89.78,956.73,226,412,-291
1512180292,-0.0152,0.0045,0.3160,6.23,-78.67,978.52,226,412,-291
1512180292,-0.0196,0.0051,0.3208,20.63,-100.83,1004.46,226,412,-291
1512180292,-0.0543,-0.0097,0.3206,40.89,-109.37,956.36,223,419,-280
1512180292,-0.0216,0.0096,0.3320,-17.33,-87.28,958.56,223,419,-280
1512180292,0.0577,0.0055,0.3228,46.14,-140.99,1007.87,223,419,-280
1512180292,-0.0044,-0.0149,0.3250,41.08,-105.22,978.58,223,419,-280
1512180292,-0.0449,-0.0033,0.3300,-1.16,-105.96,943.42,223,419,-280
1512180292,-0.0778,0.0017,0.3400,-13.67,-66.04,952.45,224,431,-296
1512180292,-0.0237,-0.0172,0.3392,14.95,-71.96,999.82,224,431,-296
1512180293,-0.0208,-0.0109,0.3352,8.06,-83.44,989.20,224,431,-296
1512180293,-0.0123,0.0184,0.3418,19.59,-88.13,954.35,224,431,-296
1512180293,-0.0097,0.0153,0.3398,45.72,-86.00,960.69,240,451,-301
1512180293,0.0758,0.0302,0.3441,-4.94,-32.17,1096.19,240,451,-301
1512180293,-0.0072,-0.0370,0.3396,41.75,-79.28,998.60,240,451,-301
1512180293,-0.0237,0.0044,0.3434,35.28,-70.19,1033.02,240,451,-301
1512180293,-0.0794,0.0096,0.3453,1.10,-93.93,938.42,240,451,-301
1512180293,-0.0901,0.0158,0.3446,-8.42,-116.03,986.39,242,456,-282
1512180293,-0.0338,0.0234,0.3481,26.98,-58.23,988.89,242,456,-282
1512180293,-0.0220,0.0465,0.3421,2.26,-151.12,931.52,242,456,-282
1512180293,-0.0142,-0.0051,0.3470,71.47,-153.63,906.74,242,456,-282
1512180293,-0.0017,0.0747,0.3431,46.51,-162.48,963.26,242,449,-286
1512180293,-0.0490,0.0515,0.3538,-20.32,-146.36,933.23,242,449,-286
1512180293,0.0101,-0.0246,0.3575,2.14,-70.50,895.02,242,449,-286
1512180293,0.0993,0.0425,0.3694,-83.31,-68.05,1018.80,242,449,-286
1512180293,0.0192,-0.0855,0.3734,-24.23,-63.54,971.86,242,449,-286
1512180293,0.1230,0.0545,0.3812,-17.09,-100.71,1000.55,251,465,-297
1512180293,0.1174,0.0160,0.3780,-11.72,-81.30,1035.28,251,465,-297
1512180293,0.1429,0.0226,0.3678,3.23,-121.09,1003.17,251,465,-297
1512180293,0.0065,0.0168,0.3627,-32.10,-80.93,961.55,251,465,-297
1512180293,0.0585,0.0260,0.3639,13.67,-59.33,1083.62,251,465,-297
1512180293,-0.0003,-0.0513,0.3654,-7.14,-80.57,1012.51,237,479,-291
1512180293,0.0328,-0.0369,0.3826,-23.19,-84.23,1014.40,237,479,-291
1512180293,-0.0763,0.0178,0.3830,37.05,-146.79,983.95,237,479,-291
1512180293,-0.0156,0.0676,0.3822,45.47,-146.97,1021.48,237,479,-291
1512180293,-0.0382,0.0270,0.3796,96.56,-148.99,995.06,242,481,-272
1512180293,0.0280,0.0465,0.3863,55.97,-140.44,1046.63,242,481,-272
1512180293,-0.2451,0.0206,0.3971,74.40,-197.94,937.26,242,481,-272
1512180293,-0.1479,0.0575,0.3973,43.40,-134.34,1018.80,242,481,-272
1512180293,-0.2105,0.0482,0.4095,5.62,-187.19,943.97,242,481,-272
1512180293,-0.1245,0.0553,0.4117,-54.75,-136.41,917.11,235,484,-296
1512180293,-0.0826,0.0838,0.4083,-46.08,-136.84,959.47,235,484,-296
1512180293,-0.0614,0.0509,0.4055,-9.64,-129.88,990.11,235,484,-296
1512180293,0.0423,0.0317,0.4121,-66.16,-107.91,1014.59,235,484,-296
1512180293,0.0790,0.0004,0.4125,-0.12,-100.04,1024.35,235,484,-296
1512180293,0.0854,0.0344,0.4131,33.69,-129.15,1050.23,240,504,-291
1512180293,0.0325,0.0079,0.4147,-41.14,-126.53,953.12,240,504,-291
1512180293,-0.0005,0.0980,0.4277,-18.31,-110.29,995.48,240,504,-291
1512180294,-0.0237,0.0236,0.4245,-58.11,-89.90,1027.83,240,504,-291
1512180294,-0.0028,-0.0068,0.4236,-28.44,-165.28,901.49,238,509,-282
1512180294,0.0601,0.0426,0.4292,-15.63,-90.33,903.20,238,509,-282
1512180294,0.1188,0.1059,0.4296,-33.63,-115.54,1059.81,238,509,-282
1512180294,0.1373,-0.0253,0.4320,-18.13,-44.19,1045.10,238,509,-282
1512180294,0.1025,-0.0643,0.4462,-9.70,-73.12,1051.09,238,509,-282
1512180294,0.1684,0.0265,0.4497,19.59,-21.55,1033.26,237,528,-291
1512180294,0.0606,0.0096,0.4478,-21.91,-79.77,1019.84,237,528,-291
1512180294,0.0481,-0.0342,0.4491,44.92,-65.67,967.10,237,528,-291
1512180294,0.0308,0.0579,0.4499,-18.80,-157.35,939.03,237,528,-291
1512180294,-0.0647,0.0073,0.4362,-15.38,-120.85,896.73,237,528,-291
1512180294,0.0056,0.0718,0.4354,-37.35,-82.76,937.38,230,542,-270
1512180294,-0.1253,-0.0146,0.4324,-13.49,-103.94,920.23,230,542,-270
1512180294,-0.0766,0.0639,0.4463,-63.35,-98.69,917.72,230,542,-270
1512180294,-0.0913,0.0502,0.4455,-67.87,-119.75,962.52,230,542,-270
1512180294,0.0164,-0.0099,0.4447,-16.66,-101.56,973.33,221,555,-282
1512180294,-0.0132,0.0198,0.4467,-3.66,-161.87,952.15,221,555,-282
1512180294,-0.0397,0.0342,0.4397,46.94,-120.18,963.62,221,555,-282
1512180294,0.0650,0.0302,0.4278,98.69,-142.33,1029.60,221,555,-282
1512180294,-0.0141,-0.0246,0.4320,-24.17,-149.90,931.76,221,555,-282
1512180294,-0.0100,0.0722,0.4245,22.40,-98.57,980.29,214,572,-279
1512180294,0.0071,0.0270,0.4270,6.84,-47.30,965.76,214,572,-279
1512180294,-0.0417,0.0294,0.4268,-49.87,-113.59,946.59,214,572,-279
1512180294,0.0398,0.0826,0.4277,18.98,-19.47,971.68,214,572,-279
1512180294,0.1047,0.0169,0.4241,-6.47,-18.86,1045.29,226,567,-284
1512180294,0.1943,0.0206,0.4252,5.07,-40.41,1005.49,226,567,-284
1512180294,0.1710,0.0173,0.4257,-43.76,-33.39,1044.07,226,567,-284
1512180294,0.1386,0.0290,0.4171,-52.61,-58.35,964.17,226,567,-284
1512180294,0.0912,0.0454,0.4157,17.46,-54.75,1004.94,226,567,-284
1512180294,0.0176,0.0097,0.4159,-42.91,-72.69,981.26,207,583,-282
1512180294,0.0360,0.0337,0.4194,-38.09,-17.40,960.75,207,583,-282
1512180294,0.0111,0.0174,0.4128,-19.90,-54.87,907.84,207,583,-282
1512180294,0.0676,0.0610,0.4140,-14.89,-65.31,1002.26,207,583,-282
1512180294,0.0353,0.0225,0.4096,-19.35,-84.05,1041.81,207,583,-282
1512180294,0.0036,0.0182,0.4007,-0.06,-123.35,996.40,205,588,-287
1512180294,-0.0358,0.0274,0.4040,-2.20,-50.17,937.38,205,588,-287
1512180294,-0.0274,0.0337,0.4036,-14.16,-85.75,948.30,205,588,-287
1512180294,-0.0668,-0.0107,0.4047,-32.10,-77.03,939.58,205,588,-287
1512180295,0.0350,0.0451,0.4047,4.52,-35.77,1013.98,193,594,-282
1512180295,0.0511,0.0037,0.4057,-79.47,-61.28,1005.31,193,594,-282
1512180295,-0.0004,-0.0027,0.4029,-24.90,-53.22,935.36,193,594,-282
1512180295,0.0589,0.0317,0.4025,-16.60,-68.48,992.74,193,594,-282
1512180295,-0.0603,-0.0158,0.4059,-19.04,-97.60,958.80,193,594,-282
1512180295,0.0178,0.0120,0.4069,-46.26,-44.62,990.60,195,617,-287
1512180295,-0.0095,0.0003,0.4013,-43.76,-74.04,991.52,195,617,-287
1512180295,-0.0041,0.0039,0.3984,-40.65,-70.74,1007.93,195,617,-287
1512180295,-0.0543,-0.0037,0.3907,2.56,-89.72,935.30,195,617,-287
1512180295,-0.0095,0.0382,0.4000,-7.20,-98.33,1033.51,195,617,-287
1512180295,-0.0716,0.0314,0.3894,-55.54,-50.72,987.43,179,632,-275
1512180295,-0.1057,0.0214,0.3879,-7.63,-15.01,1031.49,179,632,-275
1512180295,-0.1490,-0.0125,0.3834,-6.47,-47.06,1050.17,179,632,-275
1512180295,-0.2154,-0.0041,0.3875,2.01,-7.75,995.36,179,632,-275
1512180295,-0.1511,-0.0032,0.3794,-10.86,-32.23,1030.40,189,618,-282
1512180295,-0.2637,-0.0049,0.3867,-85.88,-65.43,1066.53,189,618,-282
1512180295,-0.3627,-0.0466,0.3790,-56.27,-89.48,947.33,189,618,-282
1512180295,-0.2844,0.0795,0.3803,-14.53,-115.42,1061.22,189,618,-282
1512180295,-0.3866,-0.0357,0.3734,29.48,-110.78,896.18,189,618,-282
1512180295,-0.2328,0.0634,0.3760,37.29,-108.22,1028.93,189,643,-299
1512180295,-0.2425,-0.0059,0.3814,-16.30,-37.11,985.90,189,643,-299
1512180295,-0.0678,-0.0341,0.3784,-25.15,-56.03,1000.49,189,643,-299
1512180295,-0.1032,0.0000,0.3626,26.25,-112.49,981.87,189,643,-299
1512180295,-0.0288,-0.0409,0.3770,-21.00,-80.81,961.12,182,618,-292
1512180295,0.0450,-0.0198,0.3714,-26.67,-117.19,959.78,182,618,-292
1512180295,0.0370,-0.0072,0.3714,29.72,-136.11,1002.20,182,618,-292
1512180295,-0.0067,-0.0358,0.3791,-63.54,-86.12,924.99,182,618,-292
1512180295,0.0305,-0.0065,0.3840,-63.72,-83.50,973.02,182,618,-292
1512180295,0.0332,-0.0507,0.3771,-41.02,-113.89,1011.54,180,645,-284
1512180295,-0.0072,-0.0578,0.3794,-69.58,-116.70,982.91,180,645,-284
1512180295,0.0405,0.0875,0.3722,14.22,-137.33,1054.63,180,645,-284
1512180295,-0.1270,-0.0394,0.3706,34.24,-199.52,995.24,180,645,-284
1512180295,0.0739,0.1566,0.3723,10.50,-35.34,1113.65,180,645,-284
1512180295,0.0754,0.1039,0.3597,52.80,-125.00,1132.75,175,657,-299
1512180295,0.0909,0.0812,0.3666,-44.07,-65.12,1035.22,175,657,-299
1512180295,0.1438,0.1667,0.3647,20.08,-31.37,1018.13,175,657,-299
1512180295,0.1662,0.1614,0.3657,-31.25,-57.31,1011.35,175,657,-299
1512180295,0.1972,0.1373,0.3811,-98.27,-37.17,1003.72,144,661,-296
1512180296,0.2017,0.1698,0.3780,-88.99,-55.42,926.70,144,661,-296
1512180296,0.2194,0.1474,0.3871,-120.79,-7.51,973.57,144,661,-296
1512180296,0.1880,0.1489,0.3818,-140.50,-46.45,909.42,144,661,-296
1512180296,0.1053,0.1196,0.3852,-166.75,-43.76,857.30,144,661,-296
1512180296,0.0987,0.0963,0.3674,-156.43,-36.68,950.93,144,664,-299
1512180296,0.0276,0.0372,0.3670,-117.61,-65.86,920.10,144,664,-299
1512180296,0.0033,0.0736,0.3671,-122.56,-83.19,951.48,144,664,-299
1512180296,-0.0411,0.0691,0.3743,-148.25,-71.17,947.45,144,664,-299
1512180296,-0.0638,0.0692,0.3692,-77.76,-97.53,1018.31,144,664,-299
1512180296,-0.0735,0.0340,0.3775,-104.49,-122.68,972.35,138,684,-287
1512180296,-0.0803,0.0453,0.3771,-111.39,-126.89,1016.97,138,684,-287
1512180296,-0.1479,0.0301,0.3814,-78.00,-129.64,973.21,138,684,-287
1512180296,-0.1222,0.0310,0.3828,-71.41,-137.94,1020.57,138,684,-287
1512180296,-0.1091,0.0302,0.3870,-62.19,-139.53,959.05,149,684,-308
1512180296,-0.0487,0.0445,0.3993,-97.17,-128.42,978.76,149,684,-308
1512180296,-0.0818,0.0284,0.4013,-137.15,-150.27,935.55,149,684,-308
1512180296,-0.0461,0.0543,0.3920,-83.92,-165.16,1005.00,149,684,-308
1512180296,-0.0893,0.0313,0.3949,-72.27,-164.31,971.56,149,684,-308
1512180296,-0.0654,0.0695,0.4065,-72.63,-23.19,1048.77,126,710,-306
1512180296,-0.0770,0.0511,0.4217,-172.36,-99.12,1069.40,126,710,-306
1512180296,-0.2101,-0.0872,0.4246,-120.54,-105.41,1052.73,126,710,-306
1512180296,-0.1779,-0.0368,0.4348,-118.04,-100.89,1025.45,126,710,-306
1512180296,-0.1545,-0.0322,0.4262,-142.76,-142.52,1047.00,126,710,-306
1512180296,-0.2008,-0.1318,0.4160,-97.11,-140.20,935.97,124,698,-308
1512180296,-0.1224,-0.0786,0.4107,-140.14,-96.25,993.84,124,698,-308
1512180296,-0.0280,-0.1372,0.4099,-124.33,-96.86,962.40,124,698,-308
1512180296,-0.0224,-0.1519,0.4035,-109.56,-103.09,987.12,124,698,-308
1512180296,-0.0270,-0.1173,0.3993,-62.32,-135.13,940.12,115,696,-299
1512180296,-0.0823,-0.0739,0.4064,-76.23,-128.42,987.37,115,696,-299
1512180296,-0.1389,-0.1135,0.4071,-45.23,-195.74,922.24,115,696,-299
1512180296,-0.0546,-0.0447,0.4093,15.99,-147.46,984.80,115,696,-299
1512180296,-0.0457,-0.0700,0.4175,-25.51,-200.44,1063.96,115,696,-299
1512180296,0.0023,-0.0823,0.4163,-29.30,-199.28,1043.33,105,706,-302
1512180296,0.0987,-0.0273,0.4113,-11.96,-219.30,1087.59,105,706,-302
1512180296,0.1664,-0.0300,0.3906,-38.76,-194.76,1104.37,105,706,-302
1512180296,0.2125,-0.0218,0.3727,-96.01,-167.72,986.69,105,706,-302
1512180296,0.2668,-0.0075,0.3669,-63.17,-139.83,999.76,101,692,-299
1512180297,0.2764,-0.0286,0.3732,-118.59,-76.35,934.08,101,692,-299
1512180297,0.2442,0.0036,0.3719,-116.52,-99.91,909.67,101,692,-299
1512180297,0.2012,0.0309,0.3755,-125.43,-90.27,898.01,101,692,-299
1512180297,0.1670,0.0087,0.3818,-174.56,-95.83,924.93,101,692,-299
1512180297,0.1080,0.0138,0.3799,-163.70,-65.31,932.92,79,701,-301
1512180297,0.1282,0.0301,0.3780,-189.15,-44.68,935.18,79,701,-301
1512180297,0.0977,-0.0073,0.3799,-182.86,-102.72,1028.69,79,701,-301
1512180297,0.0406,0.0196,0.3767,-134.77,-71.72,1015.69,79,701,-301
1512180297,0.0174,0.0077,0.3743,-158.39,-99.98,995.91,79,701,-301
1512180297,0.0305,0.0182,0.3755,-164.12,-101.38,1017.94,70,689,-299
1512180297,0.0329,0.0051,0.3760,-126.46,-102.48,996.58,70,689,-299
1512180297,0.0399,0.0108,0.3762,-163.94,-165.77,1056.40,70,689,-299
1512180297,-0.0422,0.0033,0.3774,-100.77,-166.56,941.22,70,689,-299
1512180297,0.0169,0.0116,0.3858,-128.97,-159.73,1045.10,72,705,-294
1512180297,-0.0152,-0.0127,0.3843,-77.33,-167.11,964.54,72,705,-294
1512180297,-0.0116,0.0209,0.3895,-77.03,-205.93,944.21,72,705,-294
1512180297,-0.0427,0.0133,0.3975,-98.63,-185.91,957.64,72,705,-294
1512180297,-0.0119,0.0431,0.3995,-91.61,-154.30,1047.97,72,705,-294
1512180297,-0.1365,0.0017,0.3981,-120.61,-178.83,963.01,52,699,-299
1512180297,-0.0867,0.0273,0.3995,-117.43,-163.45,933.72,52,699,-299
1512180297,-0.0021,0.0509,0.3988,-144.47,-152.83,1040.34,52,699,-299
1512180297,-0.0778,-0.0127,0.3968,-133.61,-140.93,931.95,52,699,-299
1512180297,0.0694,0.0402,0.3988,-112.30,-99.06,974.43,52,699,-299
1512180297,0.0732,-0.0019,0.3968,-101.20,-131.41,1042.42,35,696,-306
1512180297,0.0613,-0.0193,0.3919,-93.44,-112.06,998.54,35,696,-306
1512180297,0.1040,0.0095,0.3995,-114.81,-129.58,961.67,35,696,-306
1512180297,0.0599,0.0161,0.3936,-100.28,-147.95,1024.23,35,696,-306
1512180297,0.0838,0.0360,0.3918,-110.60,-136.47,1003.11,21,703,-306
1512180297,0.0583,0.0100,0.3925,-110.78,-112.43,1031.25,21,703,-306
1512180297,0.0553,0.0077,0.4000,-123.96,-107.06,960.02,21,703,-306
1512180297,0.0306,0.0160,0.4032,-148.44,-135.62,953.37,21,703,-306
1512180297,0.0430,0.0130,0.4044,-166.69,-113.65,958.50,21,703,-306
1512180297,0.0654,0.0206,0.4053,-161.25,-104.13,999.88,24,692,-306
1512180297,-0.0431,-0.0091,0.4044,-160.03,-161.68,984.56,24,692,-306
1512180297,-0.0282,0.0204,0.4053,-177.43,-80.99,921.94,24,692,-306
1512180297,-0.0406,0.0324,0.4011,-193.73,-141.30,952.94,24,692,-306
1512180297,-0.0475,0.0000,0.3977,-154.60,-160.77,991.39,-5,691,-301
1512180297,-0.0459,-0.0064,0.3992,-156.37,-113.46,926.51,-5,691,-301
1512180298,-0.0387,0.0091,0.4013,-165.10,-123.72,981.38,-5,691,-301
1512180298,-0.1256,-0.0368,0.4020,-199.34,-144.04,947.57,-5,691,-301
1512180298,-0.0846,0.0081,0.3997,-171.63,-113.83,954.35,-5,691,-301
1512180298,-0.0256,-0.0268,0.3983,-149.60,-163.94,999.51,-5,701,-297
1512180298,-0.0332,-0.0021,0.3907,-119.93,-200.32,1014.16,-5,701,-297
1512180298,-0.0288,0.0302,0.3918,-119.51,-165.41,956.54,-5,701,-297
1512180298,-0.0418,-0.0261,0.3999,-137.76,-199.46,1027.59,-5,701,-297
1512180298,-0.0241,0.0128,0.3949,-148.44,-138.61,940.49,-5,701,-297
1512180298,-0.0518,0.0214,0.3912,-131.35,-177.80,982.48,-14,696,-309
1512180298,-0.0350,0.0326,0.3890,-149.96,-125.73,1008.18,-14,696,-309
1512180298,-0.0285,-0.0121,0.3836,-109.62,-161.93,966.13,-14,696,-309
1512180298,-0.0413,0.0525,0.3903,-141.60,-178.28,1002.62,-14,696,-309
1512180298,-0.0727,0.0210,0.3848,-143.43,-183.23,1028.44,-10,692,-309
1512180298,-0.1003,-0.0025,0.3835,-114.75,-147.34,1023.62,-10,692,-309
1512180298,-0.0555,-0.0004,0.3771,-134.89,-211.43,939.27,-10,692,-309
1512180298,0.0005,0.0089,0.3839,-126.95,-131.23,997.50,-10,692,-309
1512180298,-0.0133,0.0120,0.3734,-133.91,-179.38,1045.04,-10,692,-309
1512180298,-0.0382,-0.0093,0.3661,-120.91,-201.72,1024.41,-17,685,-306
1512180298,0.0056,0.0779,0.3610,-63.66,-161.56,1005.92,-17,685,-306
1512180298,-0.0499,0.0077,0.3655,-166.02,-174.38,973.63,-17,685,-306
1512180298,0.0679,0.0001,0.3601,-120.79,-115.54,950.93,-17,685,-306
1512180298,0.0913,0.0421,0.3590,-150.82,-109.99,974.67,-17,685,-306
1512180298,0.0208,0.0013,0.3559,-185.00,-90.88,984.37,-26,680,-308
1512180298,0.0332,0.0068,0.3538,-170.04,-105.83,930.05,-26,680,-308
1512180298,0.0156,0.0318,0.3482,-145.51,-160.34,988.10,-26,680,-308
1512180298,-0.0028,0.0290,0.3405,-129.46,-102.48,975.40,-26,680,-308
1512180298,-0.0035,0.0000,0.3457,-148.19,-88.32,938.72,-65,680,-304
1512180298,0.0068,0.0141,0.3333,-151.55,-142.76,946.78,-65,680,-304
1512180298,-0.0120,0.0077,0.3328,-132.93,-117.98,932.31,-65,680,-304
1512180298,0.0244,-0.0064,0.3316,-182.74,-129.03,1005.74,-65,680,-304
1512180298,-0.0003,-0.0218,0.3205,-109.74,-159.00,954.71,-65,680,-304
1512180298,0.0112,0.0156,0.3201,-112.43,-125.12,964.11,-59,675,-296
1512180298,0.0035,-0.0200,0.3214,-151.43,-105.29,983.95,-59,675,-296
1512180298,0.0117,-0.0210,0.3127,-143.43,-135.62,964.54,-59,675,-296
1512180298,0.0254,0.0085,0.3076,-124.15,-81.91,925.90,-59,675,-296
1512180298,0.0193,0.0129,0.3020,-150.09,-144.35,1019.59,-66,675,-306
1512180298,-0.0509,-0.0264,0.3008,-151.43,-102.60,946.84,-66,675,-306
1512180298,-0.0008,0.0447,0.2993,-167.60,-118.53,1031.92,-66,675,-306
1512180299,-0.0759,-0.0282,0.2977,-168.70,-122.07,987.24,-66,675,-306
1512180299,0.0033,-0.0001,0.2906,-145.75,-101.81,970.34,-66,675,-306
1512180299,0.0430,0.0137,0.2888,-199.83,-83.56,984.86,-73,668,-306
1512180299,-0.0008,-0.0625,0.2814,-173.34,-95.09,924.19,-73,668,-306
1512180299,0.0382,-0.0212,0.2794,-207.76,-81.36,961.85,-73,668,-306
1512180299,-0.0009,-0.0282,0.2674,-187.56,-91.19,1023.99,-73,668,-306
1512180299,-0.0696,-0.0747,0.2571,-135.31,-108.52,964.11,-73,668,-306
1512180299,-0.0222,0.0023,0.2491,-125.61,-148.99,1006.84,-80,661,-296
1512180299,-0.0486,0.0084,0.2459,-138.92,-132.81,1023.62,-80,661,-296
1512180299,-0.0012,0.0111,0.2358,-74.83,-153.20,1007.51,-80,661,-296
1512180299,0.0113,0.0361,0.2322,-137.82,-122.62,1051.15,-80,661,-296
1512180299,-0.0636,-0.0357,0.2272,-135.86,-131.41,967.29,-94,657,-306
1512180299,-0.0160,-0.0060,0.2268,-149.41,-73.67,930.79,-94,657,-306
1512180299,0.0185,0.0092,0.2269,-194.58,-81.30,960.63,-94,657,-306
1512180299,-0.0258,-0.0049,0.2151,-162.84,-55.97,916.38,-94,657,-306
1512180299,0.1193,0.0418,0.2023,-146.85,-42.30,923.40,-94,657,-306
1512180299,0.1013,-0.0040,0.1993,-179.75,-53.28,988.28,-93,662,-291
1512180299,0.0727,-0.0012,0.1868,-126.10,-63.96,888.06,-93,662,-291
1512180299,0.0735,0.0193,0.1812,-149.78,-38.33,948.12,-93,662,-291
1512180299,0.0282,-0.0234,0.1779,-179.02,-63.42,941.71,-93,662,-291
1512180299,0.0205,-0.0314,0.1760,-161.19,-39.92,916.69,-93,662,-291
1512180299,0.1549,-0.0005,0.1703,-180.05,-17.21,972.41,-105,654,-309
1512180299,0.1040,-0.0521,0.1696,-186.83,-36.44,937.19,-105,654,-309
1512180299,0.0870,0.0252,0.1629,-198.36,-40.95,950.68,-105,654,-309
1512180299,0.1567,-0.0407,0.1655,-215.52,-1.10,1052.61,-105,654,-309
1512180299,0.1029,-0.0747,0.1474,-118.84,-29.17,982.79,-105,647,-306
1512180299,0.0647,-0.0216,0.1443,-143.68,-84.53,1001.46,-105,647,-306
1512180299,-0.0292,-0.0157,0.1358,-100.46,-76.78,922.55,-105,647,-306
1512180299,0.0186,0.0300,0.1393,-164.18,-59.51,995.24,-105,647,-306
1512180299,-0.0605,-0.0455,0.1409,-171.75,-54.99,954.71,-105,647,-306
1512180299,-0.0341,0.0041,0.1393,-102.42,-15.99,925.11,-117,641,-311
1512180299,-0.0111,-0.0201,0.1405,-136.05,-54.32,1039.79,-117,641,-311
1512180299,-0.0177,-0.0501,0.1350,-82.28,-53.28,1020.39,-117,641,-311
1512180299,0.0644,0.0089,0.1301,-133.61,-36.07,1012.33,-117,641,-311
1512180299,0.0670,-0.0306,0.1230,-106.93,-27.65,1013.49,-117,641,-311
1512180299,0.0908,0.0117,0.1166,-109.31,-11.54,996.28,-107,641,-308
1512180299,0.0419,-0.0185,0.1067,-106.75,-37.48,991.88,-107,641,-308
1512180299,-0.0277,-0.0574,0.1003,-108.52,-58.84,949.04,-107,641,-308
1512180300,-0.0048,0.0230,0.1015,-84.35,-34.67,927.19,-107,641,-308
1512180300,-0.0506,-0.0113,0.1032,-121.89,-69.89,999.63,-115,639,-316
1512180300,-0.0035,-0.0088,0.0909,-139.10,-23.80,893.01,-115,639,-316
1512180300,0.0076,0.0156,0.0872,-175.35,-50.23,910.34,-115,639,-316
1512180300,0.0573,-0.0156,0.0859,-180.42,19.59,946.53,-115,639,-316
1512180300,0.0370,-0.0005,0.0738,-97.66,3.42,931.09,-115,639,-316
1512180300,-0.0727,-0.0125,0.0694,-184.63,-59.33,923.89,-107,634,-297
1512180300,-0.0478,0.0563,0.0611,-158.69,-38.88,904.11,-107,634,-297
1512180300,-0.0253,0.0393,0.0523,-158.02,-22.89,943.60,-107,634,-297
1512180300,-0.0333,0.0234,0.0442,-116.21,3.36,960.02,-107,634,-297
1512180300,0.0001,0.0474,0.0398,-180.36,-8.18,1050.90,-115,643,-316
1512180300,-0.0991,-0.0570,0.0411,-114.32,-77.03,986.45,-115,643,-316
1512180300,-0.0919,0.0671,0.0282,-112.37,-21.42,990.66,-115,643,-316
1512180300,-0.0928,0.0154,0.0314,-130.55,-15.99,1012.94,-115,643,-316
1512180300,-0.0478,0.0192,0.0312,-102.66,58.35,1018.13,-115,643,-316
1512180300,-0.0647,-0.0017,0.0345,-132.20,4.03,945.31,-137,647,-313
1512180300,-0.0190,0.0177,0.0312,-141.54,-24.60,1003.85,-137,647,-313
1512180300,-0.0249,0.0076,0.0269,-94.97,-2.50,971.68,-137,647,-313
1512180300,-0.0218,0.0229,0.0248,-143.19,-14.22,1009.03,-137,647,-313
1512180300,-0.0509,-0.0324,0.0258,-152.53,31.49,957.46,-137,647,-313
1512180300,-0.0289,0.0117,0.0226,-129.33,13.31,968.38,-131,624,-304
1512180300,-0.0166,0.0095,0.0193,-164.06,-7.57,960.88,-131,624,-304
1512180300,-0.0509,0.0149,0.0180,-167.18,8.00,976.20,-131,624,-304
1512180300,-0.0699,-0.0067,0.0184,-191.10,-6.23,896.42,-131,624,-304
1512180300,0.1389,0.0241,0.0056,-150.63,-3.48,1012.39,-128,645,-308
1512180300,0.0959,0.0301,-0.0017,-159.06,60.73,962.16,-128,645,-308
1512180300,0.0822,-0.0555,0.0008,-113.46,105.96,975.40,-128,645,-308
1512180300,0.1527,-0.0309,0.0001,-127.14,52.98,1042.60,-128,645,-308
1512180300,0.1694,0.0052,-0.0047,-120.48,80.44,995.61,-128,645,-308
1512180300,0.1623,-0.0250,-0.0087,-117.19,55.79,995.97,-133,654,-313
1512180300,0.1137,-0.0547,-0.0071,-118.41,56.34,960.82,-133,654,-313
1512180300,0.0889,0.0368,-0.0197,-106.99,45.35,1000.55,-133,654,-313
1512180300,-0.0201,-0.0447,-0.0136,-131.65,23.07,1009.58,-133,654,-313
1512180300,-0.0325,-0.0173,-0.0216,-73.12,10.93,976.50,-133,654,-313
1512180300,-0.0846,0.0192,-0.0178,-123.96,3.60,953.92,-121,634,-308
1512180300,-0.0728,0.0313,-0.0185,-153.69,2.44,964.36,-121,634,-308
1512180300,-0.0274,-0.0144,-0.0240,-101.68,44.37,950.13,-121,634,-308
1512180301,0.0176,0.0057,-0.0270,-149.66,37.78,1003.66,-121,634,-308
1512180301,-0.0045,-0.0470,-0.0305,-93.38,48.71,964.42,-131,641,-308
1512180301,0.0590,-0.0068,-0.0262,-128.78,32.78,1078.43,-131,641,-308
1512180301,-0.1104,-0.0064,-0.0268,-113.10,-34.67,971.37,-131,641,-308
1512180301,-0.1088,0.0337,-0.0258,-99.00,14.16,948.18,-131,641,-308
1512180301,-0.1650,-0.0044,-0.0270,-100.34,-11.66,911.32,-131,641,-308
1512180301,-0.0458,0.0028,-0.0250,-126.71,15.14,938.48,-128,624,-321
1512180301,-0.0406,-0.0317,-0.0300,-107.60,4.03,942.20,-128,624,-321
1512180301,-0.0656,-0.0571,-0.0229,-127.93,21.00,931.70,-128,624,-321
1512180301,0.1362,-0.0321,-0.0217,-97.35,87.65,956.42,-128,624,-321
1512180301,0.2008,-0.0304,-0.0189,-132.08,89.60,994.87,-140,632,-319
1512180301,0.1494,-0.0578,-0.0154,-143.74,89.78,942.81,-140,632,-319
1512180301,0.1932,-0.0541,-0.0282,-90.64,121.83,1051.21,-140,632,-319
1512180301,0.1884,-0.0601,-0.0218,-148.25,102.97,1037.84,-140,632,-319
1512180301,0.1746,-0.0526,-0.0184,-163.70,92.22,998.90,-140,632,-319
1512180301,0.0462,-0.0348,-0.0325,-124.08,63.35,1003.05,-128,627,-308
1512180301,0.1117,0.0365,-0.0278,-117.07,54.87,1098.45,-128,627,-308
1512180301,0.0719,-0.0181,-0.0330,-77.21,94.36,1029.85,-128,627,-308
1512180301,-0.0712,0.0181,-0.0386,-17.70,8.79,975.83,-128,627,-308
1512180301,-0.0977,-0.0012,-0.0309,-67.26,-17.46,974.37,-128,627,-308
1512180301,-0.0087,0.0449,-0.0377,-29.66,53.89,1000.67,-128,627,-314
1512180301,0.0035,-0.0020,-0.0240,-93.75,79.47,981.69,-128,627,-314
1512180301,-0.1165,0.0012,-0.0305,-100.95,38.45,931.64,-128,627,-314
1512180301,-0.0811,0.0334,-0.0229,-74.52,51.21,945.25,-128,627,-314
1512180301,-0.0750,0.0116,-0.0282,-75.99,-34.97,1037.54,-142,624,-308
1512180301,-0.1425,0.0088,-0.0389,-58.17,-82.64,971.37,-142,624,-308
1512180301,-0.1029,0.0746,-0.0423,-26.98,-18.55,952.70,-142,624,-308
1512180301,-0.1377,0.0039,-0.0318,-116.76,43.70,976.38,-142,624,-308
1512180301,-0.1679,0.0236,-0.0357,-112.24,44.31,929.32,-142,624,-308
1512180301,-0.0997,-0.0025,-0.0329,-86.49,18.49,976.14,-133,632,-309
1512180301,-0.0939,-0.0076,-0.0269,-88.81,42.85,1022.16,-133,632,-309
1512180301,-0.0672,0.0265,-0.0313,6.10,40.16,987.49,-133,632,-309
1512180301,-0.1188,0.0437,-0.0225,-73.06,-55.73,986.82,-133,632,-309
1512180301,-0.2240,0.0080,-0.0208,-50.96,-25.02,899.60,-133,632,-309
1512180301,-0.1656,0.0847,-0.0206,-76.72,-46.20,984.99,-130,639,-286
1512180301,-0.2692,-0.0146,-0.0181,-119.51,-56.88,965.64,-130,639,-286
1512180301,-0.1913,0.0337,-0.0185,-75.74,-60.67,916.08,-130,639,-286
1512180301,-0.1991,0.0342,-0.0174,-75.13,-53.53,978.58,-130,639,-286
1512180302,-0.2396,0.0136,-0.0112,-95.52,-10.80,888.92,-126,636,-286
1512180302,0.0462,0.0224,-0.0109,-95.21,8.61,915.71,-126,636,-286
1512180302,-0.0482,-0.0385,-0.0079,-95.89,-26.73,950.07,-126,636,-286
1512180302,0.1161,-0.0128,-0.0053,-62.93,40.59,959.17,-126,636,-286
1512180302,0.1059,0.0430,-0.0188,-84.90,36.74,992.98,-126,636,-286
1512180302,0.0593,-0.0241,-0.0138,-76.42,28.02,1038.88,-124,631,-291
1512180302,0.0083,0.0080,-0.0176,-53.89,46.63,1025.09,-124,631,-291
1512180302,-0.0471,0.0337,-0.0001,-120.12,14.47,1005.07,-124,631,-291
1512180302,-0.0971,0.0134,-0.0104,-67.08,16.24,968.02,-124,631,-291
1512180302,-0.0708,0.0523,-0.0076,-137.21,23.80,979.61,-124,631,-291
1512180302,-0.0575,0.0019,-0.0068,-120.36,-1.71,982.54,-126,643,-296
1512180302,-0.0008,-0.0008,-0.0023,-149.60,86.79,930.24,-126,643,-296
1512180302,0.0246,-0.0368,-0.0028,-105.77,40.83,916.08,-126,643,-296
1512180302,0.1202,-0.0142,-0.0012,-112.12,60.85,995.67,-126,643,-296
1512180302,0.1342,0.0037,-0.0036,-92.90,49.74,1025.09,-121,652,-304
1512180302,0.0897,-0.0096,-0.0015,-118.10,-18.92,1064.51,-121,652,-304
1512180302,0.0262,-0.0091,-0.0069,-41.02,70.62,966.67,-121,652,-304
1512180302,-0.0128,0.0575,-0.0004,-78.31,38.76,1065.61,-121,652,-304
1512180302,-0.0567,-0.0654,-0.0007,-53.59,31.62,986.45,-121,652,-304
1512180302,0.1225,0.0329,0.0069,-69.76,94.06,1015.69,-115,639,-313
1512180302,-0.0232,0.0045,0.0071,-76.29,21.12,975.28,-115,639,-313
1512180302,0.0092,0.0217,0.0081,-77.15,33.75,975.83,-115,639,-313
1512180302,0.0201,0.0173,0.0067,-63.17,55.91,993.53,-115,639,-313
1512180302,0.0206,-0.0591,0.0121,-96.37,19.04,1000.55,-115,639,-316
1512180302,-0.0710,-0.0152,0.0157,-83.62,6.96,941.71,-115,639,-316
1512180302,-0.0216,0.0298,0.0127,-78.00,32.17,1013.67,-115,639,-316
1512180302,-0.0702,-0.0389,0.0193,-85.51,-22.71,931.95,-115,639,-316
1512180302,0.0241,0.0547,0.0216,-102.84,15.69,1017.33,-115,639,-316
1512180302,-0.0300,0.0111,0.0180,-56.27,4.52,1035.77,-117,631,-308
1512180302,-0.0458,-0.0160,0.0245,-84.66,1.59,1032.78,-117,631,-308
1512180302,-0.0603,-0.0294,0.0265,-93.32,32.90,937.19,-117,631,-308
1512180302,0.0095,0.0208,0.0318,-79.47,-10.80,969.06,-117,631,-308
1512180302,-0.0398,0.0278,0.0328,-55.24,-21.06,1022.83,-117,631,-308
1512180302,-0.1104,0.0067,0.0245,-22.95,-38.88,917.30,-114,617,-297
1512180302,-0.0583,0.0365,0.0362,-69.95,-39.49,1074.22,-114,617,-297
1512180302,-0.1570,-0.0485,0.0414,-70.92,-55.30,899.78,-114,617,-297
1512180302,-0.0519,0.0443,0.0381,-12.02,0.00,914.31,-114,617,-297
1512180302,-0.0694,0.0156,0.0471,-80.20,-56.46,977.54,-122,632,-309
1512180303,-0.0981,0.0109,0.0466,-74.83,-22.95,885.56,-122,632,-309
1512180303,0.0747,0.0593,0.0473,-85.45,18.68,988.95,-122,632,-309
1512180303,0.0241,-0.0631,0.0458,-102.78,8.79,1018.13,-122,632,-309
1512180303,0.0510,-0.0029,0.0559,-107.79,48.46,1005.19,-122,632,-309
1512180303,-0.0662,-0.0056,0.0515,-79.22,-11.35,964.97,-107,645,-314
1512180303,-0.0056,0.0225,0.0577,-78.74,-13.31,1029.79,-107,645,-314
1512180303,-0.0265,0.0160,0.0577,-39.98,-16.17,921.26,-107,645,-314
1512180303,-0.0091,0.0340,0.0594,-87.83,-39.06,993.41,-107,645,-314
1512180303,-0.0680,-0.0518,0.0621,-27.47,-16.30,913.02,-107,645,-314
1512180303,0.0241,0.0071,0.0774,-94.48,3.85,965.33,-115,636,-296
1512180303,0.0233,-0.0224,0.0750,-112.61,16.11,929.14,-115,636,-296
1512180303,0.0838,0.0134,0.0807,-90.21,18.37,1062.87,-115,636,-296
1512180303,0.0000,-0.0391,0.0812,-62.74,-10.56,954.10,-115,636,-296
1512180303,0.0164,-0.0043,0.0883,-70.43,-9.52,1007.39,-107,631,-311
1512180303,0.0103,-0.0088,0.0839,-44.68,-12.94,1035.28,-107,631,-311
1512180303,0.0438,-0.0407,0.0900,-68.60,-25.63,1056.40,-107,631,-311
1512180303,-0.0451,-0.0340,0.0937,-78.67,-69.21,987.43,-107,631,-311
1512180303,-0.0498,0.0387,0.0988,-70.68,-60.55,980.04,-107,631,-311
1512180303,-0.1292,0.0015,0.0972,-27.28,-120.97,1011.05,-126,632,-309
1512180303,-0.0614,0.0063,0.1111,-75.44,-35.28,943.79,-126,632,-309
1512180303,-0.0767,-0.0041,0.1089,-97.90,-83.07,964.60,-126,632,-309
1512180303,-0.1097,-0.0154,0.1096,-46.81,-80.99,898.68,-126,632,-309
1512180303,0.0174,0.0101,0.1173,-71.47,-24.11,974.18,-121,631,-318
1512180303,-0.0288,-0.0244,0.1212,-36.87,-81.97,949.58,-121,631,-318
1512180303,-0.0593,0.0109,0.1162,-20.26,-134.46,940.61,-121,631,-318
1512180303,-0.0387,0.0362,0.1245,-46.57,-71.78,954.83,-121,631,-318
1512180303,-0.0744,-0.0093,0.1205,-29.24,-93.75,941.96,-121,631,-318
1512180303,0.0406,-0.0053,0.1401,-73.67,-4.15,953.31,-135,620,-311
1512180303,0.0305,0.0081,0.1329,-66.28,-86.55,951.54,-135,620,-311
1512180303,0.0762,-0.0285,0.1329,-54.08,-35.34,1018.92,-135,620,-311
1512180303,0.0325,0.0000,0.1369,-34.79,-66.53,900.63,-135,620,-311
1512180303,-0.0127,0.0189,0.1353,-83.92,-99.49,976.32,-135,620,-311
1512180303,-0.0824,0.0156,0.1270,-42.36,-89.05,909.85,-130,618,-313
1512180303,-0.0475,0.0206,0.1418,-66.22,-87.65,977.42,-130,618,-313
1512180303,-0.1423,-0.0253,0.1467,-85.45,-65.67,854.13,-130,618,-313
1512180303,-0.0249,0.0766,0.1477,-83.92,-50.48,968.14,-130,618,-313
1512180303,-0.1060,-0.0258,0.1485,-156.07,-105.90,953.31,-121,617,-291
1512180303,-0.0236,-0.0059,0.1418,-71.47,-75.74,946.04,-121,617,-291
1512180304,0.0431,0.0196,0.1466,-54.81,-29.17,947.02,-121,617,-291
1512180304,0.0507,-0.0405,0.1497,-76.11,-27.89,1023.93,-121,617,-291
1512180304,0.0663,-0.0129,0.1395,-31.74,-57.07,975.65,-121,617,-291
1512180304,0.0445,-0.0012,0.1573,-56.03,-64.21,1046.69,-131,613,-297
1512180304,-0.0557,-0.0418,0.1607,-72.45,-62.99,967.35,-131,613,-297
1512180304,0.0230,0.0454,0.1571,-14.47,-95.58,1004.15,-131,613,-297
1512180304,0.0282,0.0096,0.1562,-73.49,-94.48,1058.35,-131,613,-297
1512180304,0.0156,-0.0376,0.1598,-39.43,-28.99,965.76,-131,613,-297
1512180304,0.0842,-0.0229,0.1605,-59.69,-2.01,971.19,-130,604,-289
1512180304,0.1256,-0.0322,0.1652,-50.29,-41.08,1016.48,-130,604,-289
1512180304,0.0780,-0.0205,0.1621,-100.89,-20.51,1013.24,-130,604,-289
1512180304,0.1313,-0.0017,0.1719,-59.51,-32.65,1057.50,-130,604,-289
1512180304,0.0525,-0.0107,0.1716,-19.04,-68.73,1037.23,-133,615,-302
1512180304,0.0534,0.0308,0.1720,-16.17,-51.57,985.84,-133,615,-302
1512180304,0.0486,0.0348,0.1692,-61.40,-84.90,1048.89,-133,615,-302
1512180304,-0.0017,0.0093,0.1648,-43.15,-84.35,998.84,-133,615,-302
1512180304,0.0515,0.0831,0.1667,-73.43,-84.41,1003.78,-133,615,-302
1512180304,0.0169,0.0304,0.1724,-111.69,-79.90,933.47,-138,602,-297
1512180304,0.0316,0.0878,0.1676,-79.10,-25.63,873.17,-138,602,-297
1512180304,0.0205,-0.0085,0.1694,-105.41,-33.69,946.96,-138,602,-297
1512180304,0.0035,-0.0019,0.1658,-77.21,-20.87,903.63,-138,602,-297
1512180304,0.0502,-0.0284,0.1744,-101.26,-16.24,956.18,-138,602,-297
1512180304,0.0064,-0.0506,0.1748,-75.38,-50.23,958.80,-140,608,-302
1512180304,0.0325,0.0096,0.1703,-79.90,-94.18,929.44,-140,608,-302
1512180304,-0.0111,0.0172,0.1815,-98.82,-101.26,940.00,-140,608,-302
1512180304,-0.0111,0.0108,0.1723,-40.47,-98.57,961.61,-140,608,-302
1512180304,-0.0157,-0.0376,0.1715,-58.11,-142.40,1034.91,-144,604,-313
1512180304,-0.0663,-0.0286,0.1723,-28.38,-105.41,1014.34,-144,604,-313
1512180304,-0.0788,-0.0222,0.1802,-24.05,-117.37,1028.20,-144,604,-313
1512180304,-0.1388,0.0217,0.1903,-73.91,-134.34,992.92,-144,604,-313
1512180304,-0.0557,0.0403,0.1883,-37.17,-109.07,1017.94,-144,604,-313
1512180304,-0.0490,0.0322,0.1917,-56.64,-118.23,1031.86,-149,592,-314
1512180304,0.0196,-0.0181,0.2016,-56.34,-68.73,981.26,-149,592,-314
1512180304,-0.0041,-0.0105,0.2033,-47.18,-62.01,937.93,-149,592,-314
1512180304,-0.0111,-0.0161,0.2048,-63.84,-91.19,985.78,-149,592,-314
1512180304,0.0639,-0.0248,0.2008,-49.99,-26.25,928.28,-140,608,-296
1512180304,0.1128,0.0000,0.1967,-53.77,-77.94,981.20,-140,608,-296
1512180305,0.0437,-0.0007,0.1890,-36.62,-73.30,924.07,-140,608,-296
1512180305,0.0373,0.0015,0.1858,15.14,-98.39,1034.48,-140,608,-296
1512180305,0.0686,0.0028,0.1941,-0.67,-43.27,1058.29,-140,608,-296
1512180305,0.0413,-0.0485,0.1876,-26.37,-110.11,1063.42,-154,590,-299
1512180305,0.1228,-0.0246,0.1985,-42.05,-51.57,976.44,-154,590,-299
1512180305,0.1270,0.0132,0.1972,-43.88,-93.99,994.38,-154,590,-299
1512180305,0.0941,0.0213,0.2000,-33.26,-78.92,995.06,-154,590,-299
1512180305,-0.0008,0.0003,0.2101,-64.21,-60.67,977.60,-154,590,-299
1512180305,0.0024,0.0141,0.2071,-37.84,-80.57,991.58,-175,587,-302
1512180305,-0.0341,0.0301,0.2133,-75.38,-118.59,964.90,-175,587,-302
1512180305,0.0537,0.0330,0.2125,-56.52,-104.55,902.34,-175,587,-302
1512180305,0.0678,0.0875,0.2028,-31.80,-129.21,911.44,-175,587,-302
1512180305,0.0273,0.0655,0.2024,-84.05,-101.68,883.00,-177,581,-297
1512180305,0.1067,0.0372,0.2093,-56.40,-77.76,928.83,-177,581,-297
1512180305,0.1065,0.0055,0.2125,-62.07,-19.17,1008.54,-177,581,-297
1512180305,0.0820,-0.0111,0.2205,-78.98,-50.84,1042.54,-177,581,-297
1512180305,0.0643,-0.0177,0.2173,-70.68,-31.43,1020.45,-177,581,-297
1512180305,0.0004,0.0437,0.2162,-57.50,-55.36,1077.82,-179,569,-302
1512180305,-0.0172,0.0176,0.2111,-54.20,-111.21,1075.81,-179,569,-302
1512180305,-0.0248,-0.0063,0.2168,-46.75,-102.29,983.83,-179,569,-302
1512180305,-0.0205,0.0172,0.2144,-48.22,-154.11,970.46,-179,569,-302
1512180305,-0.1269,0.0312,0.2228,-79.83,-159.91,932.31,-179,569,-302
1512180305,-0.1286,0.0174,0.2297,-47.24,-167.66,936.89,-172,580,-292
1512180305,-0.0638,0.0506,0.2336,-51.09,-90.03,979.74,-172,580,-292
1512180305,0.0296,-0.0081,0.2337,-83.19,-101.14,960.88,-172,580,-292
1512180305,0.0469,-0.0166,0.2410,-83.62,-53.89,998.17,-172,580,-292
1512180305,0.0751,0.0446,0.2439,-30.52,-35.40,1048.52,-168,569,-299
1512180305,0.0182,-0.0214,0.2433,-93.93,-56.34,1070.07,-168,569,-299
1512180305,-0.0246,-0.0077,0.2423,-83.86,-25.39,1017.70,-168,569,-299
1512180305,0.0101,0.0245,0.2380,-93.08,-59.20,1051.09,-168,569,-299
1512180305,-0.0105,-0.0224,0.2334,-41.87,-83.25,996.28,-168,569,-299
1512180305,0.0401,0.0202,0.2317,-20.08,-115.42,1001.46,-173,571,-304
1512180305,-0.0356,-0.0023,0.2373,-59.20,-122.25,920.90,-173,571,-304
1512180305,0.0180,-0.0072,0.2392,-45.96,-121.77,976.81,-173,571,-304
1512180305,0.0403,-0.0158,0.2397,-49.26,-150.88,992.37,-173,571,-304
1512180305,-0.0075,-0.0154,0.2378,-28.26,-128.42,918.03,-173,571,-304
1512180305,0.0365,-0.0004,0.2402,-41.38,-136.47,918.88,-195,553,-291
1512180305,0.0788,0.0198,0.2451,-95.70,-46.88,940.73,-195,553,-291
1512180306,0.0518,-0.0385,0.2459,-95.70,-19.90,882.63,-195,553,-291
1512180306,0.0076,0.0342,0.2487,-73.18,-31.74,964.72,-195,553,-291
1512180306,-0.0023,-0.0113,0.2478,-66.77,-40.95,1006.71,-172,565,-299
1512180306,0.0009,-0.0104,0.2501,-83.62,-99.49,1038.88,-172,565,-299
1512180306,-0.0340,0.0061,0.2445,-55.66,-102.97,953.06,-172,565,-299
1512180306,0.0317,0.0487,0.2402,-46.57,-135.19,1054.02,-172,565,-299
1512180306,-0.0704,0.0111,0.2394,-38.57,-100.10,960.45,-172,565,-299
1512180306,-0.0615,0.0041,0.2401,-59.75,-142.70,993.47,-158,551,-299
1512180306,-0.0726,-0.0158,0.2417,-59.45,-140.26,966.37,-158,551,-299
1512180306,-0.0459,0.0648,0.2438,11.90,-186.95,990.30,-158,551,-299
1512180306,-0.0344,0.0450,0.2438,-17.70,-169.25,1014.34,-158,551,-299
1512180306,0.0378,0.0619,0.2485,-34.73,-131.84,999.51,-158,551,-299
1512180306,0.0067,0.0366,0.2517,-60.06,-75.87,978.21,-172,544,-296
1512180306,0.0340,0.0133,0.2569,-80.38,-57.62,1024.05,-172,544,-296
1512180306,0.0019,-0.0342,0.2557,-54.99,-67.38,1012.08,-172,544,-296
1512180306,0.0383,-0.0141,0.2507,-31.86,-62.62,991.52,-172,544,-296
1512180306,0.0394,0.0465,0.2477,-75.93,-113.65,985.29,-175,537,-306
1512180306,0.0111,0.0337,0.2459,-30.27,-63.66,933.41,-175,537,-306
1512180306,0.0180,0.0411,0.2430,-37.78,-99.06,1017.33,-175,537,-306
1512180306,-0.0113,-0.0277,0.2443,10.07,-90.64,999.27,-175,537,-306
1512180306,-0.0148,-0.0208,0.2469,3.36,-74.77,1021.30,-175,537,-306
1512180306,-0.0409,-0.0193,0.2478,-21.42,-101.93,947.51,-198,539,-318
1512180306,-0.0217,-0.0021,0.2582,-108.15,-102.17,939.82,-198,539,-318
1512180306,-0.0478,0.0394,0.2534,-76.48,-59.27,914.92,-198,539,-318
1512180306,-0.0527,0.0152,0.2571,-73.30,-106.08,958.74,-198,539,-318
1512180306,-0.0667,0.0048,0.2609,-68.91,-78.61,918.76,-198,539,-318
1512180306,-0.0040,0.0369,0.2559,-56.27,-77.70,985.90,-191,539,-297
1512180306,0.0019,-0.0248,0.2554,-75.32,-99.12,955.81,-191,539,-297
1512180306,0.0202,0.0150,0.2549,-68.97,-108.22,968.14,-191,539,-297
1512180306,-0.0015,0.0172,0.2547,-43.95,-81.42,950.13,-191,539,-297
1512180306,0.0386,0.0154,0.2518,-54.32,-79.53,1023.25,-196,520,-299
1512180306,0.0097,-0.0071,0.2478,-37.84,-113.34,979.19,-196,520,-299
1512180306,0.0381,0.0158,0.2513,-48.46,-106.08,980.65,-196,520,-299
1512180306,0.0639,0.0111,0.2497,-73.18,-76.72,1011.96,-196,520,-299
1512180306,0.0578,0.0105,0.2461,-58.41,-80.44,1005.49,-196,520,-299
1512180306,0.0057,-0.0250,0.2422,-65.80,-139.28,977.84,-191,514,-314
1512180306,0.0021,0.0149,0.2446,-65.06,-90.39,972.41,-191,514,-314
1512180306,0.0150,0.0204,0.2443,-91.31,-63.35,1012.70,-191,514,-314
1512180307,0.0000,-0.0113,0.2376,-49.74,-102.91,978.58,-191,514,-314
1512180307,0.0494,0.0361,0.2421,-58.23,-74.10,991.82,-182,509,-316
1512180307,0.0025,-0.0103,0.2366,-58.04,-115.48,984.99,-182,509,-316
1512180307,-0.0530,0.0272,0.2394,-86.55,-85.21,971.44,-182,509,-316
1512180307,-0.0329,0.0222,0.2300,-62.13,-86.18,954.65,-182,509,-316
1512180307,-0.0039,-0.0079,0.2368,-69.27,-96.80,1021.79,-182,509,-316
1512180307,-0.0237,-0.0157,0.2272,-19.84,-121.09,956.48,-188,497,-301
1512180307,-0.0117,0.0112,0.2415,-72.69,-67.14,1023.07,-188,497,-301
1512180307,-0.0892,-0.0228,0.2346,-61.95,-102.54,962.22,-188,497,-301
1512180307,-0.0344,0.0003,0.2312,-70.37,-103.45,980.90,-188,497,-301
1512180307,-0.0261,-0.0317,0.2309,-86.24,-86.91,1005.74,-188,497,-301
1512180307,0.0411,0.0132,0.2272,-58.53,-93.51,1012.02,-188,504,-287
1512180307,0.0260,0.0017,0.2230,-44.37,-73.61,955.75,-188,504,-287
1512180307,-0.0136,0.0209,0.2212,-32.35,-110.11,983.76,-188,504,-287
1512180307,-0.0381,-0.0134,0.2261,-78.25,-90.15,951.35,-188,504,-287
1512180307,0.0205,0.0273,0.2270,-63.66,-62.56,971.68,-186,495,-306
1512180307,0.0700,0.0242,0.2272,-86.61,-60.73,1021.00,-186,495,-306
1512180307,0.0450,0.0071,0.2205,-61.95,-53.10,986.76,-186,495,-306
1512180307,0.0450,0.0200,0.2147,-31.56,-98.08,1004.27,-186,495,-306
1512180307,-0.0390,0.0308,0.2170,-54.38,-64.51,987.18,-186,495,-306
1512180307,-0.0166,0.0178,0.2160,-37.78,-97.84,1002.20,-180,479,-301
1512180307,-0.0587,0.0264,0.2077,-60.55,-122.92,974.98,-180,479,-301
1512180307,-0.0880,0.0453,0.2036,-52.06,-129.03,992.49,-180,479,-301
1512180307,-0.0397,0.0181,0.2115,-52.19,-76.72,958.56,-180,479,-301
1512180307,-0.0051,0.0031,0.2089,-98.88,-64.82,972.66,-180,479,-301
1512180307,0.0181,-0.0144,0.2039,-80.87,-92.65,955.38,-196,481,-296
1512180307,0.0442,0.0104,0.2000,-51.76,-74.83,958.01,-196,481,-296
1512180307,0.0197,0.0277,0.1947,-58.59,-104.55,1004.15,-196,481,-296
1512180307,-0.0107,-0.0076,0.1948,-51.39,-75.13,973.02,-196,481,-296
1512180307,0.1019,0.0663,0.1981,-83.68,-59.39,1088.87,-182,491,-292
1512180307,0.0238,-0.0463,0.1955,-61.95,-24.90,1014.34,-182,491,-292
1512180307,-0.0660,0.0248,0.2029,-86.79,-38.02,1039.73,-182,491,-292
1512180307,-0.0249,0.0206,0.2032,-95.03,-56.21,993.29,-182,491,-292
1512180307,-0.0047,0.0053,0.1937,-63.54,-67.75,992.00,-182,491,-292
1512180307,-0.0494,0.0127,0.1899,-60.79,-80.26,938.29,-193,491,-313
1512180307,0.0028,0.0137,0.1875,-38.21,-83.80,994.20,-193,491,-313
1512180307,0.0176,0.0160,0.1872,-36.87,-88.26,1004.21,-193,491,-313
1512180307,-0.0182,0.0103,0.1836,-51.94,-122.74,979.31,-193,491,-313
1512180308,-0.0734,0.0425,0.1759,-21.97,-149.84,939.76,-180,472,-308
1512180308,-0.0577,0.0643,0.1842,-78.55,-80.02,1003.54,-180,472,-308
1512180308,-0.1450,-0.0100,0.1880,-129.27,-65.61,955.20,-180,472,-308
1512180308,-0.0712,-0.0028,0.1883,-87.28,-37.60,968.02,-180,472,-308
1512180308,0.0121,0.0028,0.1820,-77.58,-64.21,1014.95,-180,472,-308
1512180308,0.0068,-0.0209,0.1795,-90.27,-85.82,976.26,-177,465,-304
1512180308,0.0449,0.0142,0.1824,-65.80,-38.88,940.73,-177,465,-304
1512180308,0.0863,0.0376,0.1758,-66.65,-75.01,1057.92,-177,465,-304
1512180308,-0.0427,-0.0541,0.1666,-70.68,-78.00,989.32,-177,465,-304
1512180308,-0.0266,0.0008,0.1724,-94.48,-61.22,959.59,-177,465,-304
1512180308,-0.0640,-0.0057,0.1695,-60.67,-69.46,973.08,-182,474,-302
1512180308,-0.0141,-0.0008,0.1630,-68.18,-60.12,1034.61,-182,474,-302
1512180308,-0.0081,-0.0284,0.1698,-65.73,-49.19,930.85,-182,474,-302
1512180308,0.0310,0.0320,0.1660,-68.91,-33.63,929.02,-182,474,-302
1512180308,-0.0028,-0.0188,0.1569,-69.76,-92.29,955.57,-182,474,-302
1512180308,-0.0176,-0.0200,0.1591,-77.76,-67.08,1014.53,-191,444,-301
1512180308,-0.0067,-0.0402,0.1606,-76.11,-48.46,962.22,-191,444,-301
1512180308,0.0627,-0.0182,0.1563,-67.69,-3.11,1017.40,-191,444,-301
1512180308,0.0870,-0.0205,0.1535,-78.55,-13.18,987.06,-191,444,-301
1512180308,-0.0258,0.0188,0.1483,-73.18,-66.10,1032.41,-179,460,-292
1512180308,-0.0836,0.0072,0.1425,-31.19,-82.21,990.66,-179,460,-292
1512180308,-0.1176,-0.0105,0.1463,-48.03,-59.94,952.27,-179,460,-292
1512180308,-0.0534,0.0305,0.1453,-118.96,-61.10,952.64,-179,460,-292
1512180308,-0.0590,-0.0109,0.1398,-90.39,-14.89,932.43,-179,460,-292
1512180308,0.0317,-0.0146,0.1395,-97.60,-18.62,976.87,-195,451,-294
1512180308,0.0835,-0.0489,0.1332,-100.77,-4.58,1023.62,-195,451,-294
1512180308,0.1324,-0.0313,0.1246,-33.02,9.58,967.22,-195,451,-294
1512180308,0.1864,0.0285,0.1234,-78.92,-20.26,1086.98,-195,451,-294
1512180308,-0.0248,-0.0762,0.1206,-82.76,1.53,986.15,-172,456,-316
1512180308,0.1035,0.0453,0.1137,-33.94,15.69,1023.01,-172,456,-316
1512180308,-0.0142,-0.0458,0.1120,-116.88,-32.10,1006.10,-172,456,-316
1512180308,-0.1297,0.0141,0.1033,-73.67,-96.80,946.90,-172,456,-316
1512180308,-0.0804,0.0296,0.1048,-52.12,-27.71,936.34,-172,456,-316
1512180308,-0.0056,0.0282,0.1029,-75.01,-33.45,1019.41,-179,442,-302
1512180308,0.0409,0.0525,0.0977,-11.47,24.72,958.68,-179,442,-302
1512180308,-0.0316,0.0075,0.0997,-28.08,-14.28,984.86,-179,442,-302
1512180308,-0.0667,-0.0222,0.0959,-78.61,15.75,965.64,-179,442,-302
1512180308,-0.0301,-0.0021,0.0948,-64.27,29.48,1000.31,-179,442,-302
1512180309,-0.0109,-0.0020,0.0925,-95.46,17.76,1029.24,-166,447,-314
1512180309,-0.0380,0.0134,0.0776,-61.89,-49.38,1006.65,-166,447,-314
1512180309,-0.0728,0.0229,0.0698,6.90,-2.93,960.14,-166,447,-314
1512180309,-0.0655,0.0834,0.0702,-55.48,-47.73,1025.09,-166,447,-314
1512180309,-0.1731,-0.0739,0.0614,-56.70,21.67,917.85,-147,453,-316
1512180309,0.0004,0.0224,0.0634,-46.63,-9.64,1020.02,-147,453,-316
1512180309,-0.0668,-0.0462,0.0606,-90.33,5.55,929.26,-147,453,-316
1512180309,-0.0129,0.0248,0.0578,-71.17,-21.36,957.03,-147,453,-316
1512180309,0.0035,0.0397,0.0530,-59.45,17.88,1037.66,-147,453,-316
1512180309,-0.0748,-0.0160,0.0489,-71.84,-19.04,1024.17,-161,442,-309
1512180309,-0.2121,-0.0196,0.0503,-35.83,-19.41,869.32,-161,442,-309
1512180309,-0.1190,0.0537,0.0534,-40.89,-40.95,962.77,-161,442,-309
1512180309,-0.2009,0.0314,0.0541,-83.56,-47.73,956.18,-161,442,-309
1512180309,0.0397,0.0205,0.0561,-89.29,4.64,969.67,-168,442,-306
1512180309,-0.0189,-0.0173,0.0485,-92.71,-48.89,1008.97,-168,442,-306
1512180309,0.0184,-0.0461,0.0443,-108.28,-67.38,1011.23,-168,442,-306
1512180309,-0.0543,-0.0149,0.0349,-23.25,-42.91,894.84,-168,442,-306
1512180309,-0.0290,0.0350,0.0281,-56.34,-54.38,986.45,-168,442,-306
1512180309,-0.0156,0.0650,0.0330,-30.64,23.38,950.62,-166,437,-311
1512180309,0.0250,0.0589,0.0294,-62.26,10.56,987.79,-166,437,-311
1512180309,-0.0252,0.0129,0.0265,-81.91,7.87,961.49,-166,437,-311
1512180309,-0.0453,-0.0043,0.0254,-57.01,53.96,965.52,-166,437,-311
1512180309,-0.0237,-0.0085,0.0313,-75.44,30.40,1033.26,-166,437,-311
1512180309,0.0032,-0.0281,0.0320,-81.54,-6.35,1077.09,-163,437,-318
1512180309,-0.0461,-0.0574,0.0282,-60.73,31.92,885.56,-163,437,-318
1512180309,0.0297,0.0370,0.0308,-51.64,-34.36,1040.16,-163,437,-318
1512180309,0.0115,-0.0923,0.0297,-46.45,0.06,920.17,-163,437,-318
1512180309,0.0084,-0.0385,0.0253,-44.56,-42.24,864.99,-158,421,-296
1512180309,-0.0277,-0.0001,0.0264,-37.11,-29.54,987.18,-158,421,-296
1512180309,0.0510,-0.0792,0.0308,-48.65,17.40,957.89,-158,421,-296
1512180309,0.0530,-0.0081,0.0330,-72.20,-55.05,991.39,-158,421,-296
1512180309,0.0044,0.0240,0.0305,-43.46,-31.43,965.15,-158,421,-296
1512180309,0.0451,0.0051,0.0269,-41.99,4.82,1006.71,-154,435,-296
1512180309,0.0150,-0.0300,0.0352,-56.40,-10.13,967.59,-154,435,-296
1512180309,0.0324,-0.0201,0.0344,-60.24,1.77,974.12,-154,435,-296
1512180309,0.0667,-0.0194,0.0348,-55.18,27.89,981.87,-154,435,-296
1512180309,0.0907,-0.0060,0.0284,-22.22,-7.20,959.23,-154,435,-296
1512180310,0.1368,0.0174,0.0282,-39.86,-16.05,974.30,-156,419,-297
1512180310,0.0923,0.0330,0.0248,-41.69,19.65,1000.61,-156,419,-297
1512180310,0.0407,-0.0225,0.0232,-55.36,42.91,987.00,-156,419,-297
1512180310,0.0499,-0.0309,0.0277,-67.87,84.29,1015.93,-156,419,-297
1512180310,0.0807,-0.0170,0.0253,-66.65,27.16,995.91,-158,438,-302
1512180310,0.0955,-0.0055,0.0264,-44.49,8.85,998.11,-158,438,-302
1512180310,0.0004,0.0622,0.0200,-44.49,-51.94,1024.41,-158,438,-302
1512180310,-0.0581,0.0491,0.0196,-12.45,-32.47,947.08,-158,438,-302
1512180310,-0.0376,0.0244,0.0256,-56.40,29.97,965.58,-158,438,-302
1512180310,-0.0530,-0.0232,0.0276,-79.41,37.72,973.51,-168,446,-316
1512180310,-0.0072,-0.0410,0.0324,-57.62,33.81,960.75,-168,446,-316
1512180310,-0.0242,0.0272,0.0213,-47.55,-25.27,998.84,-168,446,-316
1512180310,0.0067,0.0610,0.0281,-36.80,-30.88,1037.41,-168,446,-316
1512180310,-0.0643,0.0254,0.0308,-28.69,-29.97,978.21,-168,446,-316
1512180310,-0.0241,0.0353,0.0340,-47.30,-42.18,1018.98,-159,430,-304
1512180310,-0.0795,-0.0381,0.0364,-43.88,-10.68,937.62,-159,430,-304
1512180310,0.0009,0.0314,0.0459,-72.02,11.17,981.45,-159,430,-304
1512180310,0.0011,-0.0089,0.0402,-30.21,-38.70,992.00,-159,430,-304
1512180310,-0.0354,0.0019,0.0465,-30.40,-33.26,970.34,-165,446,-313
1512180310,-0.0019,0.0308,0.0451,-54.02,-26.06,992.19,-165,446,-313
1512180310,-0.0417,-0.0188,0.0471,-65.80,-10.86,931.27,-165,446,-313
1512180310,-0.0284,-0.0204,0.0518,-32.53,8.12,916.44,-165,446,-313
1512180310,0.0154,-0.0027,0.0506,-29.79,-46.26,941.71,-165,446,-313
1512180310,-0.0206,0.0120,0.0506,-18.19,-64.39,953.19,-161,438,-309
1512180310,0.0835,0.0549,0.0539,-34.48,-57.07,979.98,-161,438,-309
1512180310,0.0007,-0.0001,0.0530,-29.60,-59.27,967.53,-161,438,-309
1512180310,0.0230,0.0415,0.0535,-17.21,-20.20,989.44,-161,438,-309
1512180310,-0.0635,-0.0173,0.0651,-29.72,-34.18,974.37,-173,444,-301
1512180310,-0.0779,0.0197,0.0672,-31.49,-61.58,988.83,-173,444,-301
1512180310,-0.0614,0.0467,0.0656,-15.44,-67.81,957.95,-173,444,-301
1512180310,0.0286,0.0389,0.0699,-12.15,-32.65,918.33,-173,444,-301
1512180310,0.0770,0.0682,0.0711,-29.91,-55.79,984.19,-173,444,-301
1512180310,0.0320,-0.0189,0.0784,-52.55,-1.46,950.56,-175,438,-313
1512180310,0.0703,-0.0679,0.0842,-43.70,8.91,919.01,-175,438,-313
1512180310,0.1015,-0.0009,0.0854,-15.56,-4.27,951.90,-175,438,-313
1512180310,0.0374,-0.0117,0.0933,-14.65,-69.76,942.81,-175,438,-313
1512180310,0.0764,0.0274,0.0956,-32.29,-102.72,988.04,-175,438,-313
1512180310,0.1023,0.0422,0.0955,18.74,-61.89,957.95,-173,430,-318
1512180311,0.0329,-0.0104,0.1035,-39.73,-93.93,940.49,-173,430,-318
1512180311,0.0060,-0.0161,0.1033,-17.76,-26.98,928.83,-173,430,-318
1512180311,0.0105,-0.0091,0.1015,-40.83,-4.21,1019.04,-173,430,-318
1512180311,-0.0222,-0.0716,0.1145,-73.36,8.67,1010.68,-168,417,-323
1512180311,0.0314,-0.0164,0.1160,-36.93,3.91,977.54,-168,417,-323
1512180311,-0.0019,-0.0225,0.1194,-60.55,-55.73,978.76,-168,417,-323
1512180311,0.0057,-0.0246,0.1249,-11.96,-10.93,925.96,-168,417,-323
1512180311,0.0224,-0.0150,0.1290,0.61,-21.06,989.20,-168,417,-323
1512180311,-0.0130,-0.0541,0.1278,-26.79,-68.48,1056.09,-179,417,-313
1512180311,-0.1346,-0.0418,0.1326,24.29,-109.13,971.56,-179,417,-313
1512180311,-0.0913,0.0004,0.1344,6.84,-95.15,951.29,-179,417,-313
1512180311,-0.0851,0.0218,0.1438,-18.07,-94.79,931.27,-179,417,-313
1512180311,-0.0483,0.0457,0.1407,20.63,-101.14,911.25,-179,417,-313
1512180311,0.0306,0.0373,0.1511,3.54,-60.73,1053.65,-179,396,-299
1512180311,0.0168,-0.0298,0.1530,4.82,-31.80,1030.94,-179,396,-299
1512180311,-0.0710,-0.0192,0.1589,26.37,-68.85,946.35,-179,396,-299
1512180311,-0.0310,0.0321,0.1642,-29.30,-47.30,979.55,-179,396,-299
1512180311,-0.0246,0.0346,0.1603,-17.76,-45.96,971.25,-177,405,-294
1512180311,-0.0398,0.0391,0.1571,2.56,-67.14,986.69,-177,405,-294
1512180311,0.0109,0.0101,0.1611,-41.32,-47.30,947.88,-177,405,-294
1512180311,-0.0119,-0.0125,0.1595,-49.50,-24.78,859.19,-177,405,-294
1512180311,0.0483,0.0598,0.1595,-17.03,-28.32,982.12,-177,405,-294
1512180311,-0.0623,-0.0028,0.1686,-30.88,-16.85,986.39,-179,400,-299
1512180311,-0.1064,0.0209,0.1630,-14.77,-75.87,922.36,-179,400,-299
1512180311,-0.0814,0.0517,0.1704,-44.56,-49.99,1017.33,-179,400,-299
1512180311,-0.1656,-0.0027,0.1648,-30.03,-81.12,895.39,-179,400,-299
1512180311,-0.0820,0.0768,0.1702,-57.92,-108.89,1012.94,-193,400,-306
1512180311,-0.1318,0.0770,0.1538,-2.50,-84.53,987.98,-193,400,-306
1512180311,-0.1051,0.0222,0.1695,-25.02,-91.06,1035.03,-193,400,-306
1512180311,-0.0816,0.0101,0.1716,-35.22,-40.89,954.59,-193,400,-306
1512180311,-0.0682,0.0130,0.1808,-33.08,-54.69,976.20,-193,400,-306
1512180311,-0.0280,-0.0234,0.1816,-0.49,-51.21,922.85,-165,396,-309
1512180311,0.0125,0.0418,0.1824,-11.35,-48.52,961.85,-165,396,-309
1512180311,-0.0140,0.0033,0.1898,-27.95,-73.06,954.90,-165,396,-309
1512180311,0.1047,0.0048,0.1872,-6.59,-27.95,975.46,-165,396,-309
1512180311,0.1185,-0.0119,0.1878,-46.20,-47.24,987.00,-165,396,-309
1512180311,0.0583,-0.0087,0.1808,18.80,-45.78,1005.13,-163,394,-304
1512180311,0.0260,-0.0036,0.1894,20.63,-56.40,1030.21,-163,394,-304
1512180312,-0.0146,-0.0108,0.2029,-36.19,-45.29,975.22,-163,394,-304
1512180312,0.0153,0.0589,0.2028,-30.58,-53.59,920.53,-163,394,-304
1512180312,0.0386,0.0234,0.1981,-15.75,-66.16,1001.83,-166,384,-297
1512180312,0.0409,0.0092,0.2013,-11.66,-49.99,993.35,-166,384,-297
1512180312,0.1044,0.0244,0.2025,2.93,-7.20,1029.36,-166,384,-297
1512180312,0.0535,0.0103,0.1981,19.90,-75.38,1030.46,-166,384,-297
1512180312,0.0425,0.0059,0.1983,-2.20,-55.24,1027.10,-166,384,-297
1512180312,0.0289,0.0574,0.2061,-19.53,-19.96,1021.91,-154,371,-316
1512180312,-0.0356,0.0449,0.2087,-68.18,6.53,991.58,-154,371,-316
1512180312,-0.0969,-0.0177,0.2139,-45.59,-27.28,932.62,-154,371,-316
1512180312,-0.1364,0.0639,0.2059,-14.71,-74.28,965.88,-154,371,-316
1512180312,-0.1601,-0.0107,0.2221,-66.35,-45.41,940.25,-154,371,-316
1512180312,-0.1099,0.0294,0.2230,-27.65,-68.73,970.83,-144,371,-299
1512180312,-0.0988,0.0349,0.2228,-9.64,-122.38,1025.33,-144,371,-299
1512180312,-0.1651,-0.0256,0.2364,-46.69,-95.34,968.69,-144,371,-299
1512180312,-0.0822,0.0511,0.2258,-27.28,-115.78,984.80,-144,371,-299
1512180312,-0.0716,-0.0348,0.2265,-7.26,-119.14,961.73,-142,373,-294
1512180312,-0.0230,-0.0254,0.2381,-29.66,-73.36,898.99,-142,373,-294
1512180312,0.1241,0.0198,0.2305,-12.08,-61.58,998.96,-142,373,-294
1512180312,0.0411,-0.0554,0.2376,-39.12,-86.00,932.98,-142,373,-294
1512180312,0.1048,-0.0104,0.2356,-12.15,-95.95,958.92,-142,373,-294
1512180312,0.0762,-0.0060,0.2422,-42.18,-68.24,992.13,-152,363,-308
1512180312,-0.0277,-0.0495,0.2470,-32.35,-134.95,910.52,-152,363,-308
1512180312,0.0812,0.0153,0.2494,-38.39,-62.26,969.12,-152,363,-308
1512180312,0.1064,-0.0044,0.2453,-40.22,-65.37,1017.27,-152,363,-308
1512180312,0.0858,-0.0715,0.2474,-52.12,-14.22,892.03,-152,363,-308
1512180312,0.2027,0.0575,0.2405,-41.38,-68.91,1103.03,-149,349,-301
1512180312,0.0626,-0.0352,0.2483,-51.39,-23.01,1019.10,-149,349,-301
1512180312,0.1067,0.0168,0.2443,-31.25,-80.26,1053.71,-149,349,-301
1512180312,-0.0370,0.0334,0.2394,22.52,-106.63,1012.57,-149,349,-301
1512180312,0.0189,0.0806,0.2474,-3.17,-124.82,1052.25,-135,359,-314
1512180312,-0.0233,0.0804,0.2506,-63.78,-74.40,990.72,-135,359,-314
1512180312,-0.0433,0.0383,0.2469,-34.91,-76.48,1052.25,-135,359,-314
1512180312,-0.0237,0.0073,0.2626,-52.43,-71.29,1037.41,-135,359,-314
1512180312,0.0342,0.0414,0.2662,-8.24,-56.27,1055.36,-135,359,-314
1512180312,-0.0188,0.0433,0.2794,-52.00,-8.06,1024.54,-128,359,-311
1512180312,-0.0808,-0.0671,0.2768,-39.55,-78.61,964.42,-128,359,-311
1512180312,-0.0433,0.0029,0.2784,-74.04,-54.20,939.39,-128,359,-311
1512180313,-0.0453,0.0349,0.2720,-70.50,-83.01,930.18,-128,359,-311
1512180313,-0.0860,-0.0284,0.2660,-53.10,-114.62,943.48,-131,352,-301
1512180313,-0.0107,0.0224,0.2639,-49.44,-96.44,947.88,-131,352,-301
1512180313,-0.0218,0.0246,0.2618,-36.93,-114.50,987.73,-131,352,-301
1512180313,-0.0041,0.0197,0.2718,-51.39,-89.90,1031.86,-131,352,-301
1512180313,-0.0463,0.0152,0.2762,-39.86,-83.98,953.61,-131,352,-301
1512180313,-0.0345,-0.0125,0.2792,-41.99,-101.56,996.77,-122,340,-296
1512180313,-0.0727,0.0217,0.2858,-26.79,-89.54,950.99,-122,340,-296
1512180313,-0.0550,0.0093,0.2858,-32.78,-142.82,965.27,-122,340,-296
1512180313,-0.0514,0.0716,0.2803,-23.44,-130.55,910.58,-122,340,-296
1512180313,-0.0551,0.0115,0.2782,-19.53,-140.87,903.32,-107,331,-277
1512180313,-0.0694,0.0205,0.2824,-52.25,-98.21,875.31,-107,331,-277
1512180313,-0.0631,0.0591,0.2879,-87.95,-146.91,1065.43,-107,331,-277
1512180313,-0.1192,-0.0407,0.2836,-31.37,-142.33,1044.98,-107,331,-277
1512180313,-0.0659,0.0045,0.2908,7.39,-162.29,1019.84,-107,331,-277
1512180313,0.0330,0.0699,0.2807,50.23,-151.18,1028.87,-122,350,-296
1512180313,0.0096,-0.0015,0.2846,10.74,-191.47,1016.72,-122,350,-296
1512180313,-0.0112,0.0119,0.2851,20.32,-173.77,1002.81,-122,350,-296
1512180313,-0.0664,0.0181,0.2961,10.68,-120.67,957.09,-122,350,-296
1512180313,-0.0710,-0.0180,0.3031,-63.17,-171.39,1006.59,-122,350,-296
1512180313,-0.0642,0.0409,0.3121,-39.73,-151.86,921.75,-100,334,-291
1512180313,-0.0889,0.0439,0.3125,-9.52,-196.96,995.54,-100,334,-291
1512180313,-0.0430,0.0561,0.3060,-3.85,-131.65,989.38,-100,334,-291
1512180313,-0.0639,-0.0016,0.3143,-26.12,-169.49,954.41,-100,334,-291
1512180313,-0.0531,0.0481,0.3198,-39.92,-156.80,957.34,-114,338,-297
1512180313,-0.0771,0.0017,0.3216,-47.85,-172.79,983.28,-114,338,-297
1512180313,-0.0494,-0.0032,0.3301,-90.03,-188.60,941.89,-114,338,-297
1512180313,-0.0313,0.0482,0.3194,-71.11,-173.83,879.82,-114,338,-297
1512180313,-0.0381,0.0519,0.3188,-66.53,-137.57,1007.26,-114,338,-297
1512180313,-0.0016,-0.0378,0.3129,-44.19,-146.67,978.88,-98,333,-286
1512180313,0.0431,-0.0197,0.3213,-61.04,-102.97,1005.55,-98,333,-286
1512180313,0.0638,-0.0614,0.3216,-23.86,-128.60,994.26,-98,333,-286
1512180313,0.0871,0.0127,0.3202,-4.27,-121.40,958.98,-98,333,-286
1512180313,0.1549,0.0240,0.3193,-14.89,-111.51,993.47,-98,333,-286
1512180313,0.1758,-0.0204,0.3181,11.78,-98.14,1039.67,-89,310,-294
1512180313,0.1401,-0.0430,0.3221,10.13,-84.53,957.95,-89,310,-294
1512180313,0.0429,0.0059,0.3336,-4.21,-83.19,1023.99,-89,310,-294
1512180314,-0.0226,-0.0348,0.3348,-18.62,-147.28,996.28,-89,310,-294
1512180314,-0.0738,-0.0041,0.3381,-70.25,-116.70,968.26,-80,322,-289
1512180314,-0.0674,0.0670,0.3310,-9.95,-151.86,975.34,-80,322,-289
1512180314,-0.0674,0.0344,0.3258,5.49,-144.53,999.69,-80,322,-289
1512180314,-0.0715,-0.0322,0.3337,-19.47,-207.46,973.75,-80,322,-289
1512180314,-0.0442,0.0419,0.3409,-35.40,-120.79,908.75,-80,322,-289
1512180314,-0.1139,-0.0241,0.3368,-34.36,-203.67,966.49,-79,306,-287
1512180314,-0.0935,0.0650,0.3450,7.26,-166.63,957.95,-79,306,-287
1512180314,-0.1481,0.0132,0.3446,-18.31,-217.29,971.25,-79,306,-287
1512180314,-0.1409,0.0310,0.3447,33.02,-187.50,960.21,-79,306,-287
1512180314,-0.0961,-0.0040,0.3541,13.43,-221.86,866.03,-68,303,-284
1512180314,-0.1053,0.0132,0.3590,9.95,-191.83,951.54,-68,303,-284
1512180314,-0.1081,0.0686,0.3457,7.45,-188.42,1016.78,-68,303,-284
1512180314,-0.1666,-0.0346,0.3495,-4.46,-226.62,900.15,-68,303,-284
1512180314,-0.0795,0.0826,0.3474,31.86,-190.55,1002.08,-68,303,-284
1512180314,-0.0945,0.0067,0.3546,0.43,-127.50,1036.32,-73,308,-272
1512180314,-0.1743,0.0357,0.3613,4.21,-183.11,980.59,-73,308,-272
1512180314,-0.1262,0.0354,0.3603,15.63,-164.06,978.88,-73,308,-272
1512180314,-0.0963,0.0238,0.3579,48.83,-156.01,1001.83,-73,308,-272
1512180314,-0.0778,0.0234,0.3593,11.41,-181.03,981.51,-73,308,-272
1512180314,-0.0956,0.0386,0.3623,61.95,-161.13,946.04,-45,304,-282
1512180314,-0.0506,0.0603,0.3738,-23.56,-133.30,1002.01,-45,304,-282
1512180314,-0.0951,0.0044,0.3764,-18.19,-138.67,921.39,-45,304,-282
1512180314,0.0111,0.0258,0.3724,32.47,-159.18,944.27,-45,304,-282
1512180314,0.0197,0.0341,0.3758,12.15,-157.41,988.53,-43,306,-280
1512180314,-0.0847,-0.0218,0.3847,-22.09,-195.13,935.49,-43,306,-280
1512180314,-0.0336,0.0791,0.3834,25.39,-143.55,942.44,-43,306,-280
1512180314,0.1439,-0.0320,0.3792,-22.40,-113.34,984.92,-43,306,-280
1512180314,0.1418,-0.0005,0.3823,16.30,-122.50,986.27,-43,306,-280
1512180314,0.1145,0.0312,0.3944,-13.73,-104.00,1000.18,-42,304,-299
1512180314,0.1176,-0.0253,0.3864,38.51,-112.61,1017.70,-42,304,-299
1512180314,0.1497,0.0418,0.3899,23.01,-70.25,1018.37,-42,304,-299
1512180314,0.1534,-0.0067,0.3903,17.40,-86.98,1006.41,-42,304,-299
1512180314,0.1336,-0.0099,0.3895,31.25,-101.44,1033.39,-42,304,-299
1512180314,0.1329,0.0081,0.3936,33.33,-91.92,951.54,-15,289,-297
1512180314,0.0931,0.0278,0.3894,21.97,-87.10,998.17,-15,289,-297
1512180314,0.0796,0.0104,0.3936,45.41,-125.55,963.01,-15,289,-297
1512180314,0.0284,0.0209,0.3925,19.04,-166.20,946.90,-15,289,-297
1512180315,0.0847,0.0451,0.3923,49.13,-111.63,987.61,-22,292,-304
1512180315,0.0473,0.0298,0.3928,74.83,-142.64,1010.38,-22,292,-304
1512180315,-0.0522,0.0044,0.3973,23.86,-154.42,911.19,-22,292,-304
1512180315,0.1095,0.0161,0.3971,-3.54,-53.41,944.21,-22,292,-304
1512180315,0.0858,0.0449,0.3924,-12.33,-116.39,1012.57,-22,292,-304
1512180315,-0.0260,-0.0585,0.4003,19.84,-121.22,898.93,-1,299,-301
1512180315,-0.0134,0.0658,0.4037,-0.06,-118.96,981.87,-1,299,-301
1512180315,0.0503,-0.0185,0.4028,-14.95,-105.90,965.58,-1,299,-301
1512180315,0.0545,-0.0154,0.3999,52.55,-105.10,980.22,-1,299,-301
1512180315,0.0848,0.0511,0.3991,77.39,-106.08,1002.75,-1,299,-301
1512180315,0.0306,-0.0345,0.3997,79.47,-78.12,965.21,8,278,-291
1512180315,0.1357,0.0383,0.3902,94.42,-92.22,1057.92,8,278,-291
1512180315,0.1043,0.0041,0.3838,95.89,-82.28,1046.14,8,278,-291
1512180315,-0.0783,0.0025,0.3867,43.76,-77.21,1006.35,8,278,-291
1512180315,-0.0521,0.0196,0.3868,57.86,-102.05,970.58,1,292,-297
1512180315,-0.0617,0.0108,0.3916,106.69,-62.13,1017.27,1,292,-297
1512180315,-0.1296,0.0141,0.3977,67.99,-99.43,937.19,1,292,-297
1512180315,-0.1000,0.0052,0.3997,76.90,-140.44,906.19,1,292,-297
1512180315,-0.0792,0.0474,0.4007,117.31,-119.93,943.18,1,292,-297
1512180315,0.0521,0.0445,0.3948,68.85,-114.14,995.48,33,292,-301
1512180315,-0.0019,-0.0121,0.3870,138.18,-138.61,979.25,33,292,-301
1512180315,0.0260,0.0192,0.3912,68.18,-89.78,1017.76,33,292,-301
1512180315,-0.0051,0.0021,0.3960,60.18,-88.75,1036.74,33,292,-301
1512180315,-0.0357,0.0174,0.3951,65.98,-97.60,973.94,31,294,-296
1512180315,0.0380,0.0364,0.3907,95.46,-78.31,1008.06,31,294,-296
1512180315,0.0394,0.0093,0.3964,63.23,-49.07,983.28,31,294,-296
1512180315,-0.0383,0.0084,0.3953,73.24,-64.76,981.38,31,294,-296
1512180315,-0.0368,0.0000,0.3925,56.52,-49.68,930.66,31,294,-296
1512180315,0.0000,0.0036,0.4021,47.00,-73.36,974.06,42,290,-299
1512180315,0.0322,-0.0238,0.3943,87.40,-73.36,900.33,42,290,-299
1512180315,0.0466,0.0188,0.4008,54.63,-119.45,964.66,42,290,-299
1512180315,-0.0414,0.0052,0.4043,55.85,-87.77,895.57,42,290,-299
1512180315,0.0889,0.0272,0.4060,15.01,-73.43,971.68,54,292,-304
1512180315,0.0137,-0.0372,0.3955,51.88,-120.85,989.56,54,292,-304
1512180315,0.0387,0.0172,0.3931,64.45,-155.64,976.01,54,292,-304
1512180315,-0.0035,-0.0013,0.4032,59.94,-74.95,935.91,54,292,-304
1512180315,0.1137,0.0285,0.3972,109.13,-51.70,1050.35,54,292,-304
1512180315,0.0533,-0.0550,0.4027,15.50,-73.73,994.75,63,290,-292
1512180316,0.0948,-0.0209,0.4060,49.74,-30.94,932.62,63,290,-292
1512180316,0.0843,-0.0218,0.4013,66.53,-95.64,996.64,63,290,-292
1512180316,0.0064,-0.0322,0.4091,19.71,-68.79,957.46,63,290,-292
1512180316,0.0579,-0.0256,0.4048,51.15,-97.17,1007.75,63,290,-292
1512180316,0.0609,0.0028,0.4036,73.79,-81.12,1038.76,70,297,-296
1512180316,0.0145,-0.0240,0.4056,31.01,-133.36,980.10,70,297,-296
1512180316,-0.0253,0.0513,0.4031,34.30,-97.35,986.27,70,297,-296
1512180316,-0.0149,0.0025,0.4016,79.53,-61.77,1016.78,70,297,-296
1512180316,0.0160,-0.0381,0.4085,66.22,-45.47,987.67,70,297,-296
1512180316,0.1184,0.0039,0.4092,76.78,-64.64,995.36,79,289,-304
1512180316,0.0489,-0.0250,0.4091,71.11,-46.20,961.36,79,289,-304
1512180316,0.0748,-0.0269,0.4172,1.46,-79.77,954.71,79,289,-304
1512180316,0.0668,0.0085,0.4169,32.17,-74.40,1003.42,79,289,-304
1512180316,-0.0277,-0.0522,0.4101,17.94,-101.07,1012.27,110,296,-304
1512180316,-0.0503,-0.0220,0.4073,102.48,-93.20,984.01,110,296,-304
1512180316,-0.0089,0.0276,0.4017,160.46,-154.17,1011.41,110,296,-304
1512180316,0.0795,0.0294,0.4127,50.42,-55.91,1085.57,110,296,-304
1512180316,-0.1161,0.0534,0.4091,45.65,-198.30,1012.45,110,296,-304
1512180316,-0.0415,-0.0013,0.4075,123.11,-28.38,863.95,98,304,-289
1512180316,0.0501,0.1008,0.4041,137.21,-124.02,1064.82,98,304,-289
1512180316,-0.0587,-0.0189,0.4101,18.92,-74.52,943.66,98,304,-289
1512180316,-0.0194,0.0541,0.4240,98.39,-81.36,1029.79,98,304,-289
1512180316,-0.0551,-0.0008,0.4286,37.48,-88.93,989.20,98,304,-289
1512180316,-0.0579,-0.0186,0.4357,29.60,-87.04,906.13,115,315,-299
1512180316,0.0605,0.0959,0.4325,0.43,-127.50,983.64,115,315,-299
1512180316,0.0621,-0.0549,0.4306,18.37,-62.26,944.52,115,315,-299
1512180316,0.1296,0.0109,0.4260,72.27,-130.07,1013.92,115,315,-299
1512180316,0.0605,-0.0511,0.4297,-1.95,-107.30,952.33,117,310,-277
1512180316,0.1112,-0.0228,0.4306,40.10,-89.90,1050.35,117,310,-277
1512180316,0.1341,0.0064,0.4290,20.08,-63.66,1016.54,117,310,-277
1512180316,0.1562,-0.0360,0.4245,98.94,-90.09,1034.36,117,310,-277
1512180316,0.1606,0.0096,0.4216,55.66,-90.39,996.15,117,310,-277
1512180316,-0.0284,0.0185,0.4165,119.63,-78.98,990.11,128,317,-297
1512180316,-0.0069,-0.0242,0.4186,81.79,-74.95,987.79,128,317,-297
1512180316,0.0365,0.0019,0.4202,17.94,-68.66,1044.31,128,317,-297
1512180316,-0.0144,-0.0372,0.4185,60.97,-61.65,959.29,128,317,-297
1512180316,-0.0754,0.0356,0.4171,35.03,-163.88,1033.94,138,313,-287
1512180317,-0.1052,-0.0129,0.4151,100.65,-144.53,942.81,138,313,-287
1512180317,-0.0643,0.0515,0.4245,33.87,-123.90,1055.91,138,313,-287
1512180317,-0.1577,-0.0272,0.4230,68.73,-129.27,929.14,138,313,-287
1512180317,-0.1182,0.0005,0.4244,24.29,-170.47,943.54,138,313,-287
1512180317,-0.1402,-0.0176,0.4194,106.69,-143.55,935.67,159,320,-294
1512180317,0.0803,0.0270,0.4185,54.26,-137.45,1021.61,159,320,-294
1512180317,0.0154,-0.0502,0.4212,40.04,-118.59,1000.55,159,320,-294
1512180317,0.0470,0.0399,0.4059,106.69,-139.10,964.17,159,320,-294
1512180317,0.0015,0.0182,0.4180,34.61,-140.44,997.50,159,320,-294
1512180317,-0.0068,0.0115,0.4245,42.36,-49.01,929.81,156,334,-291
1512180317,0.1149,0.0365,0.4161,67.81,-46.51,1064.88,156,334,-291
1512180317,0.1253,-0.0771,0.4236,-65.67,-23.25,984.56,156,334,-291
1512180317,0.1012,-0.0316,0.4113,67.75,-46.14,929.20,156,334,-291
1512180317,0.1450,0.0538,0.4234,36.50,-90.15,978.09,161,329,-292
1512180317,0.0481,0.0113,0.4220,30.88,-107.54,965.52,161,329,-292
1512180317,0.1810,0.0290,0.4163,84.17,-70.37,998.72,161,329,-292
1512180317,0.0913,-0.0525,0.4297,-21.85,-103.70,984.19,161,329,-292
1512180317,0.0884,0.0035,0.4266,23.50,-109.25,933.35,161,329,-292
1512180317,0.0716,0.0205,0.4205,56.40,-81.30,1041.50,180,342,-294
1512180317,0.0033,-0.0570,0.4252,26.31,-154.48,913.94,180,342,-294
1512180317,0.0583,0.0601,0.4188,60.97,-105.59,948.85,180,342,-294
1512180317,0.0349,-0.0218,0.4258,11.35,-123.11,959.11,180,342,-294
1512180317,0.0621,-0.0057,0.4178,-10.50,-125.18,993.41,180,342,-294
1512180317,0.0403,-0.0264,0.4192,-9.70,-122.80,928.41,179,343,-296
1512180317,0.0346,-0.0414,0.4216,41.99,-88.99,1021.06,179,343,-296
1512180317,0.0047,-0.0146,0.4274,-43.27,-110.78,1018.55,179,343,-296
1512180317,-0.0116,-0.1430,0.4257,-47.36,-73.79,887.88,179,343,-296
1512180317,0.1879,-0.0076,0.4269,-10.25,-109.68,1014.10,177,359,-284
1512180317,-0.0032,-0.0814,0.4313,-57.50,-104.00,1007.57,177,359,-284
1512180317,0.0707,-0.0712,0.4276,-4.46,-36.44,948.55,177,359,-284
1512180317,0.1217,-0.0517,0.4230,21.48,-118.04,1051.88,177,359,-284
1512180317,-0.0053,-0.0463,0.4147,72.08,-131.23,1093.38,177,359,-284
1512180317,-0.0241,-0.0418,0.4143,105.65,-154.48,1087.95,202,349,-294
1512180317,0.0455,0.0352,0.4208,72.27,-106.26,1207.09,202,349,-294
1512180317,0.0357,0.0285,0.4182,64.21,-158.69,1091.61,202,349,-294
1512180317,-0.0269,0.0437,0.4317,60.61,-141.97,971.68,202,349,-294
1512180317,0.0188,0.0987,0.4309,12.21,-160.89,1052.31,195,363,-287
1512180317,-0.0770,0.0059,0.4206,44.25,-161.68,926.51,195,363,-287
1512180318,0.0075,-0.0120,0.4297,0.24,-98.33,955.08,195,363,-287
1512180318,-0.0884,-0.0607,0.4320,-39.37,-192.02,900.09,195,363,-287
1512180318,-0.0916,-0.0652,0.4281,37.96,-126.65,909.24,195,363,-287
1512180318,0.0028,-0.0521,0.4229,26.79,-181.76,921.08,200,361,-292
1512180318,-0.0933,-0.0079,0.4161,65.49,-166.20,971.92,200,361,-292
1512180318,-0.1009,-0.0688,0.4178,33.51,-118.96,933.04,200,361,-292
1512180318,-0.0138,-0.0597,0.4196,38.45,-65.31,1003.60,200,361,-292
1512180318,0.1202,-0.0815,0.4250,-85.08,-85.02,1061.10,200,361,-292
1512180318,-0.1330,-0.1224,0.4217,81.91,-76.05,1004.33,212,377,-304
1512180318,0.1325,-0.0085,0.4300,-47.67,-115.48,1105.47,212,377,-304
1512180318,0.0306,-0.1000,0.4233,31.98,-186.04,959.05,212,377,-304
1512180318,0.1222,0.0738,0.4120,72.45,-166.87,1002.69,212,377,-304
1512180318,0.2005,0.0395,0.4128,33.63,-157.41,1096.98,231,396,-289
1512180318,0.1376,-0.0655,0.4117,32.29,-207.03,998.05,231,396,-289
1512180318,0.0382,-0.0075,0.4161,4.64,-116.27,994.57,231,396,-289
1512180318,0.1099,-0.0427,0.4248,-35.40,-165.89,997.38,231,396,-289
1512180318,0.0822,0.0052,0.4222,5.49,-121.52,916.50,231,396,-289
1512180318,0.0975,-0.0144,0.4413,19.41,-162.29,1043.21,233,401,-284
1512180318,0.0008,0.0180,0.4330,-16.54,-188.42,1004.82,233,401,-284
1512180318,0.0317,0.0435,0.4292,43.95,-189.15,1000.00,233,401,-284
1512180318,0.0075,-0.0095,0.4324,-39.00,-187.93,961.43,233,401,-284
1512180318,0.0541,0.0443,0.4269,2.01,-208.98,994.20,233,401,-284
1512180318,-0.0509,0.0586,0.4137,18.37,-226.68,1019.10,231,403,-299
