time_unix,rotate_x,rotate_y,rotate_z,acc_x,acc_y,acc_z,mag_x,mag_y,mag_z
1512180020,-0.0081,0.0029,-0.0012,-9.16,-33.81,978.21,-49,19,-25
1512180020,0.0020,0.0009,-0.0005,0.92,-35.40,971.56,-49,19,-25
1512180020,0.0093,-0.0024,-0.0019,-6.47,-28.99,1003.48,-49,19,-25
1512180020,-0.0117,0.0059,-0.0007,-13.98,-35.03,997.44,-45,-15,-18
1512180020,-0.0075,0.0037,-0.0001,-7.20,-36.50,989.87,-45,-15,-18
1512180020,0.0076,-0.0024,-0.0009,-1.65,-30.64,975.16,-45,-15,-18
1512180020,-0.0073,0.0044,-0.0009,-15.08,-40.47,1014.34,-45,-15,-18
1512180020,-0.0120,0.0071,-0.0020,-2.69,-40.83,1007.93,-36,-14,-13
1512180020,-0.0063,0.0027,-0.0020,-7.93,-31.49,977.60,-36,-14,-13
1512180020,0.0101,-0.0032,-0.0024,3.78,-38.70,981.14,-36,-14,-13
1512180020,-0.0087,0.0047,-0.0017,-4.94,-44.01,1032.04,-36,-14,-13
1512180020,-0.0076,0.0044,-0.0017,-12.45,-36.19,985.35,-36,-14,-13
1512180020,-0.0037,0.0029,-0.0004,0.00,-38.51,985.17,-26,3,-30
1512180020,0.0162,-0.0060,-0.0023,-9.16,-27.65,997.62,-26,3,-30
1512180020,-0.0101,0.0036,-0.0013,-13.85,-41.69,1013.61,-26,3,-30
1512180020,-0.0091,0.0060,0.0012,-2.99,-39.06,994.75,-26,3,-30
1512180020,0.0008,0.0016,-0.0015,-0.92,-29.36,970.34,-26,3,-30
1512180020,0.0096,-0.0028,-0.0019,-7.20,-39.31,988.53,-43,3,-16
1512180020,-0.0093,0.0040,-0.0020,-5.19,-39.43,1029.60,-43,3,-16
1512180020,-0.0089,0.0055,-0.0004,-9.95,-39.37,979.74,-43,3,-16
1512180020,0.0023,0.0012,-0.0007,-0.73,-37.41,973.45,-43,3,-16
1512180020,0.0028,0.0015,-0.0019,-7.93,-38.57,1033.39,-54,0,-13
1512180020,-0.0069,0.0039,-0.0003,-9.40,-34.12,996.83,-54,0,-13
1512180020,-0.0112,0.0051,-0.0008,-4.94,-42.11,991.94,-54,0,-13
1512180020,0.0061,-0.0036,-0.0008,-0.67,-28.99,976.75,-54,0,-13
1512180020,-0.0044,0.0025,-0.0020,-15.75,-40.41,1017.64,-54,0,-13
1512180020,-0.0129,0.0052,-0.0028,-2.93,-38.21,1012.63,-33,10,-23
1512180020,-0.0056,0.0020,-0.0013,-11.29,-34.00,976.44,-33,10,-23
1512180021,0.0091,-0.0041,-0.0020,-1.53,-37.78,976.81,-33,10,-23
1512180021,-0.0063,0.0063,0.0000,-2.01,-33.57,1016.30,-33,10,-23
1512180021,-0.0088,0.0052,-0.0013,-8.48,-37.23,985.66,-33,10,-23
1512180021,-0.0056,0.0000,-0.0013,-6.04,-39.37,977.84,-31,5,-28
1512180021,0.0072,-0.0027,-0.0028,-3.85,-36.32,1035.10,-31,5,-28
1512180021,-0.0101,0.0061,-0.0013,-18.68,-39.92,1008.06,-31,5,-28
1512180021,-0.0080,0.0056,-0.0012,-4.39,-35.89,1000.73,-31,5,-28
1512180021,0.0003,0.0004,-0.0019,-2.99,-34.97,974.67,-38,-5,-28
1512180021,0.0055,0.0007,-0.0024,-19.59,-43.33,1013.92,-38,-5,-28
1512180021,-0.0108,0.0048,-0.0032,-4.64,-40.41,1025.63,-38,-5,-28
1512180021,-0.0089,0.0049,-0.0003,-9.95,-36.87,984.31,-38,-5,-28
1512180021,0.0069,-0.0008,-0.0015,-13.06,-34.97,992.98,-38,-5,-28
1512180021,0.0013,0.0025,-0.0020,-7.45,-35.52,1028.56,-54,7,-13
1512180021,-0.0097,0.0064,-0.0012,-14.16,-36.19,1002.62,-54,7,-13
1512180021,-0.0105,0.0036,-0.0005,-4.70,-39.61,984.99,-54,7,-13
1512180021,0.0077,-0.0025,-0.0012,-7.45,-27.53,1017.58,-54,7,-13
1512180021,-0.0060,0.0051,-0.0004,-12.21,-41.32,1011.54,-54,7,-13
1512180021,-0.0119,0.0047,-0.0007,-10.38,-43.82,1000.31,-42,8,-18
1512180021,-0.0053,0.0016,-0.0012,-7.57,-33.75,977.36,-42,8,-18
1512180021,0.0007,0.0004,-0.0019,-14.71,-39.86,1006.04,-42,8,-18
1512180021,-0.0088,0.0049,-0.0013,-7.02,-39.86,1026.00,-42,8,-18
1512180021,-0.0028,0.0009,0.0001,-8.00,-32.96,977.23,-43,3,-13
1512180021,-0.0001,0.0044,-0.0008,2.75,-47.30,985.60,-43,3,-13
1512180021,-0.0052,0.0051,-0.0013,-12.02,-47.12,1022.58,-43,3,-13
1512180021,-0.0136,0.0077,0.0004,-24.48,-55.18,990.97,-43,3,-13
1512180021,-0.0044,0.0032,-0.0024,-34.06,-63.84,997.13,-43,3,-13
1512180021,0.0053,0.0003,-0.0023,-31.98,-48.95,1011.54,-28,12,-18
1512180021,0.0013,0.0013,-0.0013,-47.97,-64.15,995.54,-28,12,-18
1512180021,-0.0085,0.0039,0.0011,-54.87,-69.27,992.55,-28,12,-18
1512180021,0.0112,-0.0016,-0.0001,-33.39,-58.17,992.25,-28,12,-18
1512180021,0.0011,0.0019,0.0013,-62.44,-71.90,1003.30,-28,12,-18
1512180021,-0.0015,0.0001,0.0003,-52.25,-81.36,1010.62,-61,0,-23
1512180021,-0.0007,0.0019,0.0013,-41.38,-57.19,987.18,-61,0,-23
1512180021,-0.0032,0.0027,-0.0004,-45.65,-70.56,979.86,-61,0,-23
1512180021,-0.0083,0.0052,-0.0015,-32.17,-65.43,1012.08,-61,0,-23
1512180021,0.0000,0.0021,0.0004,-32.84,-53.83,979.55,-33,10,-20
1512180021,-0.0016,0.0020,-0.0017,-37.41,-69.64,996.83,-33,10,-20
1512180021,0.0100,-0.0056,-0.0005,-21.30,-36.13,1007.87,-33,10,-20
1512180022,-0.0057,0.0024,0.0020,-17.64,-46.02,995.30,-33,10,-20
1512180022,0.0019,-0.0023,0.0017,-2.26,-43.82,988.16,-33,10,-20
1512180022,0.0089,-0.0055,0.0009,11.96,-19.90,992.55,-38,8,-11
1512180022,0.0043,-0.0023,-0.0005,-3.66,-36.68,1014.04,-38,8,-11
1512180022,-0.0092,0.0031,-0.0007,15.99,-35.95,1006.71,-38,8,-11
1512180022,0.0039,-0.0027,0.0003,34.36,-10.74,975.52,-38,8,-11
1512180022,0.0057,-0.0020,-0.0019,24.78,-14.89,987.06,-38,8,-11
1512180022,-0.0052,0.0047,-0.0005,35.40,-7.14,1013.06,-42,5,-22
1512180022,-0.0020,0.0008,0.0001,39.98,5.31,964.54,-42,5,-22
1512180022,-0.0016,0.0004,0.0000,25.21,-17.15,983.22,-42,5,-22
1512180022,-0.0072,0.0048,0.0003,39.12,-5.43,1007.51,-42,5,-22
1512180022,-0.0029,0.0041,-0.0008,35.89,-0.37,979.98,-50,7,-13
1512180022,-0.0013,0.0008,0.0005,22.16,-21.06,989.56,-50,7,-13
1512180022,0.0036,-0.0009,0.0007,37.66,4.15,1004.09,-50,7,-13
1512180022,-0.0044,0.0051,0.0008,37.66,-5.74,983.22,-50,7,-13
1512180022,-0.0103,0.0047,-0.0012,27.89,-23.32,1001.83,-50,7,-13
1512180022,0.0037,-0.0008,-0.0009,34.91,1.28,1013.92,-31,5,-18
1512180022,0.0007,0.0023,-0.0008,30.94,-6.35,988.10,-31,5,-18
1512180022,-0.0049,0.0043,-0.0012,8.06,-37.17,1001.71,-31,5,-18
1512180022,-0.0109,0.0047,-0.0025,2.87,-29.72,1013.43,-31,5,-18
1512180022,-0.0023,0.0033,-0.0012,-5.07,-41.32,992.00,-47,-3,-23
1512180022,-0.0093,0.0076,-0.0007,-29.48,-59.39,1002.20,-47,-3,-23
1512180022,0.0023,0.0009,0.0005,-26.86,-53.10,1018.55,-47,-3,-23
1512180022,0.0025,0.0012,0.0005,-43.58,-62.26,1004.88,-47,-3,-23
1512180022,-0.0079,0.0037,0.0004,-71.84,-77.15,977.84,-47,-3,-23
1512180022,-0.0097,0.0059,-0.0004,-62.50,-76.90,1006.77,-45,5,-11
1512180022,0.0037,0.0012,-0.0005,-68.60,-72.75,989.50,-45,5,-11
1512180022,-0.0152,0.0081,0.0020,-94.67,-94.12,998.72,-45,5,-11
1512180022,0.0003,0.0033,0.0004,-51.27,-91.80,996.46,-45,5,-11
1512180022,-0.0032,0.0064,0.0019,-74.71,-79.28,1013.06,-45,5,-11
1512180022,0.0009,0.0045,-0.0015,-70.74,-113.22,992.19,-38,-1,-1
1512180022,-0.0120,0.0091,0.0012,-82.70,-79.65,1005.80,-38,-1,-1
1512180022,0.0108,-0.0025,0.0005,-65.86,-73.43,1017.64,-38,-1,-1
1512180022,-0.0049,0.0027,-0.0004,-78.06,-86.49,986.27,-38,-1,-1
1512180022,0.0031,0.0009,-0.0005,-69.95,-80.02,1003.23,-50,14,3
1512180022,0.0017,-0.0016,0.0007,-63.90,-75.68,1024.54,-50,14,3
1512180022,-0.0027,0.0008,0.0013,-82.89,-88.07,979.00,-50,14,3
1512180022,-0.0095,0.0068,0.0012,-77.27,-91.86,992.49,-50,14,3
1512180023,0.0092,-0.0032,0.0027,-76.05,-79.16,1033.69,-50,14,3
1512180023,-0.0093,0.0056,0.0023,-90.39,-92.04,989.81,-43,-7,-10
1512180023,-0.0012,0.0021,0.0027,-82.28,-92.35,989.56,-43,-7,-10
1512180023,0.0025,0.0019,0.0003,-71.53,-84.90,1031.62,-43,-7,-10
1512180023,-0.0036,0.0012,0.0028,-79.35,-93.57,975.34,-43,-7,-10
1512180023,-0.0116,0.0073,-0.0008,-62.62,-96.31,1001.95,-43,-7,-10
1512180023,-0.0005,0.0003,0.0019,-69.82,-65.19,1004.46,-43,10,-20
1512180023,-0.0072,0.0041,0.0025,-83.01,-81.54,994.51,-43,10,-20
1512180023,-0.0067,-0.0005,0.0028,-79.04,-79.96,991.94,-43,10,-20
1512180023,0.0064,-0.0057,0.0020,-70.01,-72.88,1022.95,-43,10,-20
1512180023,0.0001,-0.0024,0.0025,-72.27,-74.52,993.84,-38,12,-11
1512180023,-0.0132,0.0036,0.0024,-62.19,-75.87,993.35,-38,12,-11
1512180023,0.0037,-0.0083,0.0003,-54.50,-63.96,1035.71,-38,12,-11
1512180023,-0.0140,-0.0015,0.0015,-58.17,-76.42,984.56,-38,12,-11
1512180023,-0.0120,-0.0037,0.0017,-40.16,-63.78,1002.08,-38,12,-11
1512180023,-0.0013,-0.0115,0.0016,-38.09,-43.40,1032.04,-59,8,-18
1512180023,-0.0051,-0.0087,0.0013,-36.93,-49.50,995.36,-59,8,-18
1512180023,-0.0116,-0.0052,0.0024,-20.45,-47.61,991.64,-59,8,-18
1512180023,0.0028,-0.0075,0.0008,-4.09,-39.25,1020.20,-59,8,-18
1512180023,-0.0024,-0.0079,0.0032,-11.54,-39.31,969.67,-59,8,-18
1512180023,-0.0123,-0.0048,0.0019,-5.37,-47.00,986.51,-45,-1,-11
1512180023,0.0039,-0.0068,0.0019,6.71,-34.48,1013.92,-45,-1,-11
1512180023,-0.0001,-0.0027,0.0001,-6.59,-39.67,990.30,-45,-1,-11
1512180023,-0.0029,0.0012,0.0001,0.24,-46.88,985.47,-45,-1,-11
1512180023,0.0089,-0.0048,-0.0001,2.50,-28.63,1022.58,-43,3,-6
1512180023,0.0097,-0.0029,0.0016,5.19,-26.61,995.18,-43,3,-6
1512180023,-0.0020,0.0025,0.0021,1.89,-33.63,1001.34,-43,3,-6
1512180023,0.0031,0.0019,0.0031,21.67,-16.85,1016.30,-43,3,-6
1512180023,0.0039,-0.0016,0.0015,19.96,-14.83,989.07,-43,3,-6
1512180023,-0.0044,0.0012,0.0015,19.65,-20.32,992.07,-36,0,-6
1512180023,-0.0032,-0.0004,-0.0005,35.10,-7.63,1009.22,-36,0,-6
1512180023,0.0063,-0.0049,-0.0005,31.68,-3.91,1007.08,-36,0,-6
1512180023,-0.0099,-0.0021,0.0001,22.71,-15.38,993.29,-36,0,-6
1512180023,-0.0027,-0.0061,-0.0008,37.23,-4.76,1003.42,-36,0,-6
1512180023,0.0017,-0.0109,0.0008,37.78,0.18,1022.03,-59,-1,-5
1512180023,-0.0165,-0.0047,0.0027,28.32,-9.22,981.69,-59,-1,-5
1512180023,-0.0209,-0.0024,0.0029,33.02,-11.90,996.03,-59,-1,-5
1512180023,0.0041,-0.0071,0.0024,43.15,-2.44,1019.90,-59,-1,-5
1512180024,-0.0124,-0.0007,0.0017,24.66,-18.92,979.68,-36,-7,-16
1512180024,-0.0092,0.0003,0.0017,29.79,-19.29,986.51,-36,-7,-16
1512180024,-0.0065,-0.0035,-0.0001,37.11,-9.70,1013.12,-36,-7,-16
1512180024,-0.0064,-0.0035,0.0000,29.05,-10.19,984.68,-36,-7,-16
1512180024,-0.0152,0.0017,0.0000,17.46,-19.90,977.29,-36,-7,-16
1512180024,-0.0048,-0.0005,-0.0008,39.79,-9.52,996.46,-45,5,-28
1512180024,-0.0016,-0.0040,0.0023,37.66,-14.10,1003.54,-45,5,-28
1512180024,-0.0117,0.0000,0.0035,17.82,-19.71,986.82,-45,5,-28
1512180024,-0.0105,0.0029,0.0041,37.48,-12.15,996.34,-45,5,-28
1512180024,0.0052,-0.0093,0.0032,34.73,-18.13,1018.92,-54,7,-3
1512180024,-0.0076,-0.0013,0.0020,28.02,-15.69,979.68,-54,7,-3
1512180024,-0.0079,-0.0007,0.0012,25.63,-17.33,997.07,-54,7,-3
1512180024,-0.0005,-0.0069,-0.0020,27.77,-6.35,1019.78,-54,7,-3
1512180024,-0.0076,-0.0051,-0.0017,9.64,-16.66,979.37,-54,7,-3
1512180024,-0.0146,-0.0029,-0.0015,19.90,-23.32,996.95,-52,1,-18
1512180024,-0.0025,-0.0085,-0.0015,42.97,-8.91,1015.93,-52,1,-18
1512180024,-0.0052,-0.0064,0.0007,25.94,-18.43,993.04,-52,1,-18
1512180024,-0.0076,-0.0027,0.0020,29.91,-32.23,997.86,-52,1,-18
1512180024,-0.0051,-0.0031,0.0013,41.81,-14.16,998.60,-52,1,-18
1512180024,0.0037,-0.0040,0.0037,40.28,-14.65,989.99,-36,10,-13
1512180024,-0.0092,0.0029,0.0040,19.23,-31.86,983.76,-36,10,-13
1512180024,-0.0024,0.0029,0.0008,36.80,-12.94,1001.16,-36,10,-13
1512180024,0.0012,-0.0012,0.0000,32.84,-18.01,990.84,-36,10,-13
1512180024,-0.0104,0.0024,0.0017,8.30,-31.62,982.54,-36,-3,0
1512180024,-0.0104,0.0035,-0.0013,9.09,-30.88,995.79,-36,-3,0
1512180024,0.0073,-0.0053,-0.0005,4.09,-23.62,1004.76,-36,-3,0
1512180024,-0.0021,-0.0012,-0.0004,-18.62,-43.70,993.29,-36,-3,0
1512180024,-0.0092,0.0003,-0.0007,-15.44,-44.43,1000.79,-36,-3,0
1512180024,-0.0013,-0.0013,0.0012,-11.23,-47.55,1010.44,-50,3,-16
1512180024,-0.0123,0.0020,0.0051,-19.59,-61.04,976.62,-50,3,-16
1512180024,-0.0100,0.0004,0.0021,-30.76,-73.97,1011.90,-50,3,-16
1512180024,0.0008,-0.0049,0.0053,-22.09,-54.81,1019.10,-50,3,-16
1512180024,-0.0039,-0.0009,0.0044,-21.48,-58.59,995.97,-47,3,-13
1512180024,-0.0101,0.0029,0.0029,-22.52,-76.97,1002.62,-47,3,-13
1512180024,0.0059,0.0023,0.0009,-11.66,-57.19,991.09,-47,3,-13
1512180024,0.0092,0.0060,-0.0025,-9.70,-89.42,1092.35,-47,3,-13
1512180024,-0.0152,0.0113,0.0021,-30.21,-76.54,948.43,-47,3,-13
1512180025,-0.0077,0.0052,0.0019,-18.31,-62.93,992.25,-33,3,-10
1512180025,0.0012,0.0015,0.0000,-16.97,-64.76,1003.54,-33,3,-10
1512180025,-0.0240,0.0073,0.0009,-37.05,-69.64,997.99,-33,3,-10
1512180025,-0.0165,0.0051,0.0032,-21.55,-50.96,1000.37,-33,3,-10
1512180025,-0.0024,-0.0013,0.0029,-26.73,-51.45,1003.23,-33,3,-10
1512180025,-0.0080,-0.0001,0.0036,-38.70,-65.31,989.81,-38,8,-8
1512180025,-0.0156,0.0031,0.0027,-21.67,-62.56,992.61,-38,8,-8
1512180025,0.0051,-0.0056,0.0039,-15.63,-56.88,1022.83,-38,8,-8
1512180025,-0.0128,0.0024,0.0040,-34.67,-71.96,980.59,-38,8,-8
1512180025,-0.0103,0.0017,0.0033,-20.51,-65.73,996.09,-38,8,-8
1512180025,-0.0031,-0.0016,0.0031,-19.53,-55.54,1022.58,-45,5,-28
1512180025,-0.0024,-0.0001,0.0029,-24.96,-66.59,986.88,-45,5,-28
1512180025,-0.0109,0.0040,0.0021,-24.60,-69.03,998.35,-45,5,-28
1512180025,0.0072,-0.0031,0.0035,-19.29,-53.10,1027.89,-45,5,-28
1512180025,0.0044,-0.0016,0.0043,-21.18,-51.09,991.94,-40,7,-16
1512180025,-0.0020,-0.0027,0.0043,-26.79,-62.01,998.72,-40,7,-16
1512180025,0.0004,0.0000,0.0031,-12.70,-51.39,1024.60,-40,7,-16
1512180025,0.0009,-0.0011,0.0043,-16.48,-59.33,990.97,-40,7,-16
1512180025,-0.0103,0.0040,0.0043,-28.99,-71.96,997.38,-40,7,-16
1512180025,-0.0083,-0.0001,0.0048,-16.48,-64.70,1019.47,-40,-3,-10
1512180025,-0.0084,0.0021,0.0056,-46.63,-86.24,983.34,-40,-3,-10
1512180025,-0.0164,0.0055,0.0085,-64.94,-86.24,980.53,-40,-3,-10
1512180025,-0.0127,0.0045,0.0095,-70.19,-79.16,1007.75,-40,-3,-10
1512180025,0.0085,-0.0024,0.0085,-59.69,-85.51,1006.65,-31,-1,-15
1512180025,-0.0047,0.0056,0.0091,-68.79,-95.89,980.10,-31,-1,-15
1512180025,-0.0113,0.0055,0.0072,-54.02,-89.42,994.75,-31,-1,-15
1512180025,-0.0004,-0.0016,0.0059,-34.42,-95.03,1017.33,-31,-1,-15
1512180025,-0.0105,-0.0020,0.0041,-62.81,-94.54,996.58,-31,-1,-15
1512180025,-0.0103,-0.0008,0.0047,-59.51,-84.84,1001.59,-43,7,0
1512180025,0.0073,-0.0072,0.0052,-52.43,-80.02,1043.58,-43,7,0
1512180025,-0.0015,0.0003,0.0083,-63.29,-90.88,973.88,-43,7,0
1512180025,-0.0053,-0.0003,0.0096,-56.52,-106.75,995.73,-43,7,0
1512180025,0.0011,-0.0073,0.0105,-35.34,-97.96,1021.55,-43,7,0
1512180025,-0.0124,-0.0047,0.0125,-54.81,-77.45,969.73,-29,3,-3
1512180025,-0.0196,-0.0001,0.0146,-75.99,-102.72,981.63,-29,3,-3
1512180025,-0.0108,0.0028,0.0165,-47.55,-79.90,995.67,-29,3,-3
1512180025,0.0100,-0.0052,0.0138,-50.66,-91.98,1027.10,-29,3,-3
1512180025,-0.0031,0.0029,0.0121,-54.87,-89.84,969.79,-26,3,-13
1512180026,-0.0297,0.0115,0.0157,-88.50,-114.62,968.57,-26,3,-13
1512180026,-0.0084,0.0091,0.0096,-90.82,-125.31,1023.99,-26,3,-13
1512180026,0.0071,0.0063,0.0180,-98.21,-137.63,1028.20,-26,3,-13
1512180026,0.0276,-0.0019,0.0562,-112.49,-106.69,1018.74,-26,3,-13
1512180026,0.0210,0.0229,0.1802,-134.28,-53.53,1010.86,-33,3,-10
1512180026,0.1850,0.0411,0.3322,-133.18,-81.73,913.33,-33,3,-10
1512180026,0.7345,0.3871,0.5882,-119.81,-68.60,747.80,-33,3,-10
1512180026,0.8139,0.7906,0.8875,-147.83,-336.85,1379.03,-33,3,-10
1512180026,-0.3598,-0.2921,0.6746,-287.23,-337.65,1171.69,-33,3,-10
1512180026,-0.2561,-0.2783,0.2716,-218.44,-155.27,783.51,-22,59,-328
1512180026,0.1971,0.3870,0.0334,-230.59,-136.41,1135.01,-22,59,-328
1512180026,-0.1567,-0.2598,0.0274,-189.15,-175.11,1035.83,-22,59,-328
1512180026,-0.0162,0.0589,0.0345,-197.69,-176.45,905.94,-22,59,-328
1512180026,0.0169,0.0985,0.0433,-214.84,-158.81,1100.04,-14,93,-340
1512180026,-0.0439,-0.1188,0.0429,-185.97,-179.57,954.90,-14,93,-340
1512180026,0.0716,0.1141,0.0547,-240.48,-194.58,1006.41,-14,93,-340
1512180026,-0.0284,-0.0399,0.0594,-219.91,-183.84,1012.63,-14,93,-340
1512180026,0.0423,0.0317,0.0675,-210.27,-166.38,967.22,-14,93,-340
1512180026,0.0168,0.0035,0.0706,-220.03,-172.55,1008.54,-12,95,-341
1512180026,0.0273,0.0246,0.0732,-173.28,-160.95,1001.04,-12,95,-341
1512180026,0.0003,0.0099,0.0775,-208.80,-165.41,983.70,-12,95,-341
1512180026,0.0117,0.0019,0.0758,-183.53,-159.06,998.23,-12,95,-341
1512180026,0.0433,0.0264,0.0826,-202.39,-152.47,981.93,-1,105,-335
1512180026,0.0380,0.0324,0.0848,-194.95,-162.35,978.21,-1,105,-335
1512180026,0.0228,-0.0061,0.0899,-170.41,-146.61,980.10,-1,105,-335
1512180026,0.0546,0.0020,0.0948,-178.10,-109.86,1014.89,-1,105,-335
1512180026,0.0261,-0.0007,0.0971,-183.96,-110.47,979.55,-1,105,-335
1512180026,0.0138,0.0249,0.0940,-114.38,-118.90,1001.22,-17,111,-326
1512180026,-0.0166,0.0458,0.0917,-139.83,-140.01,1020.39,-17,111,-326
1512180026,0.0274,-0.0115,0.0951,-105.16,-133.48,983.15,-17,111,-326
1512180026,0.0784,0.0328,0.0967,-81.12,-73.06,988.53,-17,111,-326
1512180026,0.0766,0.0113,0.0995,-135.93,-88.07,983.64,-17,111,-326
1512180026,0.1053,0.0372,0.0975,-122.92,-84.53,983.89,-3,111,-326
1512180026,0.0719,0.0370,0.0991,-143.19,-68.66,966.06,-3,111,-326
1512180026,0.0437,0.0318,0.1015,-159.36,-61.04,1007.81,-3,111,-326
1512180026,0.0115,-0.0069,0.1015,-115.05,-33.14,980.90,-3,111,-326
1512180026,-0.0272,0.0317,0.1003,-123.60,-64.27,999.02,-8,105,-328
1512180026,-0.0273,-0.0124,0.1012,-124.27,-46.39,985.41,-8,105,-328
1512180027,0.0450,0.0257,0.1003,-90.33,-26.73,1021.42,-8,105,-328
1512180027,0.0543,0.0210,0.1025,-117.74,-36.07,1041.50,-8,105,-328
1512180027,-0.0407,-0.0260,0.0949,-120.73,-89.23,968.69,-8,105,-328
1512180027,0.0091,0.0064,0.0895,-67.32,-72.94,1034.73,-3,114,-326
1512180027,-0.0369,-0.0069,0.0909,-102.66,-91.55,1033.87,-3,114,-326
1512180027,-0.0960,-0.0748,0.0923,-136.17,-79.71,976.20,-3,114,-326
1512180027,-0.0152,-0.0055,0.0945,-129.58,-43.27,988.34,-3,114,-326
1512180027,-0.0746,-0.0324,0.0941,-133.00,-69.95,995.79,-3,114,-326
1512180027,-0.0714,-0.0229,0.0968,-120.91,-57.19,990.91,-15,109,-328
1512180027,-0.0778,-0.0176,0.0945,-125.37,-50.35,1058.41,-15,109,-328
1512180027,-0.1100,-0.0646,0.0921,-103.64,-84.72,1028.08,-15,109,-328
1512180027,-0.0759,-0.0269,0.0908,-85.57,-86.24,978.52,-15,109,-328
1512180027,-0.0599,-0.0353,0.0808,-77.94,-93.38,1016.91,-21,114,-333
1512180027,-0.0332,-0.0586,0.0835,-105.29,-123.47,956.85,-21,114,-333
1512180027,-0.0069,0.0210,0.0738,-49.01,-60.06,1055.48,-21,114,-333
1512180027,0.0112,0.0011,0.0814,-71.72,-89.17,1064.09,-21,114,-333
1512180027,-0.0096,-0.0418,0.0784,-81.79,-119.81,972.23,-21,114,-333
1512180027,0.1056,0.0795,0.0792,-14.22,-65.55,1045.53,1,112,-318
1512180027,0.0571,-0.0107,0.0788,-112.49,-131.16,1082.64,1,112,-318
1512180027,0.0312,-0.0158,0.0909,-78.49,-91.80,969.36,1,112,-318
1512180027,0.0477,0.0422,0.0736,-89.97,-73.61,1012.08,1,112,-318
1512180027,-0.0635,-0.0128,0.0702,-82.58,-100.22,945.07,1,112,-318
1512180027,-0.0325,0.0318,0.0647,-117.19,-121.03,955.02,0,114,-333
1512180027,0.0220,0.0459,0.0623,-110.90,-85.82,965.82,0,114,-333
1512180027,-0.0149,0.0252,0.0557,-78.37,-114.01,968.75,0,114,-333
1512180027,0.0336,0.0410,0.0541,-94.67,-87.40,994.32,0,114,-333
1512180027,-0.0020,0.0023,0.0553,-71.23,-109.37,952.27,-5,109,-321
1512180027,0.0383,0.0526,0.0601,-97.72,-110.47,1045.72,-5,109,-321
1512180027,-0.0475,-0.0245,0.0618,-84.17,-151.18,969.30,-5,109,-321
1512180027,-0.0032,0.0401,0.0688,-74.46,-133.06,952.45,-5,109,-321
1512180027,-0.0065,0.0590,0.0736,-67.20,-150.27,1028.69,-5,109,-321
1512180027,-0.0233,-0.0220,0.0854,-20.14,-107.79,957.21,-1,130,-331
1512180027,0.0513,0.0648,0.0960,-100.95,-146.67,1011.35,-1,130,-331
1512180027,-0.0503,-0.0648,0.0992,-25.09,-98.33,976.01,-1,130,-331
1512180027,0.0017,0.0466,0.1069,-30.82,-97.78,1023.62,-1,130,-331
1512180027,-0.0752,-0.0658,0.1121,-192.75,-139.28,969.42,-3,128,-313
1512180027,-0.0285,-0.0345,0.1158,-69.09,-31.98,930.91,-3,128,-313
1512180027,-0.0020,0.0730,0.1165,-108.64,-159.42,1013.55,-3,128,-313
1512180028,-0.0985,-0.0804,0.1168,-64.88,-152.34,980.90,-3,128,-313
1512180028,0.0124,-0.0081,0.1164,-64.64,-121.46,950.26,-3,128,-313
1512180028,-0.0242,-0.0125,0.1157,-104.49,-141.85,1067.32,12,109,-324
1512180028,-0.0866,-0.0274,0.1212,-91.13,-134.83,1047.24,12,109,-324
1512180028,-0.0792,-0.0308,0.1217,-54.26,-83.19,1085.33,12,109,-324
1512180028,-0.1258,-0.0615,0.1296,-94.91,-144.35,1045.65,12,109,-324
1512180028,-0.1132,-0.1015,0.1352,-28.69,-62.74,1035.89,12,109,-324
1512180028,-0.0571,-0.0534,0.1406,-88.68,-120.18,1019.65,7,111,-333
1512180028,-0.1728,-0.0961,0.1324,-54.81,-165.77,1023.44,7,111,-333
1512180028,-0.0224,-0.0162,0.1280,-30.21,-141.66,1062.26,7,111,-333
1512180028,-0.0533,-0.0338,0.1169,-24.41,-275.15,956.85,7,111,-333
1512180028,0.0005,0.0137,0.1201,-14.65,-198.49,1039.55,7,118,-330
1512180028,-0.0917,-0.1368,0.1178,-19.71,-195.74,969.24,7,118,-330
1512180028,0.0150,0.0667,0.1266,-92.41,-167.85,1006.47,7,118,-330
1512180028,-0.0445,-0.0795,0.1189,-14.77,-84.90,1005.98,7,118,-330
1512180028,0.0503,-0.0145,0.1233,-50.23,-122.01,904.11,7,118,-330
1512180028,0.0630,0.0409,0.1262,-79.83,-104.98,996.46,22,119,-328
1512180028,0.0458,0.0057,0.1241,-55.18,-95.76,973.63,22,119,-328
1512180028,0.0300,0.0101,0.1176,-79.96,-144.84,989.07,22,119,-328
1512180028,-0.0113,-0.0013,0.1087,-51.51,-154.91,951.11,22,119,-328
1512180028,-0.0129,-0.0113,0.1139,-29.30,-118.65,976.62,22,119,-328
1512180028,0.0348,-0.0161,0.1037,-74.16,-171.87,926.82,14,132,-323
1512180028,0.0269,-0.0076,0.1021,-27.16,-130.68,932.80,14,132,-323
1512180028,0.0518,0.0383,0.1009,-66.28,-143.01,992.92,14,132,-323
1512180028,-0.0158,-0.0442,0.0976,-49.13,-107.42,958.37,14,132,-323
1512180028,0.0835,0.0619,0.1007,-112.61,-120.61,973.63,17,125,-336
1512180028,-0.0804,-0.0799,0.0995,-57.56,-75.38,935.67,17,125,-336
1512180028,0.0691,0.0573,0.1003,-71.41,-84.72,970.40,17,125,-336
1512180028,-0.0288,-0.0502,0.1039,-128.23,-96.98,1079.41,17,125,-336
1512180028,-0.0595,-0.0415,0.1032,-54.99,-159.79,1009.09,17,125,-336
1512180028,0.0370,0.0221,0.1125,-9.46,-70.19,1064.58,15,133,-338
1512180028,-0.0089,0.0401,0.1166,-117.98,-135.74,1165.16,15,133,-338
1512180028,-0.1256,-0.1209,0.1178,-52.31,-124.39,1073.55,15,133,-338
1512180028,-0.1036,-0.0659,0.1204,81.36,-26.37,1050.29,15,133,-338
1512180028,-0.0178,0.0779,0.1047,-172.18,-180.11,1211.36,3,125,-346
1512180028,-0.1959,-0.5282,0.1362,-102.48,-22.95,668.15,3,125,-346
1512180028,0.1715,0.2610,0.1210,-85.02,-217.47,1017.09,3,125,-346
1512180029,-0.2360,-0.3446,0.0875,5.19,-149.29,917.05,3,125,-346
1512180029,-0.1216,-0.0571,0.1465,90.39,-112.06,715.70,3,125,-346
1512180029,0.2248,0.2695,0.0936,-55.42,-160.16,1041.87,17,135,-353
1512180029,-0.1840,-0.4048,0.1040,-8.42,-181.09,998.41,17,135,-353
1512180029,0.0827,0.0851,0.1353,-45.53,-212.71,897.22,17,135,-353
1512180029,0.0342,-0.0538,0.1052,-46.57,-104.25,1067.69,17,135,-353
1512180029,0.0180,-0.1603,0.1172,-54.63,-196.90,933.78,17,135,-353
1512180029,0.0262,-0.0297,0.1174,-37.90,-206.12,928.83,29,133,-335
1512180029,0.0079,0.0578,0.1012,69.64,-166.44,1026.92,29,133,-335
1512180029,-0.0463,-0.0712,0.1088,-75.99,-168.33,1010.25,29,133,-335
1512180029,-0.0547,-0.0494,0.1028,-64.33,-176.94,974.30,29,133,-335
1512180029,0.0177,-0.0248,0.1072,-56.21,-126.16,996.46,24,132,-346
1512180029,-0.0100,-0.0075,0.1095,-68.54,-190.80,1031.80,24,132,-346
1512180029,-0.0446,-0.0306,0.1104,-7.14,-179.44,969.06,24,132,-346
1512180029,-0.0076,-0.0574,0.1012,27.95,-140.20,917.36,24,132,-346
1512180029,0.1009,0.0497,0.1072,-8.12,-147.77,975.28,24,132,-346
1512180029,0.1217,0.0529,0.1109,-50.84,-89.78,1084.84,26,133,-341
1512180029,0.1332,-0.0414,0.1088,-37.54,-97.11,1010.74,26,133,-341
1512180029,0.1015,0.1348,0.1132,1.28,-114.56,1222.29,26,133,-341
1512180029,-0.0067,-0.0302,0.1109,-37.54,-130.19,1282.35,26,133,-341
1512180029,-0.0929,-0.1965,0.1346,-237.49,-385.74,1078.74,26,133,-341
1512180029,0.0427,-0.0354,0.1124,-32.10,28.63,831.79,26,141,-338
1512180029,-0.0678,-0.0216,0.1455,-156.31,-231.08,986.57,26,141,-338
1512180029,0.0083,-0.0378,0.0975,70.37,-96.56,955.08,26,141,-338
1512180029,-0.0061,-0.1172,0.1605,-57.92,-193.85,875.79,26,141,-338
1512180029,0.0651,0.1341,0.1289,-17.21,-87.28,991.52,26,130,-328
1512180029,-0.0274,-0.0846,0.1236,64.45,-167.79,921.94,26,130,-328
1512180029,-0.1133,-0.0321,0.1497,4.27,-196.41,810.97,26,130,-328
1512180029,0.0140,0.1675,0.1208,-2.32,-185.24,996.15,26,130,-328
1512180029,-0.0844,-0.0113,0.1250,-22.77,-201.97,991.15,26,130,-328
1512180029,-0.0028,0.1104,0.1268,6.71,-246.52,1018.86,22,137,-328
1512180029,-0.0130,0.0763,0.1129,-20.87,-175.90,1010.31,22,137,-328
1512180029,0.0149,0.0603,0.1158,-41.75,-152.04,1050.48,22,137,-328
1512180029,-0.0152,0.0089,0.1153,-60.30,-168.82,999.63,22,137,-328
1512180029,0.0742,0.1047,0.1181,-49.80,-132.75,1056.64,22,137,-328
1512180029,0.0128,0.0549,0.1204,-77.21,-81.60,1076.54,17,146,-333
1512180029,-0.0238,0.0663,0.1166,-17.21,-152.28,1058.41,17,146,-333
1512180029,-0.0242,0.0631,0.1095,44.31,-138.73,1040.59,17,146,-333
1512180030,-0.0152,0.1284,0.1103,-68.66,-230.65,1026.00,17,146,-333
1512180030,-0.1558,0.0409,0.1104,-127.01,-187.68,1147.58,22,137,-328
1512180030,-0.0138,0.0037,0.1065,75.62,-157.53,1062.87,22,137,-328
1512180030,0.0032,0.1180,0.1198,-83.98,-110.72,1217.47,22,137,-328
1512180030,-0.0410,-0.0953,0.1176,-40.10,-60.24,1134.28,22,137,-328
1512180030,0.0313,-0.0646,0.1364,-96.25,-209.17,977.17,22,137,-328
1512180030,0.0461,0.0395,0.1290,12.21,-102.84,1005.92,33,155,-318
1512180030,-0.0389,-0.0776,0.1204,-51.15,-204.41,945.98,33,155,-318
1512180030,-0.0153,0.1505,0.1166,2.87,-155.88,991.46,33,155,-318
1512180030,-0.1008,-0.0088,0.1081,-7.63,-145.26,987.49,33,155,-318
1512180030,-0.0854,0.0353,0.1109,-43.40,-182.92,943.85,17,149,-313
1512180030,-0.0180,0.1242,0.1099,-73.79,-122.86,1022.64,17,149,-313
1512180030,-0.0084,0.0924,0.1084,-50.48,-114.87,1036.99,17,149,-313
1512180030,0.0077,0.0807,0.1071,-60.85,-101.20,1018.25,17,149,-313
1512180030,0.0056,0.0577,0.1052,-38.39,-57.13,983.09,17,149,-313
1512180030,0.0880,0.0891,0.1224,-157.41,-23.56,1092.29,28,160,-319
1512180030,0.0712,-0.0381,0.1068,-171.20,-116.09,936.40,28,160,-319
1512180030,0.1388,0.1083,0.1075,-27.89,-18.13,1042.24,28,160,-319
1512180030,0.0936,0.0820,0.1024,-96.25,-142.70,1082.15,28,160,-319
1512180030,-0.1041,-0.0245,0.1072,-97.35,-130.13,1037.60,28,160,-319
1512180030,-0.0304,-0.0169,0.1033,-48.65,-71.59,1080.32,35,171,-313
1512180030,-0.0366,-0.0325,0.1045,-55.97,-44.86,1010.44,35,171,-313
1512180030,0.0134,0.0727,0.0991,-20.32,-143.19,1042.97,35,171,-313
1512180030,-0.0389,-0.0024,0.0937,-69.15,-156.31,976.32,35,171,-313
1512180030,-0.0277,0.0901,0.0901,-27.22,-148.74,975.40,19,172,-324
1512180030,-0.0719,0.0830,0.0882,-49.32,-177.06,1024.54,19,172,-324
1512180030,-0.1001,-0.0142,0.0919,-53.77,-121.70,950.01,19,172,-324
1512180030,0.0007,0.0927,0.0948,-85.57,-102.42,1025.09,19,172,-324
1512180030,-0.0008,0.0226,0.0908,-62.62,-118.47,1093.44,19,172,-324
1512180030,-0.0117,0.0024,0.0951,-68.48,-162.35,981.45,22,172,-348
1512180030,0.0350,0.0787,0.0939,-67.50,-134.34,1012.76,22,172,-348
1512180030,0.0145,0.0274,0.0882,-32.78,-137.08,1017.70,22,172,-348
1512180030,-0.0601,0.0036,0.0838,-48.83,-181.82,955.26,22,172,-348
1512180030,-0.0137,0.0523,0.0827,-86.30,-79.83,949.71,22,172,-348
1512180030,0.0521,0.1260,0.0851,-88.93,-136.54,1085.21,26,162,-321
1512180030,-0.0905,-0.2039,0.0840,-13.49,-53.65,917.42,26,162,-321
1512180030,0.0454,0.1414,0.0814,-88.81,-163.94,838.99,26,162,-321
1512180030,-0.0240,0.0831,0.0792,-32.04,-55.18,1072.14,26,162,-321
1512180031,0.1089,-0.0296,0.0711,-109.56,-96.80,989.14,14,174,-340
1512180031,0.0647,-0.0173,0.0852,-117.55,-91.37,958.62,14,174,-340
1512180031,0.1068,0.0458,0.0730,-92.35,-98.45,1082.76,14,174,-340
1512180031,-0.0509,-0.0529,0.0759,-93.44,-126.28,1043.52,14,174,-340
1512180031,0.0146,-0.1009,0.0659,-89.97,-88.56,900.15,14,174,-340
1512180031,0.1373,0.1256,0.0603,-35.28,-57.43,1042.36,26,176,-338
1512180031,0.0533,-0.0535,0.0621,23.25,-33.75,999.51,26,176,-338
1512180031,0.0714,-0.0245,0.0615,-18.55,-40.77,981.75,26,176,-338
1512180031,0.0931,0.0435,0.0583,-16.48,-58.47,1062.93,26,176,-338
1512180031,0.0506,-0.0527,0.0602,-45.47,-39.86,1061.16,19,169,-328
1512180031,0.0744,-0.0160,0.0495,-64.09,-75.56,995.42,19,169,-328
1512180031,0.0960,0.0007,0.0483,-37.60,-82.46,947.02,19,169,-328
1512180031,0.1256,0.0526,0.0417,-21.79,-69.82,959.59,19,169,-328
1512180031,0.0647,-0.0156,0.0415,-72.02,-79.16,940.86,19,169,-328
1512180031,0.0550,0.0365,0.0387,-25.15,-77.76,922.42,12,165,-328
1512180031,0.0625,0.0356,0.0352,-40.59,-35.71,985.90,12,165,-328
1512180031,0.0446,-0.0451,0.0321,-88.13,-31.62,945.74,12,165,-328
1512180031,0.0530,0.0128,0.0281,-46.33,-34.85,968.14,12,165,-328
1512180031,0.0422,-0.0029,0.0249,-75.26,-25.82,942.75,12,165,-328
1512180031,0.0213,-0.0304,0.0197,-46.51,-25.15,954.83,12,172,-352
1512180031,0.0515,0.0390,0.0150,-57.50,-60.00,1005.49,12,172,-352
1512180031,-0.0052,-0.0289,0.0194,-40.47,-88.13,1006.04,12,172,-352
1512180031,0.0100,-0.0332,0.0208,-40.53,-18.43,936.52,12,172,-352
1512180031,0.0402,-0.0048,0.0201,-0.73,-10.25,1026.06,22,176,-355
1512180031,0.0570,-0.0423,0.0176,-18.31,-45.65,1008.42,22,176,-355
1512180031,0.0670,-0.0386,0.0136,-37.96,-13.24,967.65,22,176,-355
1512180031,0.0823,-0.0210,0.0115,-68.85,31.80,1015.20,22,176,-355
1512180031,0.0759,-0.0172,0.0064,-16.54,24.78,1045.59,22,176,-355
1512180031,0.0294,-0.1060,-0.0037,-9.16,31.56,981.87,21,171,-340
1512180031,-0.0033,-0.0233,-0.0080,-21.12,-33.69,959.53,21,171,-340
1512180031,-0.0059,-0.0582,-0.0087,-25.39,-2.01,986.69,21,171,-340
1512180031,0.0037,0.0043,-0.0142,-29.24,-22.28,1005.62,21,171,-340
1512180031,-0.0463,-0.0617,-0.0105,-14.47,-5.19,972.35,21,171,-340
1512180031,0.0345,-0.0302,-0.0149,-27.47,6.65,963.75,14,156,-336
1512180031,0.0055,-0.0069,-0.0178,-40.04,7.75,1005.13,14,156,-336
1512180031,-0.0450,-0.0372,-0.0188,-3.66,23.01,1001.89,14,156,-336
1512180031,0.0129,-0.0129,-0.0153,-25.27,14.95,1010.93,14,156,-336
1512180031,0.0041,-0.0415,-0.0182,-29.97,28.81,955.26,24,167,-350
1512180032,0.0245,-0.0067,-0.0298,6.23,-8.67,969.67,24,167,-350
1512180032,-0.0230,-0.0497,-0.0366,18.74,10.07,968.14,24,167,-350
1512180032,-0.0079,-0.0362,-0.0394,-4.03,37.78,946.41,24,167,-350
1512180032,0.0285,-0.0032,-0.0507,-20.02,46.26,995.42,24,167,-350
1512180032,0.0198,0.0085,-0.0482,-51.15,13.49,1015.20,24,153,-350
1512180032,-0.0185,-0.0583,-0.0567,-15.50,45.17,969.97,24,153,-350
1512180032,0.0340,0.0244,-0.0594,-38.15,44.56,1008.24,24,153,-350
1512180032,0.0027,-0.0912,-0.0674,-36.32,77.51,970.03,24,153,-350
1512180032,0.0415,0.0365,-0.0610,-58.04,65.00,991.82,24,153,-350
1512180032,-0.0149,-0.0692,-0.0610,-78.37,108.70,1028.87,26,137,-335
1512180032,0.0068,-0.0810,-0.0699,13.12,48.40,941.71,26,137,-335
1512180032,0.0049,-0.0031,-0.0675,-15.81,35.22,953.98,26,137,-335
1512180032,-0.0357,-0.0642,-0.0672,-0.67,50.66,949.71,26,137,-335
1512180032,0.0975,0.0555,-0.0704,-25.51,60.42,1036.68,14,160,-340
1512180032,-0.0557,-0.1260,-0.0718,-21.85,62.26,999.33,14,160,-340
1512180032,0.0762,0.0123,-0.0732,-26.86,80.08,1057.92,14,160,-340
1512180032,-0.0193,-0.0704,-0.0759,-22.52,71.72,1045.04,14,160,-340
1512180032,0.0209,-0.0362,-0.0787,-36.19,32.59,976.62,14,160,-340
1512180032,-0.0142,-0.0269,-0.0812,23.99,37.41,1004.33,14,149,-326
1512180032,-0.0340,-0.0196,-0.0871,6.47,48.83,1008.12,14,149,-326
1512180032,-0.0558,-0.0487,-0.0799,21.12,33.20,981.81,14,149,-326
1512180032,0.0439,0.0352,-0.0884,27.53,79.22,1043.64,14,149,-326
1512180032,0.0056,-0.0165,-0.0913,9.22,68.85,1091.80,14,149,-326
1512180032,-0.0341,-0.0087,-0.0945,-40.53,81.97,1021.12,15,158,-318
1512180032,-0.0310,0.0240,-0.0988,-18.49,52.31,986.51,15,158,-318
1512180032,-0.0413,0.0156,-0.1041,-6.29,37.48,1018.62,15,158,-318
1512180032,-0.0439,-0.0747,-0.1088,-15.01,24.96,898.80,15,158,-318
1512180032,0.0084,0.0617,-0.1120,-45.59,68.91,965.21,19,172,-301
1512180032,-0.1111,-0.0965,-0.1197,-18.98,54.32,941.47,19,172,-301
1512180032,-0.0310,0.0423,-0.1210,-18.49,38.45,931.82,19,172,-301
1512180032,-0.0854,-0.0378,-0.1260,-4.88,17.40,999.94,19,172,-301
1512180032,-0.0378,0.0482,-0.1356,12.08,13.49,978.27,19,172,-301
1512180032,-0.0550,0.0202,-0.1361,-7.14,30.94,1040.59,19,169,-304
1512180032,-0.0907,-0.0204,-0.1306,23.74,33.14,994.57,19,169,-304
1512180032,-0.0378,0.0324,-0.1394,49.44,68.24,1023.56,19,169,-304
1512180032,-0.0172,-0.0136,-0.1260,6.90,79.53,971.44,19,169,-304
1512180032,0.0087,0.0193,-0.1362,-8.42,77.64,1042.72,29,172,-314
1512180033,-0.0411,-0.0273,-0.1304,-33.02,97.53,1010.50,29,172,-314
1512180033,-0.0482,-0.0292,-0.1286,-24.54,70.80,1025.09,29,172,-314
1512180033,-0.0029,-0.0308,-0.1337,6.35,63.72,1050.60,29,172,-314
1512180033,0.0626,0.0007,-0.1373,-12.45,55.97,1094.79,29,172,-314
1512180033,-0.0190,-0.0676,-0.1479,41.14,12.21,985.41,31,163,-336
1512180033,0.0718,-0.0059,-0.1501,29.85,63.90,1018.37,31,163,-336
1512180033,0.0322,-0.0467,-0.1533,-30.03,57.13,949.71,31,163,-336
1512180033,0.0613,-0.0017,-0.1515,-50.35,92.04,953.06,31,163,-336
1512180033,0.0447,0.0125,-0.1577,-35.46,111.94,972.11,31,163,-336
1512180033,0.0177,0.0282,-0.1591,4.70,106.81,942.14,31,160,-326
1512180033,-0.0044,0.0356,-0.1571,-32.84,107.36,948.67,31,160,-326
1512180033,0.0284,0.0411,-0.1627,33.57,110.66,1039.37,31,160,-326
1512180033,-0.0061,-0.0087,-0.1670,-42.91,65.06,1000.43,31,160,-326
1512180033,-0.0238,-0.0043,-0.1662,0.12,96.01,959.29,24,156,-313
1512180033,0.1418,0.0991,-0.1679,-32.78,153.87,1053.89,24,156,-313
1512180033,-0.0322,-0.0728,-0.1816,14.04,59.20,949.65,24,156,-313
1512180033,0.0534,0.0719,-0.1784,-8.67,71.59,1016.66,24,156,-313
1512180033,-0.0076,0.0184,-0.1827,-18.62,111.45,1113.89,24,156,-313
1512180033,-0.0631,-0.0695,-0.1855,4.39,51.82,1004.15,12,130,-318
1512180033,0.0096,0.0348,-0.1848,-7.08,56.09,1033.63,12,130,-318
1512180033,-0.0350,-0.0162,-0.1890,-18.92,84.84,1004.03,12,130,-318
1512180033,0.0084,0.0130,-0.1917,-21.73,84.05,947.08,12,130,-318
1512180033,0.0138,0.0085,-0.1979,-10.31,71.53,969.97,12,130,-318
1512180033,0.0304,0.0633,-0.2041,12.27,69.89,1024.23,26,144,-338
1512180033,0.0124,0.0491,-0.2111,21.85,60.97,1002.14,26,144,-338
1512180033,0.0240,0.0581,-0.2139,6.47,79.28,1058.35,26,144,-338
1512180033,-0.0457,0.0007,-0.2136,5.55,28.44,1046.14,26,144,-338
1512180033,-0.0245,0.0426,-0.1963,44.49,47.97,1030.21,21,135,-330
1512180033,0.0033,0.0426,-0.1707,22.22,73.18,1005.25,21,135,-330
1512180033,-0.0587,0.0459,-0.2033,48.65,57.98,1000.73,21,135,-330
1512180033,-0.0336,0.0374,-0.2282,27.59,76.17,1020.45,21,135,-330
1512180033,-0.0065,0.0318,-0.2233,4.82,126.10,986.82,21,135,-330
1512180033,0.0011,0.0346,-0.1892,24.78,131.10,1043.70,17,121,-336
1512180033,-0.0158,-0.0245,-0.2149,-33.94,88.38,928.53,17,121,-336
1512180033,0.0619,0.0788,-0.2067,-29.36,165.59,938.17,17,121,-336
1512180033,0.0719,0.0571,-0.2334,-66.22,132.69,1004.46,17,121,-336
1512180033,-0.0100,0.0417,-0.2402,-49.50,127.44,952.82,17,121,-336
1512180033,0.0369,0.1298,-0.2394,-97.05,125.98,1071.66,5,105,-318
1512180034,-0.0711,-0.0253,-0.2453,-29.72,157.35,1049.99,5,105,-318
1512180034,-0.0296,0.0533,-0.2507,-31.13,155.76,1043.95,5,105,-318
1512180034,-0.0643,-0.0079,-0.2594,-4.52,79.47,1007.02,5,105,-318
1512180034,0.0053,0.0919,-0.2546,-37.72,65.73,933.59,28,135,-309
1512180034,0.0386,0.0581,-0.2623,-41.38,80.44,1017.46,28,135,-309
1512180034,0.0033,0.0747,-0.2629,-30.70,-14.47,979.37,28,135,-309
1512180034,-0.0041,0.0957,-0.2619,-5.37,86.12,1035.77,28,135,-309
1512180034,-0.0128,0.0241,-0.2671,-55.11,68.79,941.16,28,135,-309
1512180034,-0.0542,0.0041,-0.2680,-51.57,147.03,951.84,1,126,-318
1512180034,0.0435,0.1091,-0.2704,-99.79,166.38,1076.60,1,126,-318
1512180034,-0.1049,-0.0340,-0.2687,-111.88,96.07,980.41,1,126,-318
1512180034,-0.0044,0.0537,-0.2668,-71.90,138.37,1002.20,1,126,-318
1512180034,-0.0629,0.0088,-0.2723,-103.88,116.70,1026.00,0,121,-309
1512180034,-0.0129,0.0051,-0.2767,-89.78,96.62,984.13,0,121,-309
1512180034,-0.0136,0.0333,-0.2728,-70.86,99.49,1065.67,0,121,-309
1512180034,-0.0722,-0.0599,-0.2775,-57.98,74.89,983.22,0,121,-309
1512180034,0.0130,0.0529,-0.2803,-9.40,92.47,1028.02,0,121,-309
1512180034,-0.0473,0.0056,-0.2775,-74.65,58.96,998.84,5,105,-308
1512180034,-0.0176,0.0121,-0.2746,-65.80,121.95,985.47,5,105,-308
1512180034,0.0489,0.0233,-0.2642,-83.74,101.75,985.35,5,105,-308
1512180034,0.0369,-0.0012,-0.2642,-33.33,121.52,995.48,5,105,-308
1512180034,0.0767,0.0321,-0.2645,-49.19,96.01,1004.52,5,105,-308
1512180034,-0.0326,-0.0368,-0.2684,-48.03,68.12,960.39,-15,95,-324
1512180034,0.0474,0.0561,-0.2642,-68.36,86.55,1015.26,-15,95,-324
1512180034,-0.0585,-0.0260,-0.2645,-30.46,80.69,1001.83,-15,95,-324
1512180034,-0.0506,-0.0067,-0.2654,-45.84,109.92,989.01,-15,95,-324
1512180034,-0.0329,0.0104,-0.2702,-11.47,80.14,1039.73,0,89,-323
1512180034,-0.0431,-0.0011,-0.2660,-59.63,49.99,960.45,0,89,-323
1512180034,0.0487,0.0406,-0.2631,-71.96,106.38,1022.77,0,89,-323
1512180034,0.0015,-0.0463,-0.2655,-83.80,84.47,999.76,0,89,-323
1512180034,0.0273,0.0093,-0.2634,-63.23,108.89,975.83,0,89,-323
1512180034,-0.0208,-0.0313,-0.2541,-76.11,108.83,919.37,0,79,-313
1512180034,0.0186,0.0087,-0.2469,-82.95,106.38,988.16,0,79,-313
1512180034,0.0642,-0.0047,-0.2466,-53.53,117.86,1002.81,0,79,-313
1512180034,0.0776,0.0260,-0.2463,-75.93,118.47,1042.72,0,79,-313
1512180034,-0.0298,-0.0393,-0.2426,-74.83,69.82,971.62,0,79,-313
1512180034,0.0162,0.0093,-0.2384,-65.80,95.64,999.88,-8,74,-318
1512180034,0.0273,-0.0306,-0.2332,-57.19,43.58,992.74,-8,74,-318
1512180035,0.0286,0.0192,-0.2344,6.29,50.90,1017.27,-8,74,-318
1512180035,-0.0023,-0.0150,-0.2228,-29.42,40.41,998.11,-8,74,-318
1512180035,-0.0413,-0.0485,-0.2174,-35.95,71.41,958.92,-15,81,-341
1512180035,0.0952,0.0120,-0.2115,-36.32,103.70,1003.60,-15,81,-341
1512180035,0.0427,0.0020,-0.2036,-67.02,66.35,992.07,-15,81,-341
1512180035,0.0294,0.0024,-0.2031,-9.70,36.99,989.32,-15,81,-341
1512180035,0.0487,0.0209,-0.1949,-13.18,13.55,976.20,-15,81,-341
1512180035,0.0230,-0.0019,-0.1931,-3.91,-2.20,1011.11,-14,72,-326
1512180035,0.0244,0.0276,-0.1852,-76.97,18.37,995.00,-14,72,-326
1512180035,-0.0301,-0.0875,-0.1724,-51.15,36.74,930.91,-14,72,-326
1512180035,0.0708,0.0959,-0.1696,-43.27,121.40,1046.08,-14,72,-326
1512180035,-0.0326,-0.0502,-0.1682,-67.32,56.27,1009.83,-14,72,-326
1512180035,0.0202,-0.0290,-0.1704,-49.62,117.68,999.51,-12,56,-335
1512180035,0.0643,0.0676,-0.1676,-89.66,96.01,1052.19,-12,56,-335
1512180035,-0.0783,-0.0905,-0.1655,-39.49,33.81,923.58,-12,56,-335
1512180035,0.0035,0.0870,-0.1582,-45.53,56.88,947.39,-12,56,-335
1512180035,-0.0306,-0.0244,-0.1581,-20.45,53.59,1039.98,-24,61,-326
1512180035,-0.0141,-0.0760,-0.1498,-46.14,49.44,971.92,-24,61,-326
1512180035,0.0506,0.1128,-0.1435,-47.00,59.33,1048.03,-24,61,-326
1512180035,-0.0688,-0.1024,-0.1442,-67.57,45.35,1030.33,-24,61,-326
1512180035,-0.1127,-0.0430,-0.1338,46.57,25.51,920.23,-24,61,-326
1512180035,-0.0832,0.0775,-0.1373,-7.69,-21.97,1029.97,-14,44,-330
1512180035,-0.1979,-0.1350,-0.1337,21.48,-48.16,947.94,-14,44,-330
1512180035,0.0301,0.1394,-0.1301,56.15,-28.87,1083.13,-14,44,-330
1512180035,-0.1121,-0.0474,-0.1278,-32.59,-84.29,1093.32,-14,44,-330
1512180035,-0.1178,-0.1715,-0.1132,4.52,-25.27,862.06,-12,45,-308
1512180035,0.0521,0.2595,-0.1065,-13.79,6.96,1102.36,-12,45,-308
1512180035,-0.1775,-0.1418,-0.1100,-10.86,-61.52,1055.05,-12,45,-308
1512180035,0.0309,0.0451,-0.1020,37.78,-34.97,843.44,-12,45,-308
1512180035,0.0297,0.1329,-0.0981,-60.30,1.22,1038.09,-12,45,-308
1512180035,-0.1392,-0.1328,-0.0949,-27.53,14.83,936.95,-49,47,-306
1512180035,0.0739,0.1605,-0.0852,-61.71,10.44,1037.05,-49,47,-306
1512180035,-0.1320,0.0133,-0.0820,-31.37,-78.55,1069.52,-49,47,-306
1512180035,-0.0398,-0.0194,-0.0728,47.42,-43.58,925.42,-49,47,-306
1512180035,0.0707,0.1529,-0.0618,-33.51,-97.35,1067.50,-49,47,-306
1512180035,-0.1083,-0.0364,-0.0638,60.42,-113.59,1033.57,-49,47,-313
1512180035,0.0229,0.1361,-0.0478,26.18,-49.07,989.69,-49,47,-313
1512180035,-0.0987,0.0228,-0.0422,5.13,-59.51,1060.91,-49,47,-313
1512180036,-0.1043,-0.0471,-0.0305,-16.30,-36.56,978.76,-49,47,-313
1512180036,-0.0433,0.0459,-0.0202,-15.32,-49.50,990.78,-40,56,-318
1512180036,-0.0509,-0.0033,-0.0149,16.48,-18.37,983.09,-40,56,-318
1512180036,0.0099,0.0566,-0.0072,-16.42,-28.02,970.15,-40,56,-318
1512180036,-0.0562,-0.0229,0.0004,33.57,-41.14,966.00,-40,56,-318
1512180036,0.0130,0.0550,0.0083,51.27,-39.61,1035.40,-40,56,-318
1512180036,-0.0658,-0.0786,0.0186,-20.63,-55.42,935.61,-49,44,-313
1512180036,-0.0983,0.0398,0.0330,64.58,-54.14,978.88,-49,44,-313
1512180036,0.0051,0.1827,0.0469,-15.08,-98.69,1165.10,-49,44,-313
1512180036,-0.2218,-0.1955,0.0479,105.77,-96.62,974.98,-49,44,-313
1512180036,0.0502,0.2270,0.0581,107.91,-194.52,1008.24,-42,51,-302
1512180036,-0.0755,-0.0961,0.0570,66.04,-63.29,1072.14,-42,51,-302
1512180036,0.0206,0.0534,0.0743,20.57,-72.81,951.35,-42,51,-302
1512180036,0.1394,0.1423,0.0724,69.82,-25.63,1130.55,-42,51,-302
1512180036,0.0399,-0.1024,0.0912,13.98,-102.78,1026.55,-42,51,-302
1512180036,0.0119,0.0107,0.0977,52.00,-112.37,938.84,-29,59,-311
1512180036,0.0313,-0.0455,0.1113,-13.00,6.29,882.69,-29,59,-311
1512180036,-0.0517,0.0229,0.1288,-32.59,-45.53,948.49,-29,59,-311
1512180036,-0.0146,0.0486,0.0936,-55.60,-90.76,1060.67,-29,59,-311
1512180036,-0.0376,-0.0834,0.1280,29.72,-91.25,946.23,-29,59,-311
1512180036,0.0643,0.1280,0.1320,8.91,-62.87,1066.59,-50,52,-301
1512180036,-0.0409,-0.0652,0.1340,-7.57,-131.47,1121.03,-50,52,-301
1512180036,-0.0044,-0.0459,0.1362,83.19,-79.10,949.40,-50,52,-301
1512180036,0.0700,0.0852,0.1321,70.19,-111.57,1055.36,-50,52,-301
1512180036,-0.0626,-0.0499,0.1467,54.44,-106.45,1025.15,-42,54,-323
1512180036,-0.0079,-0.0403,0.1549,56.27,-69.09,974.12,-42,54,-323
1512180036,0.0699,0.0963,0.1651,37.84,-91.92,1025.76,-42,54,-323
1512180036,-0.0458,-0.0141,0.1714,106.32,-91.98,1000.06,-42,54,-323
1512180036,0.0567,0.1112,0.1772,73.49,-115.30,991.39,-42,54,-323
1512180036,-0.0232,-0.0218,0.1839,32.29,-78.31,973.08,-43,63,-308
1512180036,0.0186,0.0330,0.1931,49.99,-60.30,980.96,-43,63,-308
1512180036,0.0168,0.0182,0.2012,35.34,-34.06,968.63,-43,63,-308
1512180036,0.0670,0.0349,0.2065,31.37,-43.09,1019.17,-43,63,-308
1512180036,0.0330,-0.0032,0.2093,33.57,-27.16,1036.50,-43,63,-308
1512180036,0.1104,0.0281,0.2079,36.62,-85.69,984.37,-35,68,-316
1512180036,0.0625,-0.0045,0.2063,94.97,-65.43,937.13,-35,68,-316
1512180036,-0.0316,0.0024,0.2178,33.75,-100.65,1000.18,-35,68,-316
1512180037,-0.0732,-0.0422,0.2169,59.02,-36.80,995.24,-35,68,-316
1512180037,0.0513,0.0724,0.2177,25.15,-59.94,1041.26,-36,81,-311
1512180037,-0.0422,-0.0891,0.2192,38.57,-94.48,947.33,-36,81,-311
1512180037,0.0992,0.0618,0.2270,70.31,-50.11,1019.04,-36,81,-311
1512180037,0.0249,-0.0425,0.2368,32.90,-118.84,972.84,-36,81,-311
1512180037,-0.0212,-0.0446,0.2485,-18.07,-124.76,919.31,-36,81,-311
1512180037,-0.0325,-0.0249,0.2454,77.33,-30.64,981.02,-29,95,-304
1512180037,0.0387,0.0181,0.2495,72.57,-125.06,980.71,-29,95,-304
1512180037,0.0023,0.0027,0.2609,52.25,-120.91,988.95,-29,95,-304
1512180037,0.0647,0.0262,0.2598,31.80,-93.02,1040.65,-29,95,-304
1512180037,0.0401,-0.0119,0.2599,28.75,-132.63,1051.09,-31,100,-316
1512180037,0.0390,-0.0061,0.2605,87.52,-111.51,1003.11,-31,100,-316
1512180037,0.0459,0.0241,0.2631,74.58,-124.15,976.99,-31,100,-316
1512180037,0.0214,-0.0052,0.2653,67.57,-119.51,1000.92,-31,100,-316
1512180037,0.0120,-0.0152,0.2706,56.88,-116.94,1025.15,-31,100,-316
1512180037,0.0234,0.0017,0.2764,47.91,-132.08,990.91,-22,88,-324
1512180037,0.0385,0.0212,0.2807,67.63,-134.52,999.33,-22,88,-324
1512180037,0.0357,0.0059,0.2826,52.37,-65.12,1024.41,-22,88,-324
1512180037,0.0045,-0.0437,0.2846,44.56,-99.85,987.30,-22,88,-324
1512180037,0.0226,0.0194,0.2899,5.07,-80.38,1027.40,-22,88,-324
1512180037,0.0029,0.0025,0.2814,52.67,-75.68,1042.72,-19,95,-304
1512180037,0.0461,0.0146,0.2945,54.14,-122.07,987.06,-19,95,-304
1512180037,0.0265,-0.0202,0.2989,51.82,-106.38,973.88,-19,95,-304
1512180037,0.0755,0.0252,0.2987,104.06,-95.40,1015.87,-19,95,-304
1512180037,-0.0053,-0.0240,0.3053,11.72,-119.63,996.52,-14,121,-296
1512180037,-0.0305,-0.0250,0.3041,81.30,-110.47,1000.55,-14,121,-296
1512180037,-0.0192,0.0140,0.3111,19.17,-157.90,1006.71,-14,121,-296
1512180037,-0.0515,-0.0130,0.3088,68.12,-141.30,970.34,-14,121,-296
1512180037,0.0284,0.0354,0.3113,42.54,-103.94,1000.37,-14,121,-296
1512180037,0.0149,-0.0071,0.3127,36.32,-160.64,978.64,-24,114,-299
1512180037,-0.0079,-0.0337,0.3115,92.47,-132.87,927.61,-24,114,-299
1512180037,0.0302,0.0177,0.3095,61.95,-193.73,961.00,-24,114,-299
1512180037,-0.0445,-0.0288,0.3151,52.25,-158.26,968.20,-24,114,-299
1512180037,-0.0077,-0.0115,0.3148,19.47,-106.51,961.98,-24,114,-299
1512180037,-0.0644,-0.0864,0.3100,69.58,-164.18,975.95,0,121,-316
1512180037,-0.0246,0.0366,0.3109,88.07,-127.32,992.07,0,121,-316
1512180037,0.0172,0.0196,0.3115,43.76,-140.44,1036.56,0,121,-316
1512180037,-0.0177,-0.0322,0.3168,73.67,-113.71,1048.46,0,121,-316
1512180038,0.0045,-0.0156,0.3153,46.75,-69.58,1035.89,-3,118,-316
1512180038,0.0192,0.0192,0.3139,20.63,-122.25,1080.99,-3,118,-316
1512180038,0.0045,-0.0197,0.3221,35.40,-73.06,1024.48,-3,118,-316
1512180038,0.1127,0.0553,0.3278,30.46,-48.22,1054.75,-3,118,-316
1512180038,0.0063,0.0249,0.3314,46.02,-108.28,1061.34,-3,118,-316
1512180038,-0.0186,-0.0249,0.3290,111.21,-85.63,995.54,-5,148,-304
1512180038,0.0639,0.0851,0.3401,50.42,-158.63,1042.18,-5,148,-304
1512180038,-0.0269,-0.0308,0.3446,91.55,-103.39,969.97,-5,148,-304
1512180038,0.1210,0.0683,0.3459,77.64,-135.93,999.69,-5,148,-304
1512180038,-0.0246,-0.0609,0.3509,58.29,-183.29,888.79,8,151,-297
1512180038,0.0535,0.0561,0.3630,24.29,-96.56,997.74,8,151,-297
1512180038,0.0152,-0.0294,0.3651,64.39,-78.86,981.51,8,151,-297
1512180038,0.0438,0.0148,0.3727,60.12,-132.39,971.13,8,151,-297
1512180038,0.0100,0.0610,0.3747,123.54,-169.43,1041.02,8,151,-297
1512180038,-0.0166,-0.1005,0.3836,103.82,-130.31,991.82,3,167,-319
1512180038,0.0483,0.0487,0.3931,113.10,-196.47,998.47,3,167,-319
1512180038,-0.0206,-0.0525,0.3953,83.07,-118.65,1065.86,3,167,-319
1512180038,-0.0342,-0.0152,0.3967,76.05,-136.17,974.18,3,167,-319
1512180038,-0.0581,-0.0146,0.4037,48.10,-143.43,1029.60,3,167,-319
1512180038,-0.0772,-0.0301,0.4103,56.09,-136.54,1053.71,0,178,-309
1512180038,-0.0495,0.0091,0.4117,100.28,-170.23,950.99,0,178,-309
1512180038,-0.0240,0.0415,0.4121,120.79,-135.74,988.95,0,178,-309
1512180038,-0.0561,0.0037,0.4132,158.02,-195.25,1045.65,0,178,-309
1512180038,-0.0178,0.0172,0.4198,160.71,-116.88,1036.07,5,176,-294
1512180038,0.0395,0.1142,0.4185,116.21,-178.77,1093.38,5,176,-294
1512180038,-0.0768,-0.0583,0.4175,103.70,-178.22,1096.62,5,176,-294
1512180038,0.0194,0.0234,0.4265,98.08,-125.98,1108.70,5,176,-294
1512180038,0.0471,0.0047,0.4413,69.58,-85.75,1014.04,5,176,-294
1512180038,0.0878,0.0555,0.4361,62.50,-138.67,1001.53,17,188,-306
1512180038,0.0565,0.0398,0.4420,103.88,-85.14,1089.17,17,188,-306
1512180038,0.1021,0.0814,0.4495,61.28,-115.97,1065.92,17,188,-306
1512180038,0.0545,0.0391,0.4486,97.60,-85.75,1049.19,17,188,-306
1512180038,0.0061,-0.0264,0.4503,49.93,-54.20,1096.13,17,188,-306
1512180038,-0.0035,0.0140,0.4521,54.26,-90.58,1063.17,7,216,-316
1512180038,0.0703,0.0751,0.4593,61.77,-85.51,1047.85,7,216,-316
1512180038,-0.0130,-0.0298,0.4589,81.30,-167.36,1071.47,7,216,-316
1512180038,0.0294,0.0529,0.4687,73.49,-148.50,988.40,7,216,-316
1512180038,-0.0664,0.0185,0.4673,112.55,-133.24,970.28,-10,206,-306
1512180039,-0.0165,0.0015,0.4795,148.07,-72.51,877.38,-10,206,-306
1512180039,-0.0069,0.0229,0.4758,100.16,-116.09,979.68,-10,206,-306
1512180039,0.0007,0.0513,0.4779,93.75,-117.55,1099.91,-10,206,-306
1512180039,-0.0431,0.0035,0.4795,178.83,-126.04,975.77,-10,206,-306
1512180039,-0.0109,0.0357,0.4880,135.25,-178.47,907.78,1,232,-297
1512180039,0.0394,0.0433,0.4804,76.97,-167.05,1013.92,1,232,-297
1512180039,-0.0072,0.0136,0.4859,83.98,-77.45,960.14,1,232,-297
1512180039,-0.0101,0.0992,0.4772,118.59,-184.27,1008.18,1,232,-297
1512180039,-0.0241,0.0366,0.4848,125.55,-131.90,1106.38,1,232,-297
1512180039,-0.0212,-0.0016,0.4938,85.51,-166.93,998.54,0,245,-306
1512180039,0.0007,0.0783,0.4973,160.40,-175.42,1044.74,0,245,-306
1512180039,-0.0184,0.0047,0.5023,114.14,-154.11,934.20,0,245,-306
1512180039,0.0447,0.0184,0.5132,67.44,-143.55,941.16,0,245,-306
1512180039,0.0028,0.0866,0.5111,93.81,-150.02,1050.66,-29,264,-308
1512180039,-0.0439,0.0386,0.5253,47.49,-190.00,1052.92,-29,264,-308
1512180039,-0.0393,0.0357,0.5292,155.94,-175.17,950.01,-29,264,-308
1512180039,0.0577,0.0495,0.5309,122.31,-155.46,1062.01,-29,264,-308
1512180039,-0.0001,0.0177,0.5284,136.60,-253.36,978.52,-29,264,-308
1512180039,0.0085,0.0276,0.5345,77.15,-183.84,976.26,-24,273,-306
1512180039,0.0119,0.0000,0.5416,49.19,-167.11,953.67,-24,273,-306
1512180039,-0.0115,0.0222,0.5398,52.61,-164.12,973.51,-24,273,-306
1512180039,-0.0181,-0.0399,0.5539,0.73,-128.11,951.48,-24,273,-306
1512180039,0.0722,0.0430,0.5561,-13.79,-55.79,1032.35,-24,273,-306
1512180039,0.0342,-0.0264,0.5614,32.10,-99.91,1054.02,-14,273,-316
1512180039,0.0800,0.0290,0.5662,121.70,-168.52,943.73,-14,273,-316
1512180039,0.0640,-0.0065,0.5669,78.31,-173.58,944.82,-14,273,-316
1512180039,0.0630,-0.0142,0.5716,51.15,-156.92,958.44,-14,273,-316
1512180039,0.0246,0.0075,0.5719,57.62,-149.41,1031.13,-28,283,-302
1512180039,0.0911,0.0111,0.5803,34.48,-110.66,1064.33,-28,283,-302
1512180039,0.0636,-0.0357,0.5822,99.85,-227.84,1020.20,-28,283,-302
1512180039,0.0570,-0.0013,0.5965,65.98,-33.69,1123.47,-28,283,-302
1512180039,-0.0076,-0.0391,0.5884,73.73,-121.09,1054.38,-28,283,-302
1512180039,-0.0213,0.0021,0.5887,96.92,-20.87,1097.17,-42,308,-309
1512180039,-0.1028,-0.0149,0.5871,47.42,19.04,1123.35,-42,308,-309
1512180039,-0.1593,-0.0664,0.5876,41.38,-27.04,1077.64,-42,308,-309
1512180039,-0.1594,-0.0477,0.5977,-3.72,-45.17,1142.94,-42,308,-309
1512180039,-0.2699,-0.0965,0.5946,41.81,-60.61,1097.35,-29,303,-324
1512180039,-0.2748,-0.0226,0.5993,241.94,-160.40,916.14,-29,303,-324
1512180040,-0.2878,-0.0537,0.6063,219.67,-207.03,911.56,-29,303,-324
1512180040,-0.2858,-0.0836,0.6023,193.97,-243.16,938.72,-29,303,-324
1512180040,-0.1827,-0.0314,0.6056,101.32,-235.05,979.68,-29,303,-324
1512180040,-0.2454,-0.0923,0.6036,118.90,-281.68,990.11,-49,308,-306
1512180040,-0.2434,-0.0321,0.6281,248.96,-373.90,841.49,-49,308,-306
1512180040,-0.1501,-0.0445,0.6104,119.20,-226.32,874.69,-49,308,-306
1512180040,-0.0591,-0.0755,0.6133,50.05,-176.57,884.58,-49,308,-306
1512180040,0.0113,0.0103,0.6083,75.13,-213.62,993.96,-49,308,-306
1512180040,-0.0856,0.0531,0.5886,256.90,-269.90,945.31,-45,326,-326
1512180040,0.0372,0.0415,0.5846,205.02,-216.13,1065.00,-45,326,-326
1512180040,0.0478,0.2092,0.5832,225.16,-210.45,1074.77,-45,326,-326
1512180040,0.1079,0.1278,0.5879,-24.23,-85.51,1134.52,-45,326,-326
1512180040,0.1908,0.1473,0.5748,5.19,-150.09,1112.79,-52,354,-306
1512180040,0.1357,0.2358,0.5776,5.68,-116.15,1115.78,-52,354,-306
1512180040,0.0846,0.2290,0.5746,43.33,-172.79,1029.79,-52,354,-306
1512180040,0.0087,0.1051,0.5726,66.16,-168.27,931.76,-52,354,-306
1512180040,0.0667,0.2407,0.5742,25.57,-137.70,925.35,-52,354,-306
1512180040,-0.0530,0.1096,0.5700,26.67,-138.00,871.09,-72,359,-321
1512180040,-0.0133,0.1799,0.5754,-32.47,-152.47,881.53,-72,359,-321
1512180040,-0.0382,0.0968,0.5760,-45.23,-148.74,987.43,-72,359,-321
1512180040,-0.0972,0.0407,0.5740,4.46,-164.06,859.44,-72,359,-321
1512180040,-0.0754,0.0751,0.5796,-49.07,-155.64,872.74,-86,373,-311
1512180040,-0.1541,0.0266,0.5816,-2.26,-198.06,1017.33,-86,373,-311
1512180040,-0.1844,0.0146,0.5818,83.50,-244.26,939.39,-86,373,-311
1512180040,-0.1023,0.0454,0.5895,27.83,-163.39,1044.98,-86,373,-311
1512180040,-0.1407,-0.0153,0.6117,-122.68,-194.03,1195.86,-86,373,-311
1512180040,-0.1454,-0.2027,0.6144,9.64,-121.34,1162.90,-86,377,-324
1512180040,-0.0856,-0.0490,0.6333,142.76,-235.84,965.70,-86,377,-324
1512180040,-0.1390,-0.1107,0.6312,24.41,-243.10,1035.77,-86,377,-324
1512180040,-0.1890,-0.2337,0.6302,27.83,-203.43,1006.35,-86,377,-324
1512180040,-0.0676,-0.0453,0.6125,73.85,-230.47,1034.55,-86,377,-324
1512180040,-0.2008,-0.1961,0.6195,52.80,-284.42,900.70,-114,380,-328
1512180040,-0.0482,-0.0975,0.6081,50.66,-245.73,928.47,-114,380,-328
1512180040,-0.0999,-0.0682,0.6107,19.59,-270.20,967.53,-114,380,-328
1512180040,-0.1225,-0.1115,0.6188,10.86,-216.80,951.48,-114,380,-328
1512180040,0.0000,0.0715,0.6135,60.24,-210.69,1062.13,-114,387,-328
1512180040,-0.0419,-0.1360,0.6153,34.67,-229.55,1075.87,-114,387,-328
1512180041,0.0563,-0.0246,0.6015,116.21,-272.34,1080.44,-114,387,-328
1512180041,0.0956,0.0325,0.6009,120.54,-368.71,1084.53,-114,387,-328
1512180041,0.0852,-0.1249,0.5879,79.53,-294.68,1031.25,-114,387,-328
1512180041,0.2170,0.0655,0.5619,13.43,-252.14,1053.10,-121,384,-331
1512180041,0.1481,-0.0932,0.5561,9.40,-263.43,978.09,-121,384,-331
1512180041,0.2682,0.0326,0.5546,-86.73,-208.50,1015.38,-121,384,-331
1512180041,0.1593,0.0125,0.5453,-38.27,-254.33,961.43,-121,384,-331
1512180041,0.1248,0.0072,0.5510,-55.91,-184.75,897.95,-121,384,-331
1512180041,0.0748,0.0011,0.5511,-117.00,-175.42,912.90,-133,403,-323
1512180041,0.1076,0.0555,0.5542,-159.55,-142.03,952.27,-133,403,-323
1512180041,0.0184,0.0529,0.5494,-71.59,-184.45,950.99,-133,403,-323
1512180041,0.0667,0.1077,0.5522,-58.29,-173.95,982.97,-133,403,-323
1512180041,0.0100,0.0193,0.5546,-39.55,-196.53,986.45,-170,394,-321
1512180041,0.0088,0.0284,0.5566,-76.42,-202.09,1004.58,-170,394,-321
1512180041,-0.0537,-0.0037,0.5482,-46.33,-208.98,1014.65,-170,394,-321
1512180041,0.0117,0.0383,0.5546,-97.23,-191.41,1026.25,-170,394,-321
1512180041,-0.0519,-0.0092,0.5530,-3.42,-210.57,1048.77,-170,394,-321
1512180041,-0.0262,-0.0011,0.5581,-28.63,-259.64,995.67,-186,410,-330
1512180041,0.0168,-0.0494,0.5686,10.93,-261.96,996.95,-186,410,-330
1512180041,0.0454,0.0284,0.5698,6.77,-272.28,988.46,-186,410,-330
1512180041,0.0092,-0.0274,0.5726,-20.45,-269.59,1004.46,-186,410,-330
1512180041,0.0043,-0.0334,0.5667,-52.00,-204.65,1096.68,-189,400,-323
1512180041,0.0000,-0.0354,0.5586,-15.63,-265.87,980.71,-189,400,-323
1512180041,0.0437,-0.0422,0.5587,-90.76,-178.28,1008.42,-189,400,-323
1512180041,0.0882,-0.0278,0.5534,-78.00,-197.45,944.34,-189,400,-323
1512180041,0.0583,0.0393,0.5513,-135.07,-234.56,958.25,-189,400,-323
1512180041,0.0336,0.0310,0.5384,-98.69,-162.17,974.61,-205,401,-331
1512180041,0.0965,0.0418,0.5349,-107.73,-186.16,979.80,-205,401,-331
1512180041,0.0623,0.0121,0.5372,-65.37,-194.95,972.53,-205,401,-331
1512180041,0.0150,-0.0145,0.5378,-153.75,-163.21,1001.83,-205,401,-331
1512180041,-0.0373,0.0013,0.5277,-123.96,-148.93,986.21,-205,401,-331
1512180041,-0.0115,0.0140,0.5224,-93.81,-164.73,998.47,-226,387,-328
1512180041,-0.0166,-0.0190,0.5136,-89.84,-185.97,960.02,-226,387,-328
1512180041,0.0153,0.0150,0.5124,-96.98,-239.50,1042.42,-226,387,-328
1512180041,-0.0597,-0.0723,0.5076,-94.67,-244.32,941.71,-226,387,-328
1512180041,0.0107,0.0518,0.4969,-93.99,-236.88,999.82,-228,400,-326
1512180041,-0.0557,-0.0539,0.4864,-43.52,-260.86,923.95,-228,400,-326
1512180041,0.0357,0.0382,0.4843,-77.76,-237.67,961.85,-228,400,-326
1512180042,-0.0569,-0.0272,0.4774,-100.52,-234.74,937.81,-228,400,-326
1512180042,-0.0208,0.0210,0.4674,-51.94,-221.56,959.41,-228,400,-326
1512180042,0.0328,0.0450,0.4651,-65.61,-251.77,990.36,-254,394,-321
1512180042,0.0240,0.0161,0.4573,-52.19,-230.16,1008.91,-254,394,-321
1512180042,0.0168,-0.0128,0.4614,-124.63,-221.19,1002.44,-254,394,-321
1512180042,0.0490,0.0136,0.4565,-114.44,-200.74,1079.71,-254,394,-321
1512180042,0.0447,-0.0020,0.4511,-90.39,-237.55,1005.68,-272,391,-338
1512180042,0.0558,0.0499,0.4469,-131.65,-221.68,1048.28,-272,391,-338
1512180042,0.0316,0.0248,0.4433,-95.09,-206.48,1027.65,-272,391,-338
1512180042,0.0361,0.0338,0.4352,-69.95,-215.39,1001.77,-272,391,-338
1512180042,0.1076,0.0402,0.4358,-89.54,-169.31,1031.80,-272,391,-338
1512180042,0.0876,0.0318,0.4312,-97.72,-181.09,1043.40,-288,379,-343
1512180042,0.0262,0.0121,0.4252,-161.01,-202.51,1035.83,-288,379,-343
1512180042,-0.0186,-0.0320,0.4144,-126.10,-183.29,985.60,-288,379,-343
1512180042,0.0356,0.0189,0.4149,-137.15,-167.54,1000.67,-288,379,-343
1512180042,0.0237,-0.0153,0.4056,-110.29,-194.70,1005.49,-288,379,-343
1512180042,0.0326,0.0003,0.4041,-127.08,-188.60,942.38,-289,387,-335
1512180042,-0.0401,-0.0085,0.3907,-55.05,-211.61,920.96,-289,387,-335
1512180042,0.0206,0.0332,0.3912,-145.39,-182.98,899.17,-289,387,-335
1512180042,0.0310,0.0051,0.3840,-74.77,-186.10,901.49,-289,387,-335
1512180042,0.0521,0.0434,0.3804,-128.30,-151.61,927.73,-295,382,-343
1512180042,0.0156,-0.0037,0.3730,-105.59,-174.62,970.89,-295,382,-343
1512180042,0.0234,0.0060,0.3657,-139.40,-199.40,964.60,-295,382,-343
1512180042,-0.0505,-0.0393,0.3531,-135.62,-183.35,999.69,-295,382,-343
1512180042,-0.0510,0.0212,0.3373,-153.56,-168.58,1006.53,-295,382,-343
1512180042,-0.0960,-0.0501,0.3245,-154.30,-141.11,979.13,-316,364,-340
1512180042,0.0194,0.0269,0.3149,-186.95,-129.52,996.83,-316,364,-340
1512180042,0.0040,-0.0427,0.2995,-143.07,-135.07,1015.69,-316,364,-340
1512180042,0.0640,0.0081,0.2888,-164.86,-133.00,1047.24,-316,364,-340
1512180042,0.0111,-0.0570,0.2799,-176.27,-163.88,1029.36,-316,361,-340
1512180042,0.0683,0.0218,0.2723,-120.61,-131.96,1062.93,-316,361,-340
1512180042,0.0399,0.0065,0.2583,-132.63,-158.57,1102.66,-316,361,-340
1512180042,-0.0107,-0.0393,0.2431,-126.65,-159.24,1028.69,-316,361,-340
1512180042,0.0895,0.0751,0.2345,-129.52,-192.08,1024.72,-316,361,-340
1512180042,-0.0017,-0.0605,0.2296,-114.81,-215.03,952.82,-328,345,-328
1512180042,0.0623,0.0652,0.2172,-154.97,-159.97,1008.67,-328,345,-328
1512180042,-0.0115,0.0057,0.2108,-133.54,-161.44,983.64,-328,345,-328
1512180042,-0.0217,-0.0048,0.2056,-147.22,-130.98,972.11,-328,345,-328
1512180043,-0.0084,-0.0021,0.1997,-170.90,-109.92,983.83,-328,345,-328
1512180043,0.0513,0.0481,0.1908,-145.81,-131.23,960.21,-319,364,-346
1512180043,0.0194,0.0288,0.1838,-187.50,-139.04,907.84,-319,364,-346
1512180043,0.0525,0.0569,0.1735,-157.17,-105.47,961.98,-319,364,-346
1512180043,-0.0053,0.0091,0.1642,-187.68,-102.42,925.90,-319,364,-346
1512180043,0.0257,0.0317,0.1579,-142.88,-108.76,977.78,-319,364,-346
1512180043,-0.0269,-0.0057,0.1575,-165.41,-133.61,1002.93,-346,363,-341
1512180043,-0.0226,0.0012,0.1567,-133.00,-118.47,976.14,-346,363,-341
1512180043,0.0101,-0.0244,0.1566,-219.48,-102.60,1000.98,-346,363,-341
1512180043,0.0190,-0.0097,0.1545,-160.77,-75.74,980.04,-346,363,-341
1512180043,0.0072,-0.0290,0.1525,-151.06,-73.06,1040.28,-346,352,-338
1512180043,-0.0256,-0.0445,0.1534,-160.46,-153.75,965.58,-346,352,-338
1512180043,-0.0016,-0.0245,0.1530,-154.79,-113.46,998.72,-346,352,-338
1512180043,0.0156,-0.0361,0.1483,-133.67,-125.18,997.07,-346,352,-338
1512180043,0.0730,-0.0194,0.1497,-142.58,-148.38,976.01,-346,352,-338
1512180043,0.0161,0.0048,0.1458,-171.39,-141.30,1055.36,-340,361,-343
1512180043,-0.0636,-0.0700,0.1423,-110.90,-90.70,1028.26,-340,361,-343
1512180043,0.0248,0.0057,0.1374,-110.11,-168.76,1012.63,-340,361,-343
1512180043,-0.0060,0.0047,0.1337,-130.55,-134.46,1031.19,-340,361,-343
1512180043,0.0830,-0.0586,0.1321,-94.18,-115.78,945.98,-335,338,-338
1512180043,0.1301,0.0273,0.1330,-141.54,-95.03,1028.26,-335,338,-338
1512180043,0.0032,-0.0569,0.1226,-160.46,-95.34,971.37,-335,338,-338
1512180043,0.0751,0.0575,0.1218,-126.16,-103.70,1003.30,-335,338,-338
1512180043,0.0119,0.0024,0.1116,-113.59,-108.46,978.88,-335,338,-338
1512180043,0.0362,-0.0244,0.1127,-166.99,-46.63,958.86,-360,349,-338
1512180043,0.0602,-0.0025,0.1104,-97.60,-63.90,963.75,-360,349,-338
1512180043,0.0317,0.0730,0.1075,-187.38,-79.04,998.35,-360,349,-338
1512180043,-0.0121,0.0117,0.1032,-137.08,-55.91,1018.74,-360,349,-338
1512180043,0.0644,0.0554,0.0989,-137.70,-23.25,1074.22,-360,349,-338
1512180043,0.0111,-0.0071,0.0972,-110.78,-98.69,1007.81,-358,343,-336
1512180043,0.0200,-0.0107,0.0959,-119.75,8.30,1056.15,-358,343,-336
1512180043,0.0401,-0.0104,0.0896,-172.55,-56.70,1019.35,-358,343,-336
1512180043,-0.0112,0.0277,0.0939,-214.48,-44.19,1011.96,-358,343,-336
1512180043,0.0119,0.0101,0.0828,-106.57,-56.52,1002.38,-379,333,-340
1512180043,0.0132,0.0419,0.0827,-132.08,-96.62,915.77,-379,333,-340
1512180043,0.0549,0.0309,0.0870,-130.37,-60.00,1026.37,-379,333,-340
1512180043,-0.0382,-0.1161,0.0814,-171.14,-38.33,970.58,-379,333,-340
1512180044,0.0419,0.1083,0.0771,-176.33,-88.75,1012.88,-379,333,-340
1512180044,-0.1068,-0.0186,0.0792,-194.34,-76.48,1141.54,-374,342,-345
1512180044,-0.0145,-0.0383,0.0726,-120.24,-27.83,943.36,-374,342,-345
1512180044,0.0609,0.0613,0.0636,-186.10,-110.35,977.17,-374,342,-345
1512180044,-0.0542,-0.0783,0.0667,-172.91,-52.37,967.96,-374,342,-345
1512180044,0.0060,0.0553,0.0589,-145.51,-58.84,974.37,-361,340,-346
1512180044,-0.0316,0.0210,0.0582,-180.11,-43.88,1096.80,-361,340,-346
1512180044,-0.0234,-0.0194,0.0537,-135.80,-46.39,1016.85,-361,340,-346
1512180044,0.1281,-0.0256,0.0467,-179.63,-34.24,979.00,-361,340,-346
1512180044,0.0876,0.0033,0.0435,-107.06,-55.24,994.81,-361,340,-346
1512180044,0.0310,0.0150,0.0505,-158.57,-29.66,1014.65,-365,329,-336
1512180044,-0.0952,-0.0650,0.0374,-147.34,-53.16,957.95,-365,329,-336
1512180044,-0.0808,-0.0154,0.0425,-149.11,-51.39,948.67,-365,329,-336
1512180044,0.0115,-0.0025,0.0449,-122.44,-52.37,900.51,-365,329,-336
1512180044,0.0591,-0.0330,0.0387,-110.29,-45.10,985.72,-365,329,-336
1512180044,0.0676,0.0253,0.0314,-123.66,-54.02,981.02,-367,327,-338
1512180044,-0.0123,-0.0708,0.0345,-84.11,-50.29,1004.52,-367,327,-338
1512180044,-0.0599,-0.0374,0.0346,-97.84,9.40,947.81,-367,327,-338
1512180044,-0.0172,-0.0241,0.0177,-45.90,37.29,1022.22,-367,327,-338
1512180044,-0.0285,-0.0565,0.0364,-31.07,2.87,1010.13,-370,313,-331
1512180044,-0.0051,0.0081,0.0304,-59.45,-67.20,939.15,-370,313,-331
1512180044,0.0016,-0.0225,0.0383,-112.55,-13.00,981.26,-370,313,-331
1512180044,0.1044,0.0487,0.0362,-96.62,-9.70,1064.03,-370,313,-331
1512180044,0.0111,-0.0442,0.0401,-92.29,-22.03,1033.75,-370,313,-331
1512180044,0.0228,-0.0656,0.0316,-89.60,-28.56,968.20,-377,303,-318
1512180044,0.1048,0.1056,0.0421,-118.29,22.22,1022.58,-377,303,-318
1512180044,0.0060,-0.0571,0.0357,-126.22,35.03,1018.19,-377,303,-318
1512180044,-0.0338,-0.0169,0.0353,-53.53,-36.01,911.68,-377,303,-318
1512180044,0.0364,0.0372,0.0414,-110.29,44.25,1064.33,-386,315,-336
1512180044,-0.0633,-0.1073,0.0362,-82.89,-53.59,960.33,-386,315,-336
1512180044,0.0715,0.0771,0.0332,-50.17,29.17,1034.73,-386,315,-336
1512180044,-0.0621,-0.0527,0.0349,-37.41,-26.43,976.20,-386,315,-336
1512180044,0.0571,0.0897,0.0427,-117.19,34.61,1060.85,-386,315,-336
1512180044,0.0142,0.0017,0.0410,-132.69,3.42,1053.89,-370,310,-328
1512180044,-0.0035,0.0170,0.0387,-45.72,28.69,1045.59,-370,310,-328
1512180044,-0.0109,0.0048,0.0362,-18.49,4.76,1074.04,-370,310,-328
1512180044,-0.0597,0.0088,0.0358,10.93,6.29,968.75,-370,310,-328
1512180044,-0.0258,0.0386,0.0373,42.05,-38.33,969.18,-370,310,-328
1512180045,0.0088,0.0338,0.0340,-57.80,-83.31,1083.50,-368,315,-323
1512180045,-0.0368,-0.0700,0.0386,-25.21,-6.10,998.05,-368,315,-323
1512180045,0.0273,0.0963,0.0413,-88.44,-27.95,1056.70,-368,315,-323
1512180045,-0.0879,-0.0808,0.0422,27.22,0.00,936.28,-368,315,-323
1512180045,-0.0051,0.0190,0.0374,-49.93,-18.80,945.01,-372,326,-333
1512180045,-0.0555,-0.0039,0.0489,-40.16,42.54,1061.65,-372,326,-333
1512180045,0.0276,-0.0188,0.0471,-46.08,35.16,997.68,-372,326,-333
1512180045,0.0521,0.0703,0.0467,-43.88,-14.65,1115.11,-372,326,-333
1512180045,-0.0768,-0.0387,0.0543,3.72,-57.56,956.48,-372,326,-333
1512180045,-0.0252,0.0087,0.0589,-33.33,-25.82,985.41,-363,320,-345
1512180045,-0.0467,-0.0222,0.0666,-30.27,-52.06,983.40,-363,320,-345
1512180045,-0.0398,0.0177,0.0680,24.60,-55.91,985.11,-363,320,-345
1512180045,-0.0369,-0.0222,0.0732,16.60,-99.06,963.26,-363,320,-345
1512180045,-0.0196,0.0091,0.0743,54.81,-115.11,984.56,-361,336,-330
1512180045,-0.0539,-0.0218,0.0826,13.55,-65.86,995.79,-361,336,-330
1512180045,-0.0429,0.0164,0.0858,71.11,-93.87,1099.12,-361,336,-330
1512180045,-0.0190,-0.0364,0.0955,-17.52,12.15,978.15,-361,336,-330
1512180045,-0.0193,0.0554,0.0859,71.11,-80.87,1044.62,-361,336,-330
1512180045,-0.0780,0.0017,0.0912,-5.13,-70.92,1086.61,-374,310,-338
1512180045,-0.0770,-0.0575,0.0944,-27.83,-25.94,982.67,-374,310,-338
1512180045,-0.0399,0.0542,0.0952,-28.56,-0.24,1023.44,-374,310,-338
1512180045,-0.1276,-0.0462,0.0968,6.90,-44.62,1049.62,-374,310,-338
1512180045,-0.1296,0.0189,0.0983,4.64,-48.95,961.55,-374,310,-338
1512180045,0.0305,0.0076,0.0961,-33.39,-30.82,1012.21,-381,313,-341
1512180045,-0.0209,-0.0453,0.0968,-26.61,-7.51,1031.62,-381,313,-341
1512180045,0.0085,0.0304,0.0913,35.22,-41.69,960.27,-381,313,-341
1512180045,0.0213,0.0124,0.0895,15.20,10.68,994.45,-381,313,-341
1512180045,0.0056,-0.0377,0.0893,10.99,-40.71,915.41,-365,315,-333
1512180045,-0.0043,0.0326,0.0848,31.13,-51.33,948.36,-365,315,-333
1512180045,-0.0260,0.0124,0.0880,-53.04,-30.15,1021.24,-365,315,-333
1512180045,-0.0546,-0.0386,0.0903,14.65,-39.12,1036.99,-365,315,-333
1512180045,-0.0024,0.0091,0.0929,28.75,-71.96,979.00,-365,315,-333
1512180045,0.0007,0.0164,0.0931,3.36,-98.27,1077.45,-379,312,-340
1512180045,-0.0545,-0.0256,0.0996,-21.48,31.07,1083.25,-379,312,-340
1512180045,-0.0354,-0.0553,0.0863,21.24,-45.23,1075.62,-379,312,-340
1512180045,-0.0047,0.0224,0.0925,6.90,-81.85,1031.13,-379,312,-340
1512180045,-0.0622,-0.0485,0.0961,43.03,-18.74,1034.91,-379,312,-340
1512180045,0.0162,0.0258,0.0931,73.12,-39.43,1033.63,-381,306,-331
1512180046,0.0306,0.0293,0.1037,47.12,-93.26,1001.65,-381,306,-331
1512180046,0.0049,-0.0226,0.1065,101.75,-75.87,904.30,-381,306,-331
1512180046,0.0699,0.1123,0.1069,30.40,-134.70,984.37,-381,306,-331
1512180046,-0.0997,-0.0816,0.1218,79.65,-112.85,867.55,-372,280,-336
1512180046,-0.0333,0.0591,0.1254,49.19,-93.38,873.35,-372,280,-336
1512180046,-0.0569,0.0104,0.1234,-25.09,-84.72,983.89,-372,280,-336
1512180046,-0.1238,-0.0076,0.1256,31.74,-157.35,910.03,-372,280,-336
1512180046,-0.0752,0.0687,0.1310,74.10,-118.16,963.44,-372,280,-336
1512180046,-0.0874,-0.0322,0.1353,28.99,-57.37,1047.61,-381,296,-335
1512180046,-0.0993,-0.0487,0.1372,73.18,-135.74,955.99,-381,296,-335
1512180046,-0.0722,0.0204,0.1405,53.71,-140.81,981.32,-381,296,-335
1512180046,-0.0652,-0.0229,0.1437,39.55,-77.21,1056.09,-381,296,-335
1512180046,-0.0402,-0.0402,0.1543,36.93,-84.84,992.13,-360,296,-321
1512180046,0.0031,-0.0228,0.1529,55.36,-98.88,1085.88,-360,296,-321
1512180046,-0.0667,-0.0539,0.1547,100.95,-194.27,1007.69,-360,296,-321
1512180046,-0.0855,-0.0270,0.1734,27.53,-111.57,1074.04,-360,296,-321
1512180046,-0.1081,-0.0469,0.1752,140.75,-177.25,1009.77,-360,296,-321
1512180046,-0.0374,0.0474,0.1783,99.67,-226.87,941.89,-390,290,-333
1512180046,-0.0599,-0.0021,0.1921,127.14,-215.15,985.66,-390,290,-333
1512180046,-0.0543,0.0274,0.1944,130.43,-122.92,987.43,-390,290,-333
1512180046,-0.0402,0.0449,0.2037,48.28,-144.71,1014.77,-390,290,-333
1512180046,-0.0073,-0.0198,0.2076,46.63,-65.55,1028.63,-390,290,-333
1512180046,0.0025,0.0787,0.2152,43.95,-77.09,1023.50,-381,299,-324
1512180046,-0.0234,0.0189,0.2241,47.42,-171.63,951.35,-381,299,-324
1512180046,-0.0341,0.0144,0.2281,108.22,-153.02,828.37,-381,299,-324
1512180046,-0.0652,0.0907,0.2396,91.13,-165.41,918.46,-381,299,-324
1512180046,-0.1566,-0.0501,0.2354,85.94,-129.88,912.84,-393,294,-333
1512180046,-0.0297,-0.0032,0.2442,24.05,-130.62,977.91,-393,294,-333
1512180046,-0.0447,-0.0330,0.2497,59.69,-118.84,1012.82,-393,294,-333
1512180046,-0.0623,0.0064,0.2562,109.50,-207.40,984.44,-393,294,-333
1512180046,-0.0361,-0.0047,0.2590,110.35,-221.74,1025.94,-393,294,-333
1512180046,-0.0389,0.0176,0.2735,133.54,-252.93,991.03,-388,278,-308
1512180046,-0.1184,-0.0333,0.2718,119.51,-248.96,966.49,-388,278,-308
1512180046,-0.0446,0.0157,0.2774,112.98,-180.36,1049.50,-388,278,-308
1512180046,-0.0860,-0.0692,0.2847,85.94,-192.38,995.79,-388,278,-308
1512180046,0.0024,0.0001,0.2868,103.03,-153.32,981.08,-388,278,-308
1512180046,-0.0049,0.0316,0.2923,109.13,-148.86,1079.35,-402,278,-314
1512180047,-0.0052,-0.0138,0.2992,55.97,-166.08,1141.60,-402,278,-314
1512180047,-0.0730,-0.0533,0.2976,100.52,-174.80,989.56,-402,278,-314
1512180047,-0.0041,0.0675,0.3049,53.47,-162.29,1098.39,-402,278,-314
1512180047,-0.0360,-0.0662,0.3073,95.70,-198.00,961.67,-398,275,-338
1512180047,0.0469,-0.0333,0.3147,84.29,-145.63,923.40,-398,275,-338
1512180047,-0.0276,0.0395,0.3184,81.60,-186.28,992.92,-398,275,-338
1512180047,-0.0932,0.0035,0.3241,94.48,-184.63,943.36,-398,275,-338
1512180047,-0.0380,0.0353,0.3246,119.45,-156.25,1025.63,-398,275,-338
1512180047,-0.0310,0.0007,0.3328,89.54,-151.79,1002.14,-404,280,-313
1512180047,0.0004,0.0389,0.3248,154.91,-201.17,1024.84,-404,280,-313
1512180047,-0.0132,0.0053,0.3281,105.65,-247.86,900.51,-404,280,-313
1512180047,0.0125,0.0262,0.3278,49.26,-236.51,930.91,-404,280,-313
1512180047,-0.0249,0.0290,0.3238,99.37,-211.24,1029.54,-395,253,-324
1512180047,-0.0486,-0.0338,0.3233,82.70,-209.84,1007.87,-395,253,-324
1512180047,-0.0153,0.0152,0.3246,62.19,-179.69,950.20,-395,253,-324
1512180047,0.0039,-0.0716,0.3290,75.68,-141.54,852.11,-395,253,-324
1512180047,0.0897,0.0694,0.3356,43.09,-146.18,921.63,-395,253,-324
1512180047,0.0602,0.0324,0.3360,59.63,-188.23,1040.89,-423,257,-314
1512180047,0.0487,-0.0297,0.3461,98.14,-191.77,1007.87,-423,257,-314
1512180047,0.0425,0.0004,0.3447,63.96,-181.21,999.15,-423,257,-314
1512180047,0.0425,-0.0457,0.3451,107.36,-133.36,1093.02,-423,257,-314
1512180047,0.0554,-0.0325,0.3439,73.73,-177.37,1050.05,-423,257,-314
1512180047,0.0585,-0.0237,0.3435,91.19,-206.48,1017.82,-398,246,-331
1512180047,-0.0097,-0.0699,0.3467,100.04,-196.17,958.80,-398,246,-331
1512180047,0.0647,0.0419,0.3486,90.39,-189.33,1040.10,-398,246,-331
1512180047,-0.0702,-0.0975,0.3475,127.75,-223.51,1010.50,-398,246,-331
1512180047,-0.0051,0.0012,0.3533,108.83,-190.06,1010.56,-418,237,-323
1512180047,-0.0226,-0.0197,0.3575,85.33,-202.64,990.05,-418,237,-323
1512180047,-0.0278,0.0173,0.3519,97.53,-239.69,960.75,-418,237,-323
1512180047,-0.0405,0.0755,0.3606,135.25,-254.09,992.68,-418,237,-323
1512180047,-0.0402,0.0059,0.3623,84.78,-215.39,1007.26,-418,237,-323
1512180047,-0.0130,0.0136,0.3555,84.47,-198.36,992.61,-421,237,-326
1512180047,-0.1149,0.0032,0.3534,100.65,-256.65,938.42,-421,237,-326
1512180047,-0.0526,0.0567,0.3573,58.84,-222.72,1029.36,-421,237,-326
1512180047,-0.0316,0.0184,0.3531,103.45,-233.64,1031.43,-421,237,-326
1512180047,0.0188,0.0866,0.3506,107.97,-247.07,971.92,-430,218,-324
1512180047,-0.0216,0.0406,0.3443,74.28,-205.14,986.33,-430,218,-324
1512180047,-0.0160,0.0483,0.3402,81.24,-237.73,962.34,-430,218,-324
1512180048,-0.0304,0.0173,0.3398,14.10,-167.54,971.86,-430,218,-324
1512180048,0.0138,0.0250,0.3353,-13.06,-147.89,1020.45,-430,218,-324
1512180048,0.0137,0.0093,0.3322,21.85,-166.75,1026.79,-432,220,-323
1512180048,0.0076,0.0345,0.3289,25.15,-187.13,995.67,-432,220,-323
1512180048,0.0061,-0.0011,0.3242,40.34,-170.72,1028.63,-432,220,-323
1512180048,0.0513,0.0447,0.3181,7.26,-164.49,1007.81,-432,220,-323
1512180048,0.0080,0.0269,0.3109,23.44,-149.84,1049.87,-432,220,-323
1512180048,0.0172,0.0170,0.3052,-6.96,-162.11,1061.71,-425,213,-336
1512180048,-0.0236,-0.0447,0.3079,8.00,-129.27,1000.49,-425,213,-336
1512180048,0.1258,0.0923,0.3004,27.22,-170.59,1000.85,-425,213,-336
1512180048,0.0567,0.0091,0.2949,63.84,-182.19,1072.75,-425,213,-336
1512180048,0.0158,0.0268,0.2854,74.83,-205.44,1049.56,-418,188,-333
1512180048,-0.0043,-0.0350,0.2871,26.31,-188.84,1001.46,-418,188,-333
1512180048,-0.0120,-0.0093,0.2863,16.24,-189.64,938.84,-418,188,-333
1512180048,-0.0304,-0.0130,0.2891,5.07,-164.00,982.97,-418,188,-333
1512180048,0.0029,0.0482,0.2818,52.31,-182.25,1023.44,-418,188,-333
1512180048,-0.0467,-0.0431,0.2799,53.53,-148.01,1020.87,-423,190,-324
1512180048,0.0418,0.0627,0.2778,36.19,-172.49,953.86,-423,190,-324
1512180048,-0.0011,0.0366,0.2690,18.31,-149.60,964.66,-423,190,-324
1512180048,0.0029,0.0762,0.2653,20.14,-208.50,987.00,-423,190,-324
1512180048,-0.0802,0.0169,0.2629,29.85,-178.41,1018.55,-425,178,-326
1512180048,-0.0109,0.0610,0.2582,6.59,-158.26,1029.79,-425,178,-326
1512180048,-0.0490,-0.0360,0.2523,-0.98,-136.84,1036.80,-425,178,-326
1512180048,0.0189,0.0395,0.2431,53.77,-145.63,1009.28,-425,178,-326
1512180048,-0.0248,0.0132,0.2358,27.71,-166.99,1032.59,-425,178,-326
1512180048,-0.0547,0.0011,0.2354,7.45,-198.18,980.16,-425,192,-323
1512180048,-0.0627,0.0162,0.2228,26.98,-175.23,1009.77,-425,192,-323
1512180048,-0.0429,0.0212,0.2244,-11.29,-121.03,1040.53,-425,192,-323
1512180048,-0.0236,0.0113,0.2197,5.98,-124.51,1047.55,-425,192,-323
1512180048,-0.0127,-0.0108,0.2162,16.17,-121.34,960.63,-425,192,-323
1512180048,0.0346,0.0065,0.2060,29.36,-124.15,1033.33,-414,188,-323
1512180048,-0.0382,-0.0128,0.2052,8.24,-143.37,1000.73,-414,188,-323
1512180048,-0.0409,-0.0309,0.1984,6.53,-111.02,1004.88,-414,188,-323
1512180048,0.0782,0.0080,0.1925,-32.17,-100.16,1045.72,-414,188,-323
1512180048,0.0377,-0.0172,0.1884,4.39,-73.12,1037.11,-405,190,-348
1512180048,0.0981,0.0189,0.1855,16.11,-122.80,998.47,-405,190,-348
1512180048,0.0530,-0.0531,0.1796,8.61,-36.32,1012.02,-405,190,-348
1512180048,0.0631,0.0314,0.1711,-10.56,-74.52,1008.79,-405,190,-348
1512180049,-0.0305,-0.0699,0.1662,-1.46,-94.42,1006.35,-405,190,-348
1512180049,0.0302,0.0277,0.1626,-21.12,-86.98,998.96,-418,163,-353
1512180049,0.0387,0.0013,0.1575,29.36,-79.65,1034.85,-418,163,-353
1512180049,-0.0178,-0.0105,0.1517,20.08,-84.41,967.29,-418,163,-353
1512180049,-0.0703,-0.0459,0.1470,37.90,-97.96,967.53,-418,163,-353
1512180049,0.0047,-0.0125,0.1511,-25.02,-15.44,1007.75,-418,163,-353
1512180049,-0.0228,-0.0298,0.1429,13.37,-108.76,995.00,-414,171,-353
1512180049,-0.0096,-0.0087,0.1415,1.28,-30.52,967.83,-414,171,-353
1512180049,-0.0292,-0.0141,0.1399,25.76,-54.44,998.41,-414,171,-353
1512180049,-0.0333,-0.0676,0.1368,-27.53,-41.56,975.89,-414,171,-353
1512180049,0.0246,0.0180,0.1313,-25.57,-35.10,986.57,-402,158,-335
1512180049,0.0041,0.0385,0.1280,-28.32,-66.65,1026.55,-402,158,-335
1512180049,-0.0595,0.0071,0.1286,23.01,-116.21,997.56,-402,158,-335
1512180049,-0.0589,-0.0017,0.1241,-0.55,-67.08,991.03,-402,158,-335
1512180049,-0.0907,-0.0627,0.1204,142.27,-132.26,955.38,-402,158,-335
1512180049,0.0433,0.1041,0.1232,101.50,-119.38,973.82,-395,148,-338
1512180049,0.0445,-0.0217,0.1224,41.14,-81.73,992.68,-395,148,-338
1512180049,0.1127,0.0389,0.1185,-11.29,-68.36,964.84,-395,148,-338
1512180049,0.0221,-0.0537,0.1103,-8.85,-16.85,1005.25,-395,148,-338
1512180049,0.0138,0.0965,0.1152,-35.34,26.92,1116.76,-409,148,-338
1512180049,-0.0784,-0.1064,0.1188,-57.01,-5.62,1045.72,-409,148,-338
1512180049,-0.0655,0.0206,0.1209,68.54,-37.96,1024.72,-409,148,-338
1512180049,-0.1067,0.0301,0.1198,58.90,-176.15,1013.00,-409,148,-338
1512180049,-0.1660,-0.0866,0.1132,80.20,-107.12,925.60,-409,148,-338
1512180049,-0.0409,0.0402,0.1076,72.94,-38.27,1049.87,-398,148,-338
1512180049,-0.0936,-0.1051,0.1064,-0.55,-16.36,979.49,-398,148,-338
1512180049,0.0192,-0.0185,0.1072,17.82,-30.21,969.24,-398,148,-338
1512180049,0.0051,-0.0157,0.1095,9.09,-53.71,992.07,-398,148,-338
1512180049,0.0249,0.0462,0.1161,5.07,-69.70,1013.49,-398,148,-338
1512180049,0.0442,0.0329,0.1173,30.21,-44.86,1039.55,-400,142,-343
1512180049,-0.0182,-0.0927,0.1196,68.91,-93.57,987.43,-400,142,-343
1512180049,0.0137,0.0558,0.1189,37.60,-147.28,958.98,-400,142,-343
1512180049,0.0917,0.0438,0.1189,80.02,-116.82,957.46,-400,142,-343
1512180049,0.1077,0.0786,0.1174,90.03,-103.45,981.75,-400,142,-346
1512180049,-0.0148,0.0004,0.1139,51.88,-110.72,1025.63,-400,142,-346
1512180049,-0.0935,-0.0302,0.1193,28.08,-69.95,942.50,-400,142,-346
1512180049,-0.0176,0.0405,0.1176,0.61,-69.34,1025.57,-400,142,-346
1512180050,-0.0654,-0.0687,0.1178,27.89,-37.90,994.51,-400,142,-346
1512180050,-0.0092,0.0406,0.1228,-14.71,-124.39,1034.55,-388,123,-328
1512180050,-0.1985,-0.1820,0.1272,11.35,-118.41,930.05,-388,123,-328
1512180050,-0.0039,0.0413,0.1194,24.54,-64.58,925.42,-388,123,-328
1512180050,-0.0209,0.0418,0.1180,3.23,-104.25,1048.83,-388,123,-328
1512180050,-0.0170,-0.0586,0.1216,69.46,-102.17,939.88,-388,123,-328
1512180050,0.0185,0.0606,0.1180,30.46,-90.64,1028.20,-414,139,-336
1512180050,-0.0583,-0.0719,0.1237,87.10,-90.94,968.87,-414,139,-336
1512180050,0.0277,0.0309,0.1224,48.22,-125.98,1002.81,-414,139,-336
1512180050,0.0055,-0.0103,0.1253,69.34,-87.40,998.54,-414,139,-336
1512180050,0.0393,0.0044,0.1230,57.62,-131.16,993.23,-377,130,-335
1512180050,0.0249,0.0053,0.1225,58.84,-63.17,983.95,-377,130,-335
1512180050,0.0549,0.0234,0.1233,37.72,-48.34,1017.03,-377,130,-335
1512180050,0.0603,0.0132,0.1258,34.24,-49.99,961.73,-377,130,-335
1512180050,0.0736,-0.0044,0.1256,42.97,-25.76,947.75,-377,130,-335
1512180050,0.1048,0.0032,0.1226,25.51,-67.02,972.96,-393,135,-336
1512180050,-0.0288,0.0109,0.1240,49.01,-116.94,975.34,-393,135,-336
1512180050,-0.0232,0.0518,0.1218,54.08,-88.75,981.02,-393,135,-336
1512180050,-0.0406,0.0423,0.1228,33.26,-93.44,1028.99,-393,135,-336
1512180050,-0.0433,-0.0486,0.1242,57.92,-69.34,978.76,-412,151,-338
1512180050,0.0161,0.0473,0.1254,39.79,-52.19,990.72,-412,151,-338
1512180050,0.0041,-0.0353,0.1212,18.62,-15.63,1069.58,-412,151,-338
1512180050,-0.0242,0.0020,0.1238,34.42,-80.75,1001.22,-412,151,-338
1512180050,-0.0276,-0.0043,0.1272,43.76,-31.13,1063.90,-412,151,-338
1512180050,-0.0551,-0.0374,0.1253,85.94,-102.72,975.16,-409,130,-328
1512180050,0.0338,0.0316,0.1292,35.28,-76.35,988.22,-409,130,-328
1512180050,0.0109,0.0077,0.1288,102.23,-80.57,998.54,-409,130,-328
1512180050,0.0514,0.0563,0.1316,47.85,-90.82,1011.66,-409,130,-328
1512180050,-0.0238,0.0385,0.1322,54.63,-110.47,1001.28,-409,130,-328
1512180050,0.0053,0.0214,0.1349,38.27,-102.05,982.85,-411,125,-340
1512180050,-0.0081,0.0495,0.1365,62.50,-92.53,981.63,-411,125,-340
1512180050,-0.0704,-0.0292,0.1421,57.25,-38.33,929.87,-411,125,-340
1512180050,0.0137,0.0369,0.1384,48.40,-76.60,932.62,-411,125,-340
1512180050,0.0021,0.0356,0.1381,51.21,-69.76,936.52,-402,112,-348
1512180050,0.0590,0.0430,0.1397,89.05,-106.69,959.17,-402,112,-348
1512180050,0.0198,-0.0056,0.1449,60.85,-127.26,888.67,-402,112,-348
1512180050,0.0684,0.0489,0.1539,82.58,-101.87,977.84,-402,112,-348
1512180050,-0.0150,-0.1017,0.1509,49.87,-54.14,963.75,-402,112,-348
1512180051,0.0270,-0.0752,0.1498,30.52,-75.32,982.36,-409,109,-328
1512180051,-0.0013,-0.0666,0.1529,31.25,17.64,991.39,-409,109,-328
1512180051,0.0216,-0.0254,0.1558,30.03,-22.52,1049.26,-409,109,-328
1512180051,-0.0095,-0.0778,0.1651,34.06,-62.38,1056.09,-409,109,-328
1512180051,0.0407,-0.0497,0.1648,79.53,-73.91,997.80,-409,109,-328
1512180051,0.0194,-0.0290,0.1734,68.30,-60.06,1041.38,-418,93,-330
1512180051,0.0229,-0.0165,0.1734,131.35,-109.01,1059.75,-418,93,-330
1512180051,0.0611,0.0190,0.1807,87.95,-68.42,1123.60,-418,93,-330
1512180051,0.0145,-0.0579,0.1900,116.33,-71.59,1089.78,-418,93,-330
1512180051,0.0538,-0.0060,0.1956,95.28,-44.01,890.62,-418,93,-330
1512180051,0.0485,0.0457,0.2004,137.08,-117.43,1002.44,-397,89,-340
1512180051,0.0220,0.0039,0.2084,166.69,-119.63,906.68,-397,89,-340
1512180051,0.0169,0.0003,0.2089,134.89,-111.76,963.20,-397,89,-340
1512180051,-0.0097,-0.0197,0.2176,116.64,-70.62,901.43,-397,89,-340
1512180051,0.0442,0.0278,0.2296,97.66,-68.85,956.30,-419,95,-348
1512180051,0.0127,-0.0121,0.2249,63.29,-33.45,870.06,-419,95,-348
1512180051,0.0437,0.1398,0.2297,133.48,-87.16,983.76,-419,95,-348
1512180051,-0.0091,0.0362,0.2368,62.32,-87.16,1074.71,-419,95,-348
1512180051,-0.0965,-0.0611,0.2443,95.46,-102.05,1034.24,-419,95,-348
1512180051,-0.0137,0.0815,0.2477,62.07,-61.04,1085.75,-402,74,-331
1512180051,-0.0617,-0.0482,0.2486,84.35,-110.78,1032.47,-402,74,-331
1512180051,0.0386,0.0751,0.2518,102.05,-115.97,1053.83,-402,74,-331
1512180051,-0.0976,-0.0565,0.2530,182.50,-136.11,906.92,-402,74,-331
1512180051,0.0357,0.0868,0.2554,127.56,-130.74,994.51,-388,91,-348
1512180051,0.0099,0.0140,0.2606,112.12,-89.05,1060.91,-388,91,-348
1512180051,0.0225,0.0181,0.2615,103.09,-99.61,972.29,-388,91,-348
1512180051,0.0041,0.0481,0.2660,145.87,-107.30,1015.87,-388,91,-348
1512180051,-0.0170,-0.0049,0.2716,135.68,-134.70,977.78,-388,91,-348
1512180051,-0.0003,0.0328,0.2712,133.42,-177.43,994.51,-384,63,-348
1512180051,0.0088,-0.0160,0.2827,142.70,-108.46,985.05,-384,63,-348
1512180051,0.0012,0.0380,0.2811,128.97,-124.94,954.28,-384,63,-348
1512180051,0.0005,0.0494,0.2834,89.29,-76.11,1012.08,-384,63,-348
1512180051,0.0241,0.0683,0.2851,143.25,-22.09,1093.81,-384,63,-348
1512180051,-0.0639,0.0250,0.2851,73.97,-103.27,1104.25,-400,72,-340
1512180051,-0.1103,-0.0595,0.2902,101.20,-111.51,1016.85,-400,72,-340
1512180051,-0.0699,0.0302,0.3004,133.00,-82.95,1010.07,-400,72,-340
1512180051,-0.1104,-0.0888,0.3044,87.52,-160.95,914.73,-400,72,-340
1512180051,-0.0296,0.0551,0.3063,158.33,-134.77,957.76,-374,59,-338
1512180052,-0.0264,-0.0494,0.3008,165.16,-158.87,954.28,-374,59,-338
1512180052,0.0418,-0.0402,0.3028,139.95,-161.50,930.05,-374,59,-338
1512180052,0.1047,0.0802,0.3065,82.15,-83.62,1043.46,-374,59,-338
1512180052,0.0276,-0.0067,0.3131,104.68,-109.56,931.88,-374,59,-338
1512180052,0.0644,0.0301,0.3241,82.52,-95.34,1035.52,-376,72,-336
1512180052,-0.0015,-0.0079,0.3201,109.13,-115.42,1006.77,-376,72,-336
1512180052,0.0072,-0.0378,0.3334,64.27,-115.42,1013.24,-376,72,-336
1512180052,0.0952,0.1265,0.3405,62.19,-57.56,1102.97,-376,72,-336
1512180052,-0.0306,-0.0731,0.3281,75.74,-108.28,1065.37,-376,72,-336
1512180052,0.0011,0.0502,0.3316,116.52,-113.83,1039.67,-384,56,-345
1512180052,-0.0162,0.0650,0.3358,74.95,-93.32,1138.61,-384,56,-345
1512180052,-0.0443,-0.0241,0.3381,150.15,-79.28,1114.75,-384,56,-345
1512180052,-0.0256,0.0048,0.3431,83.62,-114.14,1057.92,-384,56,-345
1512180052,-0.0824,-0.0258,0.3426,57.68,-106.69,1076.54,-360,38,-331
1512180052,-0.0549,0.0700,0.3487,110.05,-121.64,1089.78,-360,38,-331
1512180052,-0.0852,-0.0691,0.3501,117.55,-138.67,1075.07,-360,38,-331
1512180052,-0.1001,-0.0041,0.3517,132.45,-209.11,927.61,-360,38,-331
1512180052,-0.0767,0.0041,0.3509,130.68,-146.73,898.19,-360,38,-331
1512180052,-0.0599,0.0411,0.3570,93.63,-226.38,938.35,-353,52,-314
1512180052,-0.0967,-0.0024,0.3569,147.40,-230.65,987.79,-353,52,-314
1512180052,-0.1032,0.0643,0.3523,175.11,-266.72,895.75,-353,52,-314
1512180052,-0.1282,0.0433,0.3519,142.82,-226.38,904.36,-353,52,-314
1512180052,-0.0751,0.0525,0.3519,83.31,-185.36,940.06,-353,52,-314
1512180052,-0.0530,0.0304,0.3569,82.76,-93.57,1012.02,-340,44,-323
1512180052,-0.0344,0.0889,0.3582,35.10,-193.05,1040.53,-340,44,-323
1512180052,-0.0622,-0.0083,0.3570,143.68,-226.93,976.99,-340,44,-323
1512180052,0.0538,0.0806,0.3581,180.48,-214.42,974.67,-340,44,-323
1512180052,0.0196,0.0356,0.3623,73.06,-249.02,1059.51,-344,40,-319
1512180052,-0.0430,-0.0585,0.3602,184.63,-226.32,962.16,-344,40,-319
1512180052,0.0752,0.0835,0.3549,142.33,-212.71,1051.33,-344,40,-319
1512180052,-0.0631,-0.0308,0.3650,161.93,-254.33,995.61,-344,40,-319
1512180052,0.0364,-0.0007,0.3675,91.74,-105.35,1046.88,-344,40,-319
1512180052,0.0021,-0.0382,0.3695,104.92,-149.90,1009.28,-340,33,-316
1512180052,0.0477,0.0112,0.3790,112.00,-126.53,1048.10,-340,33,-316
1512180052,-0.0364,-0.0735,0.3899,145.26,-152.47,996.83,-340,33,-316
1512180052,0.1039,0.0402,0.3899,81.24,-166.75,986.57,-340,33,-316
1512180052,0.0481,-0.0744,0.3939,65.43,-133.48,1005.74,-340,33,-316
1512180052,0.1073,0.0214,0.3952,145.69,-146.30,927.86,-326,22,-319
1512180053,0.0952,-0.0028,0.3972,42.91,-138.67,1013.31,-326,22,-319
1512180053,0.0647,-0.0631,0.3999,98.57,-113.16,937.68,-326,22,-319
1512180053,0.0874,0.0152,0.4009,36.19,-182.01,940.86,-326,22,-319
1512180053,0.0021,-0.0280,0.4051,82.40,-160.71,967.41,-344,15,-330
1512180053,0.0913,0.0353,0.4073,70.74,-159.97,965.15,-344,15,-330
1512180053,0.0316,-0.0246,0.4089,98.39,-142.40,956.54,-344,15,-330
1512180053,0.1024,0.0221,0.4103,44.68,-139.83,1002.99,-344,15,-330
1512180053,0.0463,-0.0146,0.4140,105.65,-158.14,1004.21,-344,15,-330
1512180053,0.0872,0.0410,0.4156,131.16,-151.67,1073.30,-337,12,-316
1512180053,0.0329,0.0017,0.4155,132.08,-237.24,1002.50,-337,12,-316
1512180053,-0.0064,-0.0160,0.4198,94.67,-156.07,979.80,-337,12,-316
1512180053,0.0473,0.0222,0.4185,135.86,-203.61,1046.63,-337,12,-316
1512180053,0.1301,0.0204,0.4265,79.96,-144.47,1079.10,-325,10,-331
1512180053,0.1309,-0.0033,0.4276,81.48,-153.56,935.85,-325,10,-331
1512180053,0.0887,0.0095,0.4326,79.04,-217.41,901.79,-325,10,-331
1512180053,-0.0065,0.0154,0.4310,151.06,-226.32,951.42,-325,10,-331
1512180053,-0.0158,-0.0133,0.4442,54.81,-186.52,978.21,-325,10,-331
1512180053,-0.0864,-0.0422,0.4422,116.09,-210.75,943.97,-311,0,-331
1512180053,0.0791,0.0718,0.4421,117.31,-141.17,1042.72,-311,0,-331
1512180053,-0.0509,-0.0003,0.4394,91.55,-241.94,1000.24,-311,0,-331
1512180053,-0.0441,-0.0084,0.4408,181.82,-242.37,959.47,-311,0,-331
1512180053,0.0577,0.0613,0.4429,113.16,-201.05,1008.24,-311,0,-331
1512180053,0.0099,0.0137,0.4414,188.54,-240.05,1019.29,-302,-5,-323
1512180053,0.0028,-0.0076,0.4449,122.62,-245.00,919.01,-302,-5,-323
1512180053,0.0555,0.0302,0.4586,97.17,-148.19,977.78,-302,-5,-323
1512180053,-0.0161,0.0246,0.4538,154.72,-253.42,953.31,-302,-5,-323
1512180053,0.0278,0.0636,0.4587,162.66,-272.95,938.29,-281,12,-319
1512180053,0.0566,0.0870,0.4623,89.29,-230.96,1054.20,-281,12,-319
1512180053,-0.0561,-0.0184,0.4686,61.28,-196.78,1057.56,-281,12,-319
1512180053,-0.0690,0.0567,0.4561,137.51,-291.75,992.19,-281,12,-319
1512180053,-0.0465,0.0288,0.4633,73.36,-201.17,1042.66,-281,12,-319
1512180053,0.0317,0.0079,0.4704,98.33,-152.16,1038.45,-275,7,-318
1512180053,0.0260,0.0326,0.4641,125.67,-184.45,991.46,-275,7,-318
1512180053,-0.0430,-0.0091,0.4690,101.44,-181.70,920.29,-275,7,-318
1512180053,0.0318,0.1045,0.4768,87.04,-210.63,1001.53,-275,7,-318
1512180053,-0.0380,0.0028,0.4792,137.02,-195.68,1024.72,-275,7,-318
1512180053,0.0178,0.0387,0.4782,135.38,-232.36,1036.68,-260,1,-323
1512180053,-0.0007,0.0537,0.4831,149.05,-222.84,1046.08,-260,1,-323
1512180054,0.0124,0.0399,0.4822,132.20,-226.99,1079.96,-260,1,-323
1512180054,-0.0249,0.0007,0.4850,105.47,-186.22,1069.21,-260,1,-323
1512180054,0.0265,0.0672,0.4879,120.24,-204.22,1057.98,-245,-8,-340
1512180054,-0.0101,-0.0146,0.4932,123.35,-189.39,1050.90,-245,-8,-340
1512180054,-0.0085,0.0156,0.4956,111.69,-260.62,960.69,-245,-8,-340
1512180054,-0.0152,-0.0482,0.5032,107.18,-178.34,1001.65,-245,-8,-340
1512180054,0.0479,0.0413,0.5015,99.67,-199.22,984.50,-245,-8,-340
1512180054,-0.0265,-0.0356,0.5032,95.46,-186.46,982.91,-231,-5,-336
1512180054,-0.0766,-0.0403,0.5065,143.07,-271.85,911.56,-231,-5,-336
1512180054,-0.0361,0.0477,0.5059,188.54,-284.30,960.39,-231,-5,-336
1512180054,-0.0130,0.0531,0.5059,212.22,-239.81,986.21,-231,-5,-336
1512180054,-0.0097,0.0264,0.5068,274.23,-280.82,924.87,-217,-12,-350
1512180054,0.0008,0.0281,0.5183,166.81,-211.18,1020.20,-217,-12,-350
1512180054,-0.0100,-0.0162,0.5208,192.81,-274.72,927.00,-217,-12,-350
1512180054,0.0232,0.0123,0.5305,129.39,-241.27,978.70,-217,-12,-350
1512180054,-0.0356,-0.0157,0.5378,195.92,-203.86,1043.76,-217,-12,-350
1512180054,-0.0186,-0.0157,0.5485,108.52,-247.13,978.27,-209,-14,-335
1512180054,-0.0076,0.0047,0.5369,191.65,-239.44,1050.72,-209,-14,-335
1512180054,-0.0403,0.0309,0.5378,254.39,-267.33,1012.51,-209,-14,-335
1512180054,0.0083,-0.0128,0.5348,135.80,-193.54,1033.87,-209,-14,-335
1512180054,0.0007,-0.0229,0.5345,202.27,-215.15,1011.66,-209,-14,-335
1512180054,0.0180,0.0133,0.5422,123.11,-139.34,1044.31,-196,-12,-330
1512180054,0.0842,0.0186,0.5404,117.49,-124.76,1047.61,-196,-12,-330
1512180054,0.0387,0.0016,0.5360,212.04,-168.03,1009.16,-196,-12,-330
1512180054,-0.0020,0.0198,0.5341,228.58,-200.07,955.08,-196,-12,-330
1512180054,0.0393,0.0048,0.5462,226.20,-152.34,950.44,-189,-8,-333
1512180054,0.0132,0.0024,0.5493,135.62,-151.55,978.27,-189,-8,-333
1512180054,0.0344,-0.0096,0.5498,178.77,-139.83,1076.35,-189,-8,-333
1512180054,0.0482,0.0189,0.5507,177.31,-159.85,1016.30,-189,-8,-333
1512180054,-0.0543,-0.0252,0.5483,192.75,-154.42,942.57,-189,-8,-333
1512180054,0.0113,0.0201,0.5467,119.87,-166.75,961.36,-165,-8,-323
1512180054,-0.0671,-0.0423,0.5538,185.91,-153.20,942.32,-165,-8,-323
1512180054,0.0192,0.0740,0.5509,169.43,-190.06,1024.72,-165,-8,-323
1512180054,-0.0229,-0.0510,0.5573,165.16,-205.75,924.56,-165,-8,-323
1512180054,0.1313,0.0394,0.5622,120.00,-102.42,1090.21,-165,-8,-323
1512180054,0.0389,-0.0148,0.5623,189.15,-189.39,1037.17,-144,-12,-346
1512180054,0.0399,-0.0462,0.5631,190.92,-170.84,1020.69,-144,-12,-346
1512180054,0.0041,-0.0352,0.5655,145.08,-166.50,1084.23,-144,-12,-346
1512180055,-0.0330,-0.0280,0.5627,155.21,-253.42,954.53,-144,-12,-346
1512180055,-0.0023,-0.0442,0.5671,165.89,-148.01,1050.35,-117,-3,-318
1512180055,0.0557,-0.0024,0.5545,267.46,-287.48,1004.46,-117,-3,-318
1512180055,-0.0221,-0.0182,0.5569,175.60,-217.22,966.98,-117,-3,-318
1512180055,0.0261,-0.0248,0.5711,160.52,-141.60,1014.71,-117,-3,-318
1512180055,-0.0015,0.0742,0.5621,222.96,-147.64,1010.93,-117,-3,-318
1512180055,-0.0587,-0.2145,0.5736,111.94,-167.30,951.84,-107,-17,-345
1512180055,0.1101,0.2329,0.5649,220.21,-159.12,1022.52,-107,-17,-345
1512180055,-0.0333,-0.0927,0.5695,211.73,-203.12,1082.46,-107,-17,-345
1512180055,-0.0306,-0.1904,0.5819,136.60,-94.79,1063.48,-107,-17,-345
1512180055,0.2011,0.2389,0.5594,188.29,-206.85,1203.74,-107,-17,-345
1512180055,-0.1378,-0.3659,0.6035,136.84,-140.26,960.39,-108,-1,-346
1512180055,0.0940,0.1820,0.6637,189.64,-209.53,808.11,-108,-1,-346
1512180055,0.0138,0.1117,0.5808,197.57,-208.44,1082.34,-108,-1,-346
1512180055,-0.1101,-0.1449,0.5883,212.95,-261.78,845.64,-108,-1,-346
1512180055,0.1220,0.1728,0.5826,213.26,-213.87,938.78,-94,-1,-330
1512180055,0.0024,-0.0513,0.5791,203.06,-148.93,1075.99,-94,-1,-330
1512180055,0.0772,0.0173,0.5836,202.76,-126.10,966.06,-94,-1,-330
1512180055,0.1204,0.0639,0.5831,152.04,-200.81,1118.65,-94,-1,-330
1512180055,-0.0583,-0.2105,0.5850,242.37,-211.06,884.77,-94,-1,-330
1512180055,0.1591,0.2083,0.5803,158.87,-139.59,1107.60,-68,0,-328
1512180055,-0.1401,-0.1593,0.5843,137.70,-196.90,1030.58,-68,0,-328
1512180055,-0.1161,-0.0878,0.5863,153.81,-159.42,915.77,-68,0,-328
1512180055,-0.0411,-0.0120,0.5840,56.64,-157.90,1103.76,-68,0,-328
1512180055,-0.1463,-0.1142,0.5834,140.50,-177.19,1036.44,-72,0,-314
1512180055,-0.0096,0.0606,0.5752,214.11,-229.80,1019.90,-72,0,-314
1512180055,-0.0389,-0.0281,0.5698,234.99,-192.87,983.95,-72,0,-314
1512180055,0.0575,0.0141,0.5639,218.38,-276.49,985.72,-72,0,-314
1512180055,0.0332,-0.0296,0.5631,139.95,-201.35,999.57,-72,0,-314
1512180055,0.0935,0.0095,0.5646,121.89,-174.99,993.90,-54,21,-328
1512180055,0.0814,0.0956,0.5507,202.33,-153.75,1053.65,-54,21,-328
1512180055,-0.0543,-0.1545,0.5606,98.75,-225.52,1029.79,-54,21,-328
1512180055,0.0803,0.0973,0.5546,168.95,-240.36,1054.38,-54,21,-328
1512180055,-0.0474,-0.0690,0.5551,234.01,-186.83,948.61,-54,21,-328
1512180055,0.0618,0.0676,0.5603,198.67,-248.54,862.49,-49,22,-336
1512180055,0.1011,0.0523,0.5404,204.59,-292.72,988.22,-49,22,-336
1512180055,0.0264,0.0518,0.5675,230.22,-276.12,862.98,-49,22,-336
1512180056,-0.0383,0.0216,0.5583,133.18,-289.55,840.58,-49,22,-336
1512180056,-0.0246,-0.0583,0.5822,222.29,-237.18,947.57,-36,45,-324
1512180056,0.0517,0.0626,0.5603,105.90,-192.08,987.12,-36,45,-324
1512180056,-0.1545,-0.2025,0.5666,118.96,-148.99,798.83,-36,45,-324
1512180056,0.1940,0.1146,0.5475,128.30,-202.15,933.47,-36,45,-324
1512180056,-0.0105,-0.0526,0.5495,55.91,-214.48,1025.82,-36,45,-324
1512180056,0.0261,-0.0507,0.5529,129.52,-183.11,938.17,-26,35,-321
1512180056,0.0306,0.0099,0.5582,114.69,-225.46,1016.24,-26,35,-321
1512180056,0.0518,-0.1489,0.5505,128.36,-109.31,1014.04,-26,35,-321
1512180056,0.1585,0.0919,0.5455,147.34,-154.42,1102.11,-26,35,-321
1512180056,0.0652,-0.0044,0.5346,184.08,-214.84,1191.77,-19,49,-328
1512180056,0.1615,0.0162,0.5313,142.64,-260.86,1111.45,-19,49,-328
1512180056,0.0421,0.0465,0.5171,218.20,-252.99,1025.70,-19,49,-328
1512180056,0.0032,-0.0057,0.5116,83.07,-250.92,1016.11,-19,49,-328
1512180056,-0.0670,-0.1328,0.5116,24.29,-130.74,971.80,-19,49,-328
1512180056,0.0446,0.0683,0.5096,45.23,-115.23,1042.79,-8,70,-328
1512180056,-0.0985,-0.2450,0.5127,34.61,-164.86,917.97,-8,70,-328
1512180056,0.0362,0.0208,0.5079,51.15,-184.45,899.90,-8,70,-328
1512180056,-0.0221,-0.0539,0.5072,32.59,-184.33,1018.98,-8,70,-328
1512180056,-0.0316,-0.0883,0.5001,118.77,-191.53,914.86,-8,70,-328
1512180056,-0.1001,-0.0349,0.5157,56.58,-178.16,1068.66,-7,72,-323
1512180056,-0.2153,-0.1423,0.4871,87.83,-316.96,989.44,-7,72,-323
1512180056,-0.1827,-0.0515,0.4975,152.77,-327.58,992.07,-7,72,-323
1512180056,-0.1646,-0.0884,0.4746,112.37,-331.05,1030.40,-7,72,-323
1512180056,-0.1068,-0.0675,0.4996,113.59,-317.44,925.90,5,91,-328
1512180056,-0.0403,0.0629,0.4670,155.09,-283.57,855.96,5,91,-328
1512180056,0.0023,-0.0180,0.4649,65.37,-298.46,955.08,5,91,-328
1512180056,-0.0731,0.0049,0.4719,71.47,-293.27,912.17,5,91,-328
1512180056,-0.0373,0.0526,0.4703,93.02,-347.35,971.74,5,91,-328
1512180056,-0.0531,0.0000,0.4798,23.07,-346.74,1043.33,3,96,-333
1512180056,-0.0784,0.0280,0.4756,62.26,-373.47,930.54,3,96,-333
1512180056,0.0405,0.0718,0.4764,80.75,-332.58,1126.83,3,96,-333
1512180056,0.0806,0.0767,0.4686,127.20,-362.00,1191.71,3,96,-333
1512180056,0.0840,0.0113,0.4569,3.30,-374.51,1169.49,3,96,-333
1512180056,0.0514,-0.0907,0.4649,215.88,-229.49,1053.59,21,96,-343
1512180056,0.1538,0.0582,0.4266,-221.44,-485.11,1053.59,21,96,-343
1512180056,-0.0895,-0.2200,0.5226,93.75,-42.05,806.64,21,96,-343
1512180056,-0.0728,0.1353,0.4867,-164.25,-445.62,887.21,21,96,-343
1512180057,-0.1782,-0.1872,0.4771,31.13,-186.77,897.03,8,123,-341
1512180057,-0.0233,-0.0650,0.4487,-15.75,-334.84,766.42,8,123,-341
1512180057,-0.0433,0.2649,0.4615,1.83,-273.19,983.09,8,123,-341
1512180057,-0.1740,-0.1831,0.4474,58.47,-282.65,884.03,8,123,-341
1512180057,-0.0862,0.1184,0.4418,-61.40,-311.95,939.33,8,123,-341
1512180057,-0.0899,-0.0095,0.4177,-6.35,-294.13,1058.90,28,132,-340
1512180057,-0.0919,0.0302,0.4081,-34.18,-290.28,1085.33,28,132,-340
1512180057,-0.1481,-0.0277,0.3876,3.42,-387.57,1073.67,28,132,-340
1512180057,-0.0824,0.0152,0.3822,-48.83,-213.07,1165.47,28,132,-340
1512180057,-0.0830,-0.0897,0.3598,-19.29,-294.92,1039.67,24,135,-346
1512180057,-0.2165,-0.0658,0.3619,-64.45,-400.51,912.41,24,135,-346
1512180057,0.0586,0.0925,0.3382,-33.63,-247.31,1066.10,24,135,-346
1512180057,-0.0888,-0.1823,0.3253,-52.37,-305.54,930.91,24,135,-346
1512180057,-0.0060,0.0573,0.3125,47.06,-244.75,1032.78,24,135,-346
1512180057,-0.0165,-0.0240,0.2948,-30.46,-168.09,1025.88,31,146,-346
1512180057,0.0005,-0.0060,0.2898,-89.66,-266.97,1001.46,31,146,-346
1512180057,0.1013,0.1168,0.2790,-25.88,-154.66,1051.03,31,146,-346
1512180057,0.0802,0.0638,0.2627,-30.27,-254.15,1035.89,31,146,-346
1512180057,-0.0342,0.0413,0.2498,-9.16,-286.07,1006.53,31,146,-346
1512180057,-0.0285,0.0631,0.2438,-29.79,-271.61,970.95,35,163,-336
1512180057,0.0055,0.0254,0.2320,-102.60,-215.03,1033.63,35,163,-336
1512180057,0.0242,0.0619,0.2264,-67.50,-231.20,985.29,35,163,-336
1512180057,-0.0372,0.0204,0.2117,-118.77,-214.29,981.57,35,163,-336
1512180057,0.0181,0.0875,0.2081,-119.20,-192.87,1056.76,28,167,-333
1512180057,-0.0107,-0.0284,0.1928,-73.43,-167.60,1008.54,28,167,-333
1512180057,0.0257,0.0445,0.1832,-131.84,-259.64,991.52,28,167,-333
1512180057,-0.0482,-0.0142,0.1731,-82.52,-224.55,1021.48,28,167,-333
1512180057,0.1202,0.0648,0.1595,-103.39,-165.47,1006.65,28,167,-333
1512180057,0.0969,0.0823,0.1497,-130.92,-241.76,1042.85,26,179,-328
1512180057,0.1120,0.0603,0.1385,-86.55,-151.55,1032.47,26,179,-328
1512180057,0.0533,0.0173,0.1213,-103.58,-161.50,967.65,26,179,-328
1512180057,0.0931,0.1398,0.1133,-151.18,-166.02,1063.72,26,179,-328
1512180057,0.0320,0.0517,0.1095,-132.32,-109.56,1106.14,26,179,-328
1512180057,0.1064,0.0497,0.1024,-125.43,-123.90,1056.76,21,163,-343
1512180057,0.0640,0.0294,0.0979,-123.60,-136.29,1050.72,21,163,-343
1512180057,0.1154,0.0461,0.0844,-145.26,-116.15,1060.73,21,163,-343
1512180057,0.0606,-0.0059,0.0770,-140.81,-122.68,988.83,21,163,-343
1512180057,0.0152,0.0417,0.0663,-133.00,-118.77,1016.85,24,178,-326
1512180058,-0.0788,-0.0506,0.0626,-188.48,-103.09,958.50,24,178,-326
1512180058,0.0361,0.0441,0.0550,-109.80,-139.83,1048.52,24,178,-326
1512180058,-0.1162,0.0008,0.0505,-124.27,-179.81,1009.95,24,178,-326
1512180058,-0.0796,0.0294,0.0466,-115.54,-172.61,961.18,24,178,-326
1512180058,-0.0237,0.0668,0.0453,-130.98,-116.03,1101.50,26,190,-311
1512180058,-0.0253,-0.0806,0.0435,-217.53,-91.74,999.63,26,190,-311
1512180058,-0.0297,0.0313,0.0373,-86.61,-160.77,957.09,26,190,-311
1512180058,0.1722,0.2586,0.0364,-137.08,-150.45,1068.97,26,190,-311
1512180058,-0.1121,-0.1445,0.0174,-59.39,-293.88,883.67,43,183,-321
1512180058,0.0457,0.2851,0.0162,-140.87,-93.51,1015.56,43,183,-321
1512180058,-0.1325,-0.0828,0.0177,-97.29,-68.54,1172.61,43,183,-321
1512180058,-0.0619,-0.1720,0.0127,-106.57,-95.34,836.55,43,183,-321
1512180058,0.2205,0.3427,0.0104,-170.35,-85.57,1069.58,43,183,-321
1512180058,0.0225,-0.0112,-0.0092,-71.29,-76.29,1183.59,22,190,-348
1512180058,0.0305,0.0128,-0.0069,-100.10,-110.17,929.50,22,190,-348
1512180058,0.0964,0.1535,-0.0053,-169.74,-53.71,998.47,22,190,-348
1512180058,-0.0068,0.0514,-0.0113,-138.49,-86.43,1026.43,22,190,-348
1512180058,0.0128,-0.0268,-0.0154,-138.37,-4.39,992.86,22,190,-348
1512180058,0.2814,0.2012,-0.0019,-178.77,-2.69,1074.89,26,183,-321
1512180058,-0.0132,-0.1764,-0.0185,-81.85,-127.01,820.80,26,183,-321
1512180058,0.2330,0.2692,0.0028,-262.33,-73.73,962.89,26,183,-321
1512180058,-0.1641,-0.2246,-0.0208,-138.31,-105.04,1017.21,26,183,-321
1512180058,0.1770,0.1952,-0.0427,-47.61,-45.04,1008.06,22,197,-338
1512180058,0.0515,-0.0623,-0.0111,-104.98,-107.91,911.01,22,197,-338
1512180058,0.0435,0.0949,-0.0204,-83.80,-129.94,963.68,22,197,-338
1512180058,0.1200,0.0401,-0.0595,-103.76,-22.52,1056.95,22,197,-338
1512180058,-0.0667,-0.1855,-0.0137,-72.33,-44.01,984.50,22,197,-338
1512180058,0.0719,0.0896,-0.0257,0.55,20.63,1031.74,28,195,-340
1512180058,-0.0037,-0.1056,-0.0301,-36.32,-54.69,1048.95,28,195,-340
1512180058,0.0305,0.0145,-0.0361,-39.86,-84.35,959.72,28,195,-340
1512180058,0.0810,-0.0061,-0.0406,-85.69,-43.33,972.17,28,195,-340
1512180058,0.0903,-0.0421,-0.0495,-60.61,-96.56,862.85,8,165,-331
1512180058,0.1851,0.1170,-0.0498,-69.76,-40.95,1019.59,8,165,-331
1512180058,-0.0700,-0.1032,-0.0505,-46.14,19.17,953.25,8,165,-331
1512180058,-0.0141,-0.0617,-0.0450,-152.47,18.68,866.03,8,165,-331
1512180058,0.1091,0.1081,-0.0599,-140.08,114.14,925.54,8,165,-331
1512180058,0.0193,-0.1209,-0.0754,-146.91,62.68,921.94,24,163,-346
1512180059,0.0832,0.0494,-0.0734,-79.47,53.16,920.78,24,163,-346
1512180059,0.0613,0.0246,-0.0736,-160.03,62.38,953.43,24,163,-346
1512180059,0.1093,-0.0477,-0.0871,-95.70,38.64,913.09,24,163,-346
1512180059,0.0839,-0.0535,-0.0907,-114.87,54.69,905.52,24,163,-346
1512180059,0.1744,0.1160,-0.0933,-136.47,74.58,1064.76,17,163,-340
1512180059,-0.0358,-0.1461,-0.0956,-52.61,-15.08,962.77,17,163,-340
1512180059,0.1127,0.0613,-0.0967,-44.86,34.55,944.58,17,163,-340
1512180059,0.0586,-0.0670,-0.0975,-100.59,43.58,1042.91,17,163,-340
1512180059,0.0465,-0.1405,-0.0976,-124.27,64.51,943.48,19,158,-345
1512180059,0.0766,-0.0386,-0.0957,-62.87,19.71,970.76,19,158,-345
1512180059,0.0294,-0.0742,-0.0997,-120.61,89.78,948.30,19,158,-345
1512180059,0.0835,-0.0177,-0.1000,-55.60,62.32,1045.53,19,158,-345
1512180059,-0.0069,-0.0816,-0.1016,-99.55,62.62,924.62,19,158,-345
1512180059,0.0595,0.0206,-0.1067,-72.63,93.81,1003.05,19,155,-341
1512180059,-0.0344,-0.0848,-0.1115,-69.03,62.07,957.82,19,155,-341
1512180059,0.0055,-0.0209,-0.1031,-117.92,58.72,946.04,19,155,-341
1512180059,0.0350,0.0181,-0.1209,-4.33,28.56,1075.56,19,155,-341
1512180059,-0.0983,-0.1165,-0.1176,-34.24,-28.75,876.65,19,155,-341
1512180059,0.0060,0.0606,-0.1254,-24.35,24.96,969.85,22,144,-338
1512180059,-0.0754,-0.0429,-0.1188,-79.04,94.85,1041.63,22,144,-338
1512180059,-0.1136,-0.1172,-0.1237,1.77,38.39,993.35,22,144,-338
1512180059,-0.0224,-0.0033,-0.1181,-63.96,77.64,1026.06,22,144,-338
1512180059,-0.0595,-0.0700,-0.1212,-42.30,96.80,984.25,3,153,-323
1512180059,-0.0256,-0.0370,-0.1261,-47.06,77.64,978.45,3,153,-323
1512180059,-0.0257,-0.0426,-0.1181,-39.43,91.98,892.88,3,153,-323
1512180059,0.0771,0.0083,-0.1240,-63.48,59.14,990.42,3,153,-323
1512180059,0.0495,-0.0710,-0.1300,-61.16,85.02,1011.54,3,153,-323
1512180059,-0.0393,-0.0418,-0.1265,-52.86,102.05,933.11,21,128,-330
1512180059,0.0284,-0.0474,-0.1280,-80.57,160.52,1025.09,21,128,-330
1512180059,0.0594,-0.1068,-0.1364,-3.48,156.86,952.70,21,128,-330
1512180059,0.1193,0.0382,-0.1427,-83.31,113.22,1059.75,21,128,-330
1512180059,-0.0241,-0.0599,-0.1466,20.26,118.53,994.81,10,142,-319
1512180059,0.1192,0.0611,-0.1470,-49.01,82.40,1045.78,10,142,-319
1512180059,-0.0395,-0.0200,-0.1567,-37.05,52.25,1141.85,10,142,-319
1512180059,-0.1109,-0.0226,-0.1595,37.05,41.32,963.75,10,142,-319
1512180059,0.0152,0.0836,-0.1571,-104.37,135.80,1018.01,10,142,-319
1512180059,-0.1080,-0.0895,-0.1630,-37.05,92.59,909.67,19,151,-304
1512180059,0.0063,0.0627,-0.1671,-34.61,118.23,990.84,19,151,-304
1512180060,-0.1249,-0.0760,-0.1719,-52.92,103.64,958.01,19,151,-304
1512180060,-0.0766,-0.0063,-0.1792,7.45,152.89,953.06,19,151,-304
1512180060,0.0069,0.0940,-0.1872,-69.82,104.68,997.25,35,163,-302
1512180060,-0.1507,-0.0750,-0.1928,-16.36,102.29,988.83,35,163,-302
1512180060,0.0308,0.0788,-0.2004,-26.12,103.82,1024.05,35,163,-302
1512180060,-0.0108,0.0049,-0.1981,-101.26,126.16,1047.18,35,163,-302
1512180060,-0.0446,0.0277,-0.1987,-6.47,122.31,1089.42,35,163,-302
1512180060,-0.0276,-0.0212,-0.1980,-61.40,97.60,1002.99,26,151,-321
1512180060,-0.0048,0.0246,-0.2019,-39.31,105.65,1110.47,26,151,-321
1512180060,0.0117,-0.0109,-0.2055,-48.58,164.79,1062.81,26,151,-321
1512180060,0.0308,0.0023,-0.2092,-38.76,65.86,1013.67,26,151,-321
1512180060,0.0212,-0.0393,-0.2137,-28.14,109.13,949.52,26,151,-321
1512180060,-0.0245,-0.0100,-0.2236,-15.38,137.88,913.27,35,142,-316
1512180060,0.0083,-0.0133,-0.2260,-42.91,175.96,976.75,35,142,-316
1512180060,0.0132,0.0273,-0.2384,-31.31,173.40,980.41,35,142,-316
1512180060,-0.0188,0.0237,-0.1967,-93.99,160.28,993.90,35,142,-316
1512180060,-0.0984,-0.0491,-0.1706,-58.23,181.03,838.20,24,128,-319
1512180060,0.0985,0.1746,-0.2277,-175.48,241.27,1051.03,24,128,-319
1512180060,-0.1521,-0.1085,-0.2601,-82.52,170.96,950.50,24,128,-319
1512180060,0.0766,0.0868,-0.2756,-96.01,271.61,1026.49,24,128,-319
1512180060,0.0439,0.0266,-0.2844,-106.45,220.40,1056.34,24,128,-319
1512180060,0.0557,-0.0650,-0.2925,-109.44,237.30,935.30,26,141,-308
1512180060,0.1609,0.1076,-0.2959,-97.72,214.84,1071.96,26,141,-308
1512180060,-0.0091,-0.0353,-0.3052,-97.41,163.64,1045.72,26,141,-308
1512180060,0.0083,0.0868,-0.3096,-49.99,130.07,1034.18,26,141,-308
1512180060,-0.0206,0.0169,-0.3140,-38.76,200.32,1044.74,26,141,-308
1512180060,0.0603,0.0210,-0.3076,-77.39,252.81,1034.61,21,135,-326
1512180060,0.1268,0.0627,-0.3085,-97.17,257.63,1017.52,21,135,-326
1512180060,0.0812,-0.0097,-0.3157,-45.23,250.73,1094.24,21,135,-326
1512180060,0.1318,0.0570,-0.3172,-24.35,222.35,936.71,21,135,-326
1512180060,0.1573,0.0798,-0.3116,-174.19,246.22,1061.22,7,107,-340
1512180060,-0.0316,-0.0497,-0.3186,-31.37,149.78,965.52,7,107,-340
1512180060,0.0827,0.1421,-0.3123,-11.29,286.19,975.16,7,107,-340
1512180060,-0.0036,0.0734,-0.3189,-74.52,166.93,943.42,7,107,-340
1512180060,0.0079,0.0812,-0.3193,-64.15,231.57,1070.80,7,107,-340
1512180060,-0.0648,0.0501,-0.3278,-73.30,171.81,1059.57,26,112,-335
1512180060,-0.0667,0.0455,-0.3285,-46.51,149.23,955.32,26,112,-335
1512180060,0.0429,0.1924,-0.3206,-111.08,112.79,1030.76,26,112,-335
1512180061,-0.0627,0.0844,-0.3254,-20.63,64.27,1008.06,26,112,-335
1512180061,0.0134,0.1184,-0.3226,-59.75,138.85,1021.18,22,102,-335
1512180061,-0.0273,-0.0168,-0.3181,-67.63,190.43,941.77,22,102,-335
1512180061,0.1236,0.1377,-0.3160,-125.24,225.28,1134.09,22,102,-335
1512180061,-0.0442,-0.0858,-0.3136,-104.43,262.15,1021.42,22,102,-335
1512180061,0.0636,0.1161,-0.3091,-126.46,212.83,1047.30,22,102,-335
1512180061,0.0087,0.0035,-0.3121,-93.32,226.62,1029.66,-3,96,-330
1512180061,0.1415,0.0960,-0.3140,-64.70,156.13,1024.66,-3,96,-330
1512180061,-0.0072,0.0145,-0.3097,-92.90,154.85,1028.50,-3,96,-330
1512180061,-0.0760,-0.0334,-0.3119,-57.68,106.32,979.49,-3,96,-330
1512180061,-0.0469,-0.0056,-0.3059,-53.22,105.16,926.27,-3,96,-330
1512180061,0.0009,0.0364,-0.3016,-65.31,161.01,1041.63,-1,95,-321
1512180061,-0.0324,-0.0061,-0.3073,-45.84,119.87,996.22,-1,95,-321
1512180061,-0.0439,0.0097,-0.2992,-66.47,127.56,987.06,-1,95,-321
1512180061,-0.0965,0.0049,-0.2993,-43.03,133.61,1004.46,-1,95,-321
1512180061,-0.0872,-0.0280,-0.3045,-49.74,108.89,917.36,1,77,-321
1512180061,0.0804,0.0707,-0.2979,-46.63,178.10,987.43,1,77,-321
1512180061,-0.0455,-0.0389,-0.3016,-58.53,99.12,1018.92,1,77,-321
1512180061,0.0012,-0.0356,-0.2888,-96.07,154.66,956.91,1,77,-321
1512180061,0.0357,0.0153,-0.2802,-41.99,192.14,977.72,1,77,-321
1512180061,0.0835,0.0466,-0.2734,-63.17,167.72,1103.33,-5,84,-321
1512180061,-0.0190,-0.0915,-0.2623,-59.81,185.00,983.83,-5,84,-321
1512180061,0.0373,0.0358,-0.2574,-63.72,119.38,1053.16,-5,84,-321
1512180061,-0.0101,-0.0507,-0.2413,-35.03,139.10,1016.11,-5,84,-321
1512180061,0.0668,-0.0357,-0.2277,-31.43,195.92,998.11,-5,84,-321
1512180061,0.0646,-0.0350,-0.2240,-47.12,129.39,966.25,-12,66,-338
1512180061,0.0156,-0.0509,-0.2194,-14.65,86.43,957.95,-12,66,-338
1512180061,0.0542,0.0454,-0.2165,-60.30,84.72,989.50,-12,66,-338
1512180061,-0.0244,-0.0455,-0.2088,-75.81,37.60,934.45,-12,66,-338
1512180061,0.0297,0.1398,-0.1956,-97.17,217.90,1112.24,-5,56,-318
1512180061,0.0250,-0.1382,-0.1883,-66.83,200.13,1077.21,-5,56,-318
1512180061,0.0594,-0.2001,-0.1743,-30.33,116.52,928.16,-5,56,-318
1512180061,0.1647,0.1879,-0.1639,-31.86,132.87,1072.88,-5,56,-318
1512180061,-0.1177,-0.1650,-0.1543,33.33,103.27,962.46,-5,56,-318
1512180061,-0.0402,0.0531,-0.1253,-20.39,26.98,934.51,-7,58,-306
1512180061,-0.1109,-0.0334,-0.1562,-100.95,63.78,1131.90,-7,58,-306
1512180061,-0.2397,-0.1119,-0.1467,50.96,0.24,938.78,-7,58,-306
1512180062,-0.0700,0.1173,-0.1393,-13.55,36.38,1089.54,-7,58,-306
1512180062,-0.2850,-0.1714,-0.1264,84.23,-33.33,958.98,-14,37,-323
1512180062,-0.0933,0.0278,-0.1168,100.22,-29.54,951.54,-14,37,-323
1512180062,0.0164,0.0901,-0.1061,22.95,-56.95,1055.66,-14,37,-323
1512180062,-0.1048,-0.0739,-0.0854,60.12,-26.31,1002.69,-14,37,-323
1512180062,0.0498,0.1013,-0.0619,64.33,76.97,1054.81,-14,37,-323
1512180062,0.0399,-0.0124,-0.0589,57.68,-21.91,1069.58,-17,51,-330
1512180062,-0.0192,-0.1747,-0.0477,66.89,-74.65,816.71,-17,51,-330
1512180062,0.1021,0.2703,-0.0281,124.27,39.55,1135.07,-17,51,-330
1512180062,-0.2623,-0.1758,-0.0296,39.00,-51.76,1135.62,-17,51,-330
1512180062,-0.1494,-0.1710,0.0344,52.12,79.28,864.07,-17,51,-330
1512180062,0.3451,0.4449,-0.0185,-105.96,34.73,1235.35,0,47,-323
1512180062,-0.1577,-0.2623,-0.0103,155.64,3.78,1022.77,0,47,-323
1512180062,0.0310,0.1222,0.0162,51.33,-130.92,880.68,0,47,-323
1512180062,0.1680,0.1796,0.0003,29.11,-27.77,1146.06,0,47,-323
1512180062,-0.1041,-0.3144,0.0254,59.69,-46.39,825.68,-12,52,-331
1512180062,0.1795,0.4404,0.0427,20.75,83.74,1097.72,-12,52,-331
1512180062,-0.2109,-0.3281,-0.0093,47.49,-93.26,909.00,-12,52,-331
1512180062,-0.0309,0.0020,0.0818,87.04,10.19,886.78,-12,52,-331
1512180062,0.3734,0.2884,0.0707,-135.86,176.15,1311.83,-12,52,-331
1512180062,0.1024,-0.3396,0.0758,39.73,-83.44,762.08,-19,31,-335
1512180062,0.0695,0.4065,0.0964,58.23,-179.93,1097.66,-19,31,-335
1512180062,-0.1740,0.0967,-0.0027,117.00,-186.83,1265.14,-19,31,-335
1512180062,-0.1752,-0.2911,0.1824,110.11,-66.96,795.84,-19,31,-335
1512180062,0.3682,0.5313,0.0329,73.36,-72.33,1185.67,-19,31,-335
1512180062,-0.0927,-0.2908,0.0672,82.09,-44.43,1001.22,-31,40,-340
1512180062,-0.0220,-0.0611,0.1132,158.81,-39.55,718.20,-31,40,-340
1512180062,0.3357,0.3878,0.0698,61.10,165.41,1342.35,-31,40,-340
1512180062,-0.3376,-0.5778,0.0956,48.28,15.01,878.48,-31,40,-340
1512180062,0.3035,0.3923,0.0933,15.81,19.17,916.08,-19,49,-301
1512180062,0.1252,0.1201,0.0870,-28.69,37.48,1261.90,-19,49,-301
1512180062,0.0570,-0.0439,0.0828,136.96,2.75,953.55,-19,49,-301
1512180062,0.2397,0.2001,0.0786,6.96,11.17,1067.44,-19,49,-301
1512180062,0.0768,-0.0292,0.0788,56.64,10.74,970.64,-19,49,-301
1512180062,0.0775,0.0886,0.0708,84.23,3.85,877.69,-33,49,-324
1512180062,0.1252,0.1567,0.0852,11.23,12.51,989.56,-33,49,-324
1512180062,-0.0768,-0.1759,0.0896,31.01,62.56,852.29,-33,49,-324
1512180062,0.2254,0.3140,0.1012,113.53,74.95,1064.45,-33,49,-324
1512180063,0.0008,-0.0146,0.0752,-46.08,-151.79,1269.17,-24,58,-319
1512180063,-0.2915,-0.3750,0.1218,61.10,-54.44,879.58,-24,58,-319
1512180063,0.1650,0.4127,0.1174,151.00,-22.83,1119.87,-24,58,-319
1512180063,-0.3135,-0.2639,0.1276,153.56,-59.81,1031.43,-24,58,-319
1512180063,-0.0518,-0.0680,0.1342,160.28,-31.68,813.72,-24,58,-319
1512180063,0.0948,0.1481,0.1385,139.04,-81.67,1025.39,-17,61,-313
1512180063,-0.0967,-0.1194,0.1429,105.35,-76.23,935.91,-17,61,-313
1512180063,0.0651,0.1356,0.1513,171.57,-45.90,978.94,-17,61,-313
1512180063,0.0136,-0.0154,0.1688,139.65,-4.33,1049.87,-17,61,-313
1512180063,-0.0060,0.0451,0.1708,156.62,-105.04,1042.54,-17,61,-313
1512180063,-0.0237,-0.0521,0.1768,123.72,-78.43,1120.00,-38,58,-323
1512180063,0.0262,-0.0015,0.1895,155.40,-97.41,1020.45,-38,58,-323
1512180063,0.0380,-0.0439,0.1920,179.02,-33.81,995.30,-38,58,-323
1512180063,0.0609,0.0068,0.2024,99.98,-81.05,1089.72,-38,58,-323
1512180063,-0.0699,-0.1276,0.2031,157.04,-130.25,999.82,-35,65,-316
1512180063,0.0077,-0.0286,0.2173,122.99,-115.72,944.52,-35,65,-316
1512180063,-0.1017,-0.0494,0.2389,86.18,-98.82,979.61,-35,65,-316
1512180063,-0.0674,0.0061,0.2478,260.56,-134.70,936.22,-35,65,-316
1512180063,-0.0268,0.0154,0.2585,159.61,-121.89,1045.84,-35,65,-316
1512180063,-0.0670,-0.0798,0.2682,211.85,-115.66,975.16,-29,84,-311
1512180063,-0.0297,-0.0017,0.2774,138.24,-121.28,930.36,-29,84,-311
1512180063,-0.0727,-0.0258,0.2923,171.20,-156.56,924.44,-29,84,-311
1512180063,0.0157,0.0277,0.3013,209.17,-144.04,935.91,-29,84,-311
1512180063,-0.0120,-0.0364,0.3076,202.33,-161.93,902.28,-29,84,-311
1512180063,0.0305,-0.0009,0.3149,195.74,-151.92,1009.58,-8,84,-321
1512180063,-0.0297,-0.0442,0.3258,157.41,-125.18,967.90,-8,84,-321
1512180063,-0.0084,-0.0385,0.3373,162.96,-104.55,984.37,-8,84,-321
1512180063,0.0112,-0.0550,0.3413,177.67,-137.15,979.61,-8,84,-321
1512180063,0.0302,-0.0177,0.3566,171.75,-76.60,1027.59,-5,84,-311
1512180063,0.0964,0.0256,0.3577,189.21,-75.62,1074.40,-5,84,-311
1512180063,0.0306,-0.0387,0.3676,168.76,-161.50,1007.87,-5,84,-311
1512180063,-0.0037,-0.0619,0.3630,173.28,-127.20,1036.44,-5,84,-311
1512180063,0.0864,0.0450,0.3799,96.01,-51.94,1148.80,-5,84,-311
1512180063,0.0225,0.0551,0.3823,195.62,-190.67,1100.16,-7,100,-323
1512180063,-0.0562,-0.0337,0.3784,309.08,-208.80,982.54,-7,100,-323
1512180063,-0.0184,0.0547,0.4007,159.67,-147.89,1075.99,-7,100,-323
1512180063,0.0100,0.0040,0.3944,163.45,-102.17,1089.17,-7,100,-323
1512180063,-0.0080,0.0422,0.4016,153.26,-102.23,1020.39,-24,107,-326
1512180064,-0.0005,0.0505,0.4117,164.98,-186.34,993.16,-24,107,-326
1512180064,0.0011,-0.0144,0.4190,127.44,-135.86,917.24,-24,107,-326
1512180064,0.0040,-0.0040,0.4294,146.61,-133.24,912.17,-24,107,-326
1512180064,0.0092,0.0301,0.4316,118.90,-88.01,968.57,-24,107,-326
1512180064,-0.0633,-0.0158,0.4430,209.84,-193.12,933.29,-7,125,-326
1512180064,-0.0490,0.0093,0.4454,190.73,-159.36,931.88,-7,125,-326
1512180064,-0.0679,0.0020,0.4663,145.94,-172.36,959.11,-7,125,-326
1512180064,-0.0648,-0.0093,0.4642,226.50,-179.81,1031.68,-7,125,-326
1512180064,-0.0293,-0.0422,0.4732,164.43,-221.37,1028.32,-7,125,-326
1512180064,-0.1680,-0.1077,0.4720,244.63,-229.61,935.18,-1,144,-324
1512180064,-0.0633,0.0899,0.4799,220.70,-154.85,1047.67,-1,144,-324
1512180064,-0.1182,-0.1423,0.4883,117.31,-105.96,1045.17,-1,144,-324
1512180064,-0.0158,0.0517,0.4951,196.96,-178.83,956.18,-1,144,-324
1512180064,-0.0419,-0.0466,0.5025,222.05,-68.24,999.27,5,158,-304
1512180064,0.0376,0.0443,0.5048,179.93,-153.87,1012.39,5,158,-304
1512180064,0.0542,0.0467,0.5057,236.45,-168.03,1031.07,5,158,-304
1512180064,0.0028,0.0489,0.5080,216.49,-194.95,948.06,5,158,-304
1512180064,-0.0794,0.0173,0.5068,206.05,-253.60,858.52,5,158,-304
1512180064,0.0213,0.0720,0.5177,149.84,-115.48,976.07,19,151,-324
1512180064,0.0743,0.1262,0.5144,86.06,-137.82,1220.40,19,151,-324
1512180064,-0.0907,-0.0526,0.5278,106.63,-163.88,1054.87,19,151,-324
1512180064,0.0083,0.1077,0.5285,139.34,-132.39,1039.98,19,151,-324
1512180064,0.0166,0.0539,0.5353,111.15,-201.66,1121.28,19,151,-324
1512180064,-0.0270,-0.0173,0.5409,208.62,-115.30,994.63,3,171,-326
1512180064,0.0615,0.1698,0.5571,149.29,-248.78,1082.34,3,171,-326
1512180064,-0.2101,-0.2093,0.5481,225.22,-182.07,942.20,3,171,-326
1512180064,0.0810,0.0908,0.5569,127.75,-186.71,902.16,3,171,-326
1512180064,-0.0527,-0.0265,0.5495,154.30,-157.17,976.62,0,188,-319
1512180064,0.0172,0.0033,0.5591,164.98,-114.62,869.69,0,188,-319
1512180064,0.0707,0.0863,0.5543,198.06,-132.08,1041.69,0,188,-319
1512180064,-0.0196,0.0084,0.5641,188.78,-203.43,918.82,0,188,-319
1512180064,0.0308,0.0206,0.5694,139.40,-144.04,1026.25,0,188,-319
1512180064,0.1174,0.0550,0.5762,191.04,-129.03,1030.09,-10,199,-309
1512180064,-0.0511,0.0052,0.5739,171.33,-263.98,919.74,-10,199,-309
1512180064,0.0220,-0.0004,0.5850,199.34,-82.09,952.45,-10,199,-309
1512180064,0.0406,0.0739,0.5956,97.96,-176.09,951.23,-10,199,-309
1512180064,0.0073,0.0344,0.5940,194.95,-163.82,943.79,-10,199,-309
1512180064,0.0149,0.0791,0.5950,194.21,-182.86,921.51,-12,204,-301
1512180065,0.0033,-0.0063,0.6031,95.95,-143.98,951.90,-12,204,-301
1512180065,0.1125,0.0811,0.6052,119.87,-153.81,958.56,-12,204,-301
1512180065,-0.0035,0.0747,0.6093,141.91,-163.64,939.88,-12,204,-301
1512180065,-0.0012,0.0414,0.6147,180.36,-143.01,939.27,-8,232,-308
1512180065,0.0277,0.0386,0.6168,99.61,-180.97,1070.74,-8,232,-308
1512180065,-0.0015,-0.0313,0.6281,88.56,-139.47,1065.06,-8,232,-308
1512180065,0.0250,0.0208,0.6253,147.46,-140.56,997.19,-8,232,-308
1512180065,-0.0181,-0.0003,0.6357,97.72,-213.75,945.01,-8,232,-308
1512180065,0.0053,0.0124,0.6378,99.06,-189.58,966.67,-33,239,-304
1512180065,0.0017,-0.0265,0.6530,10.62,-187.44,1060.85,-33,239,-304
1512180065,0.0001,0.0137,0.6623,25.09,-230.90,1034.36,-33,239,-304
1512180065,0.0672,-0.0198,0.6736,40.89,-218.08,979.00,-33,239,-304
1512180065,0.0683,0.0510,0.6863,126.95,-241.46,925.35,-31,273,-326
1512180065,-0.0462,0.0386,0.6867,99.49,-241.09,950.01,-31,273,-326
1512180065,0.0402,-0.0176,0.6939,129.15,-208.92,937.50,-31,273,-326
1512180065,0.0446,0.0294,0.6880,125.00,-211.24,1098.69,-31,273,-326
1512180065,0.0210,-0.0254,0.7035,74.71,-107.97,1113.16,-31,273,-326
1512180065,-0.0892,-0.0431,0.6976,108.52,-80.32,1128.91,-35,273,-309
1512180065,-0.0654,-0.0057,0.7028,72.69,-136.66,1121.15,-35,273,-309
1512180065,-0.1732,-0.0514,0.7065,99.85,-118.29,1025.09,-35,273,-309
1512180065,-0.2894,-0.0294,0.7043,11.41,-142.94,1071.35,-35,273,-309
1512180065,-0.2754,0.0017,0.7060,71.17,-204.71,1044.68,-35,273,-309
1512180065,-0.3225,-0.0680,0.7059,6.53,-261.72,1028.69,-43,275,-308
1512180065,-0.2855,-0.0322,0.7197,-4.39,-247.56,1037.41,-43,275,-308
1512180065,-0.2571,-0.1057,0.7133,68.30,-285.34,977.17,-43,275,-308
1512180065,-0.1443,-0.0103,0.7149,129.64,-305.60,903.44,-43,275,-308
1512180065,-0.1570,-0.0061,0.7318,125.73,-379.76,932.31,-26,306,-318
1512180065,-0.1546,-0.0613,0.7779,112.06,-372.01,910.64,-26,306,-318
1512180065,-0.1565,-0.0748,0.7567,116.88,-419.98,850.10,-26,306,-318
1512180065,0.0252,0.0989,0.7318,117.68,-315.61,1099.91,-26,306,-318
1512180065,-0.0490,-0.1043,0.7328,194.52,-278.20,1055.97,-26,306,-318
1512180065,-0.0224,0.1314,0.7175,243.71,-408.39,994.02,-47,310,-338
1512180065,-0.0527,0.1202,0.7203,294.31,-389.04,1124.76,-47,310,-338
1512180065,-0.0609,0.1486,0.7252,249.82,-441.96,1025.21,-47,310,-338
1512180065,0.0405,0.1597,0.7402,131.29,-325.62,1124.88,-47,310,-338
1512180065,0.1049,0.2222,0.7424,84.90,-312.81,1043.64,-47,310,-338
1512180065,0.1186,0.0830,0.7486,-60.24,-122.25,1030.40,-57,331,-318
1512180066,0.1217,0.2113,0.7424,73.00,-310.85,935.12,-57,331,-318
1512180066,-0.0391,0.2566,0.7460,-28.08,-292.11,958.31,-57,331,-318
1512180066,-0.0811,0.1184,0.7460,-29.17,-303.53,930.54,-57,331,-318
1512180066,-0.0810,0.1169,0.7567,-117.86,-279.60,1057.86,-80,350,-323
1512180066,-0.1292,0.0222,0.7667,-120.54,-202.03,1022.46,-80,350,-323
1512180066,-0.1578,0.0542,0.7698,-28.81,-198.36,1051.09,-80,350,-323
1512180066,-0.1768,0.0771,0.7944,-157.65,-257.81,1164.92,-80,350,-323
1512180066,-0.2859,-0.1447,0.7988,-55.54,-283.39,1113.16,-80,350,-323
1512180066,-0.1519,-0.0378,0.8230,-33.87,-400.39,1040.53,-96,345,-328
1512180066,-0.2489,-0.1747,0.8217,-4.39,-347.41,1106.51,-96,345,-328
1512180066,-0.2668,-0.2921,0.8310,30.33,-369.75,958.37,-96,345,-328
1512180066,-0.2067,-0.1611,0.8187,-27.10,-434.39,995.42,-96,345,-328
1512180066,-0.3329,-0.2483,0.8019,76.23,-477.36,922.00,-112,354,-326
1512180066,-0.2209,-0.1338,0.8316,122.74,-499.15,942.69,-112,354,-326
1512180066,-0.1229,-0.0883,0.6633,284.42,-560.12,1040.47,-112,354,-326
1512180066,-0.0491,-0.0973,0.8518,96.50,-472.53,1079.59,-112,354,-326
1512180066,-0.0457,-0.1462,0.8437,280.33,-608.70,1052.55,-112,354,-326
1512180066,0.2059,-0.0209,0.8040,166.02,-417.72,1092.96,-122,347,-363
1512180066,0.0397,-0.1205,0.7731,164.37,-487.92,1012.15,-122,347,-363
1512180066,0.2670,0.0033,0.7626,151.18,-470.89,984.56,-122,347,-363
1512180066,0.2754,-0.0164,0.7465,157.17,-444.46,855.16,-122,347,-363
1512180066,0.3539,0.0433,0.7715,68.60,-387.08,921.94,-122,347,-363
1512180066,0.1389,-0.0908,0.7469,32.04,-341.61,893.86,-144,361,-346
1512180066,0.3139,0.0875,0.7771,-35.52,-236.39,944.15,-144,361,-346
1512180066,0.1569,0.0004,0.7724,-28.75,-297.61,873.23,-144,361,-346
1512180066,0.1565,0.0964,0.7823,-28.50,-246.34,884.77,-144,361,-346
1512180066,0.0844,0.0613,0.7791,-11.66,-265.99,986.02,-166,359,-341
1512180066,0.0198,0.0304,0.7786,-58.47,-289.49,949.10,-166,359,-341
1512180066,0.0663,0.0453,0.7727,-31.01,-247.38,1046.02,-166,359,-341
1512180066,-0.0312,0.0079,0.7655,21.24,-329.59,1033.69,-166,359,-341
1512180066,0.0225,0.0598,0.7629,-16.36,-340.03,1091.92,-166,359,-341
1512180066,-0.0387,-0.0124,0.7574,34.24,-333.25,1084.53,-177,356,-345
1512180066,-0.0166,-0.0181,0.7515,55.11,-370.36,986.57,-177,356,-345
1512180066,0.0399,0.0321,0.7534,-9.34,-334.53,1077.39,-177,356,-345
1512180066,0.0425,-0.0458,0.7515,39.25,-364.32,954.28,-177,356,-345
1512180066,0.0972,0.0204,0.7559,-2.14,-295.59,1034.79,-177,356,-345
1512180066,0.0570,-0.0457,0.7577,-13.79,-297.67,934.02,-219,359,-348
1512180066,0.0007,0.0314,0.7454,-3.05,-353.27,951.11,-219,359,-348
1512180067,-0.0561,-0.0310,0.7473,-39.98,-339.36,943.24,-219,359,-348
1512180067,0.0816,0.0170,0.7482,-21.24,-334.47,998.84,-219,359,-348
1512180067,-0.0486,-0.0503,0.7373,-82.34,-320.74,988.53,-230,349,-331
1512180067,0.0089,-0.0144,0.7281,16.17,-336.98,953.98,-230,349,-331
1512180067,-0.0494,-0.0133,0.7204,-53.41,-342.53,951.17,-230,349,-331
1512180067,-0.0172,-0.0222,0.7072,-81.05,-369.63,990.30,-230,349,-331
1512180067,-0.0694,-0.0658,0.6908,6.29,-364.69,910.34,-230,349,-331
1512180067,0.0606,0.1157,0.6784,-33.02,-390.08,971.80,-238,350,-336
1512180067,-0.0356,-0.1111,0.6627,-60.67,-334.35,928.77,-238,350,-336
1512180067,0.0892,0.0937,0.6522,-73.61,-342.04,997.01,-238,350,-336
1512180067,0.0539,0.0485,0.6388,-92.83,-340.03,1123.41,-238,350,-336
1512180067,-0.0301,-0.0324,0.6216,-1.53,-367.74,1016.24,-267,343,-340
1512180067,0.0771,0.0959,0.6213,-13.98,-318.36,1051.03,-267,343,-340
1512180067,0.0555,-0.0197,0.6175,-37.17,-322.63,1102.36,-267,343,-340
1512180067,0.0445,-0.0001,0.6099,-27.71,-279.85,1024.90,-267,343,-340
1512180067,0.0973,0.0458,0.5999,-65.43,-303.34,1098.82,-267,343,-340
1512180067,0.0169,-0.0116,0.5816,-56.40,-303.41,1064.51,-286,352,-355
1512180067,0.0064,0.0160,0.5657,-80.38,-337.34,981.87,-286,352,-355
1512180067,-0.0125,0.0161,0.5498,-102.17,-301.15,1021.67,-286,352,-355
1512180067,0.0067,-0.0130,0.5438,-63.42,-228.70,940.80,-286,352,-355
1512180067,0.0257,0.0133,0.5261,-123.17,-251.77,986.63,-303,327,-341
1512180067,-0.0393,-0.0232,0.5127,-131.71,-291.56,880.55,-303,327,-341
1512180067,0.0194,0.0292,0.4989,-91.98,-218.20,923.95,-303,327,-341
1512180067,-0.0120,0.0068,0.4831,-140.87,-255.19,938.90,-303,327,-341
