TC has set the system time
Mag Calibration: Wave device in a figure 8 until done!
4 seconds to get ready followed by 15 seconds of sampling)
Mag Calibration done!
time_unix,rotate_x,rotate_y,rotate_z,acc_x,acc_y,acc_z,mag_x,mag_y,mag_z
1512180640,-0.0040,-0.0003,-0.0019,-34.30,68.05,1002.01,-56,-12,3
1512180640,-0.0013,0.0033,-0.0011,-21.97,69.27,995.61,-56,-12,3
1512180640,0.0076,0.0013,-0.0027,-23.38,75.81,1004.76,-56,-12,3
1512180640,-0.0009,0.0031,-0.0013,-30.46,67.32,1003.48,-57,-24,5
1512180640,-0.0039,0.0007,-0.0031,-24.84,75.74,1009.95,-57,-24,5
1512180640,0.0019,0.0012,-0.0025,-29.54,73.30,987.67,-57,-24,5
1512180640,0.0049,0.0031,-0.0016,-26.92,71.41,997.25,-57,-24,5
1512180640,0.0011,-0.0016,-0.0015,-27.22,74.46,1008.18,-57,-24,5
1512180640,-0.0057,0.0004,-0.0019,-31.31,67.08,984.86,-47,-7,5
1512180640,-0.0012,0.0023,-0.0027,-21.73,71.90,993.65,-47,-7,5
1512180640,0.0084,0.0004,-0.0019,-23.68,75.81,1006.77,-47,-7,5
1512180640,0.0000,0.0020,-0.0013,-32.47,67.38,999.45,-47,-7,5
1512180640,-0.0068,-0.0001,-0.0012,-21.91,70.19,992.37,-47,-10,5
1512180640,0.0047,0.0025,-0.0028,-28.75,74.52,987.73,-47,-10,5
1512180640,0.0069,0.0027,-0.0008,-29.17,70.01,1005.86,-47,-10,5
1512180640,-0.0075,0.0003,-0.0023,-23.44,71.66,996.58,-47,-10,5
1512180640,-0.0013,0.0003,-0.0028,-28.75,72.02,981.87,-47,-10,5
1512180640,0.0025,0.0024,-0.0017,-25.70,68.73,992.49,-54,-14,-5
1512180640,0.0096,0.0016,-0.0013,-27.40,76.11,1013.00,-54,-14,-5
1512180640,-0.0036,0.0012,-0.0008,-28.75,68.60,1003.30,-54,-14,-5
1512180640,-0.0109,-0.0005,-0.0015,-24.78,69.15,994.81,-54,-14,-5
1512180640,0.0071,0.0000,-0.0009,-22.58,74.34,999.08,-42,-5,6
1512180640,0.0027,0.0029,-0.0001,-30.82,67.99,1007.26,-42,-5,6
1512180640,-0.0109,0.0007,-0.0004,-21.36,71.53,995.91,-42,-5,6
1512180640,-0.0013,0.0015,-0.0019,-24.72,70.68,986.57,-42,-5,6
1512180640,0.0069,0.0025,-0.0009,-28.38,70.13,1000.37,-42,-5,6
1512180640,-0.0045,0.0004,-0.0023,-26.55,75.26,1004.82,-40,-17,-1
1512180640,-0.0083,0.0029,-0.0023,-27.10,68.79,974.79,-40,-17,-1
1512180641,-0.0009,0.0024,-0.0028,-22.16,65.55,988.34,-40,-17,-1
1512180641,0.0112,0.0028,-0.0023,-23.01,73.55,1007.69,-40,-17,-1
1512180641,-0.0059,0.0013,-0.0029,-31.37,65.06,995.85,-40,-17,-1
1512180641,-0.0075,0.0025,-0.0019,-21.79,67.32,993.65,-47,-17,11
1512180641,0.0076,0.0023,-0.0016,-25.57,74.95,988.83,-47,-17,11
1512180641,0.0005,0.0041,-0.0023,-34.00,68.18,1005.86,-47,-17,11
1512180641,-0.0043,0.0011,-0.0007,-11.17,82.40,1039.79,-47,-17,11
1512180641,-0.0156,-0.0003,-0.0020,-31.92,65.55,988.40,-52,-12,16
1512180641,0.0249,0.0048,-0.0016,-34.97,80.14,994.87,-52,-12,16
1512180641,0.0148,0.0012,-0.0007,-33.87,82.76,1027.71,-52,-12,16
1512180641,-0.0132,0.0031,-0.0027,-33.20,73.06,986.33,-52,-12,16
1512180641,-0.0048,0.0031,-0.0004,-24.90,59.45,987.12,-52,-12,16
1512180641,0.0217,0.0021,-0.0015,-29.91,72.63,1022.34,-61,-17,5
1512180641,0.0097,0.0012,-0.0015,-36.01,74.83,1007.39,-61,-17,5
1512180641,-0.0244,0.0032,-0.0016,-19.96,55.30,974.79,-61,-17,5
1512180641,0.0141,-0.0005,-0.0009,-25.51,68.91,999.45,-61,-17,5
1512180641,0.0205,0.0024,0.0000,-35.22,71.59,1011.41,-61,-17,5
1512180641,-0.0274,0.0008,-0.0020,-23.13,67.32,982.60,-47,-24,-1
1512180641,0.0023,-0.0009,-0.0015,-25.51,64.39,977.23,-47,-24,-1
1512180641,0.0249,0.0043,-0.0007,-41.81,62.07,1006.47,-47,-24,-1
1512180641,-0.0338,0.0023,-0.0032,-35.95,46.33,980.16,-47,-24,-1
1512180641,-0.0049,0.0016,-0.0031,-39.98,37.90,973.82,-35,-5,-6
1512180641,0.0224,0.0060,-0.0020,-56.03,40.47,1017.27,-35,-5,-6
1512180641,0.0072,0.0017,-0.0008,-55.97,51.51,1028.56,-35,-5,-6
1512180641,-0.0092,0.0023,-0.0012,-56.64,30.21,965.58,-35,-5,-6
1512180641,0.0202,0.0039,-0.0012,-58.59,35.52,1011.84,-35,-5,-6
1512180641,0.0099,0.0021,-0.0017,-53.83,51.03,1033.33,-47,-28,1
1512180641,-0.0083,0.0021,-0.0025,-54.44,28.26,972.60,-47,-28,1
1512180641,0.0097,0.0049,-0.0011,-55.85,31.62,997.38,-47,-28,1
1512180641,0.0096,0.0008,-0.0028,-51.82,51.45,1005.98,-47,-28,1
1512180641,-0.0116,0.0001,-0.0027,-66.71,27.34,997.92,-57,-17,-1
1512180641,-0.0083,-0.0003,-0.0020,-50.42,40.22,998.41,-57,-17,-1
1512180641,0.0075,0.0003,-0.0025,-50.35,45.78,984.19,-57,-17,-1
1512180641,-0.0015,-0.0008,-0.0028,-66.28,34.06,1008.06,-57,-17,-1
1512180641,-0.0104,-0.0009,-0.0045,-49.01,42.48,1002.14,-57,-17,-1
1512180641,-0.0076,-0.0003,-0.0021,-53.83,36.80,976.75,-40,-28,-1
1512180641,0.0060,0.0025,-0.0021,-62.93,34.91,1016.78,-40,-28,-1
1512180641,-0.0007,-0.0012,-0.0044,-47.67,48.40,1012.21,-40,-28,-1
1512180642,-0.0101,0.0000,-0.0041,-55.18,25.45,988.16,-40,-28,-1
1512180642,0.0049,0.0017,-0.0037,-52.06,38.39,1007.57,-50,-14,-5
1512180642,0.0071,0.0003,-0.0043,-48.46,50.60,1006.96,-50,-14,-5
1512180642,-0.0036,0.0000,-0.0031,-61.71,30.52,1004.94,-50,-14,-5
1512180642,-0.0072,-0.0016,-0.0043,-47.85,35.83,1009.77,-50,-14,-5
1512180642,0.0138,0.0003,-0.0036,-51.51,45.23,975.04,-50,-14,-5
1512180642,0.0169,0.0064,-0.0031,-57.98,31.37,1015.69,-66,-19,20
1512180642,0.0055,-0.0005,-0.0056,-58.59,42.30,1022.40,-66,-19,20
1512180642,-0.0011,0.0012,-0.0053,-61.83,34.30,989.81,-66,-19,20
1512180642,0.0134,0.0012,-0.0039,-70.62,32.35,1007.39,-66,-19,20
1512180642,0.0064,0.0001,-0.0081,-56.70,49.80,1007.75,-66,-19,20
1512180642,-0.0004,-0.0011,-0.0072,-70.31,21.48,987.98,-49,-1,6
1512180642,-0.0008,-0.0011,-0.0105,-56.76,31.98,1003.85,-49,-1,6
1512180642,0.0065,-0.0009,-0.0099,-50.96,41.56,997.74,-49,-1,6
1512180642,0.0008,-0.0017,-0.0087,-71.84,26.92,1010.44,-49,-1,6
1512180642,-0.0059,-0.0025,-0.0083,-58.04,36.13,1003.66,-42,-22,0
1512180642,0.0027,0.0001,-0.0076,-57.37,34.85,982.18,-42,-22,0
1512180642,0.0134,0.0040,-0.0085,-67.02,30.76,1011.05,-42,-22,0
1512180642,-0.0077,-0.0005,-0.0103,-50.48,36.13,1001.46,-42,-22,0
1512180642,-0.0023,0.0019,-0.0093,-66.83,28.14,963.93,-42,-22,0
1512180642,0.0116,0.0017,-0.0119,-62.74,29.60,998.84,-56,-8,10
1512180642,0.0168,0.0003,-0.0117,-58.90,53.65,1016.54,-56,-8,10
1512180642,-0.0079,-0.0011,-0.0153,-64.70,31.49,982.73,-56,-8,10
1512180642,0.0060,0.0020,-0.0164,-62.74,34.55,990.84,-56,-8,10
1512180642,0.0260,0.0032,-0.0173,-62.68,54.57,1030.58,-56,-8,10
1512180642,-0.0202,0.0004,-0.0176,-68.48,23.68,967.41,-57,-17,11
1512180642,-0.0081,-0.0016,-0.0165,-67.20,26.12,989.44,-57,-17,11
1512180642,0.0162,0.0004,-0.0154,-69.09,47.67,1023.56,-57,-17,11
1512180642,-0.0173,-0.0012,-0.0164,-75.01,22.16,972.11,-57,-17,11
1512180642,-0.0071,0.0031,-0.0158,-61.40,19.10,990.84,-72,-24,8
1512180642,0.0099,0.0020,-0.0164,-68.73,37.66,1026.55,-72,-24,8
1512180642,-0.0043,-0.0013,-0.0186,-80.26,19.17,994.87,-72,-24,8
1512180642,-0.0053,0.0015,-0.0210,-62.26,20.39,996.58,-72,-24,8
1512180642,0.0051,-0.0004,-0.0240,-66.83,39.79,1013.49,-72,-24,8
1512180642,-0.0021,0.0009,-0.0269,-77.45,22.64,998.54,-43,-28,18
1512180642,0.0052,0.0052,-0.0276,-73.79,21.55,1004.64,-43,-28,18
1512180642,0.0083,0.0051,-0.0265,-72.20,41.02,1009.52,-43,-28,18
1512180643,0.0019,0.0009,-0.0282,-74.10,26.25,982.97,-43,-28,18
1512180643,0.0035,0.0021,-0.0280,-81.60,27.89,996.40,-43,-28,18
1512180643,-0.0048,0.0001,-0.0274,-66.59,39.06,1011.29,-73,-12,20
1512180643,-0.0008,-0.0005,-0.0280,-69.95,33.63,984.80,-73,-12,20
1512180643,0.0073,0.0047,-0.0290,-75.13,27.04,998.54,-73,-12,20
1512180643,-0.0080,0.0016,-0.0341,-64.39,38.15,1002.93,-73,-12,20
1512180643,0.0025,-0.0015,-0.0349,-74.46,28.69,980.22,-54,-14,-1
1512180643,0.0008,-0.0008,-0.0370,-88.75,29.85,1001.65,-54,-14,-1
1512180643,-0.0234,0.0004,-0.0406,-68.54,27.65,982.18,-54,-14,-1
1512180643,0.0144,0.0020,-0.0417,-71.66,24.96,988.77,-54,-14,-1
1512180643,-0.0069,0.0005,-0.0415,-87.28,24.60,1010.86,-54,-14,-1
1512180643,-0.0173,0.0016,-0.0403,-72.57,26.92,987.43,-57,-21,22
1512180643,0.0192,0.0024,-0.0401,-66.71,33.75,1009.77,-57,-21,22
1512180643,-0.0112,-0.0011,-0.0409,-93.26,40.77,1005.00,-57,-21,22
1512180643,-0.0244,0.0009,-0.0421,-74.83,24.29,972.17,-57,-21,22
1512180643,0.0337,0.0003,-0.0409,-72.27,49.13,1029.85,-66,-15,20
1512180643,0.0088,-0.0021,-0.0465,-92.22,39.55,997.50,-66,-15,20
1512180643,-0.0059,-0.0029,-0.0485,-74.40,26.73,974.06,-66,-15,20
1512180643,0.0341,-0.0025,-0.0529,-87.71,58.78,1041.81,-66,-15,20
1512180643,-0.0129,-0.0025,-0.0559,-92.29,32.10,992.37,-66,-15,20
1512180643,0.0212,0.0017,-0.0558,-79.22,32.96,1004.27,-68,-7,22
1512180643,0.0288,-0.0013,-0.0577,-82.03,44.37,1043.09,-68,-7,22
1512180643,-0.0192,-0.0036,-0.0582,-74.28,21.91,987.49,-68,-7,22
1512180643,0.0438,-0.0008,-0.0571,-79.65,35.46,998.60,-68,-7,22
1512180643,0.0128,-0.0001,-0.0557,-74.22,52.31,1023.01,-68,-7,22
1512180643,-0.0245,0.0016,-0.0599,-69.64,21.00,976.50,-66,-15,13
1512180643,0.0405,0.0081,-0.0601,-86.79,47.73,1018.25,-66,-15,13
1512180643,0.0052,0.0029,-0.0635,-75.01,48.22,1023.68,-66,-15,13
1512180643,-0.0008,0.0009,-0.0668,-78.12,32.17,964.11,-66,-15,13
1512180643,0.0226,0.0055,-0.0710,-100.71,33.33,993.47,-56,-22,0
1512180643,-0.0169,0.0009,-0.0743,-80.57,34.36,981.81,-56,-22,0
1512180643,0.0397,-0.0009,-0.0734,-79.83,47.24,1001.77,-56,-22,0
1512180643,0.0085,-0.0031,-0.0756,-89.97,35.34,1009.34,-56,-22,0
1512180643,-0.0091,-0.0012,-0.0760,-71.35,25.39,992.07,-56,-22,0
1512180643,0.0229,0.0033,-0.0744,-72.63,26.67,992.55,-66,-22,27
1512180643,0.0041,0.0091,-0.0772,-79.04,39.37,990.66,-66,-22,27
1512180643,0.0019,0.0176,-0.0823,-84.90,23.80,962.71,-66,-22,27
1512180643,0.0305,0.0202,-0.0819,-59.45,87.34,1050.29,-66,-22,27
1512180644,-0.0023,0.0097,-0.0824,-91.67,66.53,1027.40,-66,-22,27
1512180644,-0.0273,-0.0011,-0.0838,-78.74,67.08,1022.46,-73,-29,27
1512180644,0.0088,-0.0103,-0.0784,-94.42,98.14,1041.26,-73,-29,27
1512180644,-0.0202,-0.0217,-0.0782,-104.19,59.27,991.15,-73,-29,27
1512180644,-0.0027,-0.0266,-0.0791,-90.33,65.86,983.83,-73,-29,27
1512180644,-0.0305,-0.0293,-0.0816,-75.50,65.55,990.66,-75,-28,18
1512180644,-0.0077,-0.0273,-0.0866,-64.09,47.18,938.60,-75,-28,18
1512180644,0.0043,-0.0245,-0.0889,-85.02,39.37,963.50,-75,-28,18
1512180644,-0.0189,-0.0246,-0.0937,-67.32,66.16,981.51,-75,-28,18
1512180644,-0.0113,-0.0230,-0.0972,-71.59,55.18,982.12,-75,-28,18
1512180644,-0.0099,-0.0208,-0.1001,-86.30,60.36,981.75,-72,-28,11
1512180644,-0.0398,-0.0204,-0.1008,-71.11,64.33,986.39,-72,-28,11
1512180644,0.0073,-0.0154,-0.0996,-78.12,68.24,1000.31,-72,-28,11
1512180644,-0.0056,-0.0156,-0.0979,-76.48,59.27,1038.21,-72,-28,11
1512180644,-0.0502,-0.0150,-0.0967,-56.34,36.56,982.85,-61,-35,25
1512180644,0.0127,-0.0121,-0.0944,-49.32,88.75,1067.81,-61,-35,25
1512180644,-0.0395,-0.0115,-0.0936,-61.16,57.74,1032.84,-61,-35,25
1512180644,-0.0611,-0.0023,-0.0944,-28.44,48.34,1003.11,-61,-35,25
1512180644,0.0048,0.0059,-0.0959,-26.73,60.91,1014.22,-61,-35,25
1512180644,-0.0337,0.0081,-0.0984,-45.84,47.79,993.84,-70,-33,20
1512180644,-0.0249,0.0063,-0.0997,-52.12,47.12,966.67,-70,-33,20
1512180644,0.0104,0.0063,-0.1012,-66.10,67.57,1035.58,-70,-33,20
1512180644,-0.0097,0.0017,-0.1032,-72.45,50.96,959.05,-70,-33,20
1512180644,0.0044,0.0056,-0.1047,-57.13,45.23,989.81,-70,-33,20
1512180644,-0.0109,0.0032,-0.1040,-51.94,63.23,977.66,-80,-29,13
1512180644,0.0009,0.0037,-0.1028,-62.26,42.05,960.51,-80,-29,13
1512180644,0.0441,0.0091,-0.1024,-69.34,62.74,995.30,-80,-29,13
1512180644,-0.0398,0.0097,-0.1063,-53.77,54.14,974.18,-80,-29,13
1512180644,-0.0108,0.0077,-0.1076,-60.42,37.11,952.94,-73,-22,10
1512180644,0.0220,0.0124,-0.1059,-75.44,47.97,979.19,-73,-22,10
1512180644,-0.0233,0.0009,-0.1033,-50.17,62.50,956.05,-73,-22,10
1512180644,0.0348,-0.0068,-0.1040,-79.96,88.32,1020.51,-73,-22,10
1512180644,0.0123,-0.0072,-0.1045,-73.91,79.47,1019.47,-73,-22,10
1512180644,-0.0105,-0.0057,-0.1084,-61.83,62.56,987.85,-57,-35,32
1512180644,-0.0071,-0.0052,-0.1099,-63.48,69.34,1010.56,-57,-35,32
1512180644,-0.0168,-0.0083,-0.1133,-44.68,60.42,970.21,-57,-35,32
1512180644,0.0056,-0.0036,-0.1142,-49.01,35.16,1030.58,-57,-35,32
1512180644,-0.0413,-0.0103,-0.1172,-46.14,65.55,986.82,-57,-35,32
1512180645,-0.0567,-0.0097,-0.1153,-57.98,33.45,933.35,-68,-35,15
1512180645,0.0202,-0.0029,-0.1079,-91.49,58.53,995.67,-68,-35,15
1512180645,-0.0321,0.0051,-0.1095,-60.55,61.89,979.98,-68,-35,15
1512180645,0.0123,0.0108,-0.1105,-50.90,42.05,1004.39,-68,-35,15
1512180645,-0.0346,-0.0009,-0.1088,-42.60,50.42,946.35,-66,-29,23
1512180645,-0.0165,-0.0061,-0.1107,-49.93,29.60,941.59,-66,-29,23
1512180645,0.0261,-0.0015,-0.1123,-57.68,62.32,1039.92,-66,-29,23
1512180645,-0.0190,-0.0020,-0.1169,-64.09,59.75,980.22,-66,-29,23
1512180645,-0.0097,0.0040,-0.1168,-77.88,43.40,964.29,-66,-29,23
1512180645,-0.0138,0.0045,-0.1169,-67.38,67.14,1000.67,-66,-29,20
1512180645,0.0282,-0.0024,-0.1108,-65.12,96.80,1027.71,-66,-29,20
1512180645,0.0225,-0.0033,-0.1111,-96.92,77.33,983.03,-66,-29,20
1512180645,-0.0075,-0.0003,-0.1113,-61.46,67.81,1014.04,-66,-29,20
1512180645,-0.0376,0.0015,-0.1129,-67.63,78.25,1006.90,-91,-29,13
1512180645,-0.0230,-0.0027,-0.1161,-59.94,44.13,962.95,-91,-29,13
1512180645,-0.0254,-0.0049,-0.1158,-65.19,68.79,1007.02,-91,-29,13
1512180645,-0.0609,-0.0033,-0.1174,-58.84,36.38,948.24,-91,-29,13
1512180645,0.0028,0.0053,-0.1153,-56.46,84.90,984.37,-91,-29,13
1512180645,0.0136,0.0138,-0.1190,-79.41,53.34,1034.73,-80,-44,20
1512180645,-0.0365,0.0133,-0.1217,-56.95,27.16,951.97,-80,-44,20
1512180645,-0.0377,0.0121,-0.1212,-49.56,65.92,981.75,-80,-44,20
1512180645,0.0081,0.0109,-0.1208,-61.04,52.06,993.47,-80,-44,20
1512180645,-0.0242,0.0053,-0.1150,-75.56,62.50,988.34,-80,-44,20
1512180645,-0.0407,-0.0023,-0.1145,-40.04,50.17,981.02,-86,-52,15
1512180645,-0.0161,-0.0117,-0.1072,-79.35,49.87,1020.20,-86,-52,15
1512180645,-0.0479,-0.0188,-0.1101,-32.41,109.50,1010.93,-86,-52,15
1512180645,-0.0245,-0.0217,-0.1044,-59.75,38.27,1008.42,-86,-52,15
1512180645,0.0003,-0.0268,-0.1068,-53.22,60.61,1030.03,-80,-54,13
1512180645,-0.0270,-0.0320,-0.1041,-9.64,89.42,1007.20,-80,-54,13
1512180645,-0.0678,-0.0445,-0.1049,-62.68,31.98,966.61,-80,-54,13
1512180645,-0.0529,-0.0493,-0.1063,-41.08,75.50,978.03,-80,-54,13
1512180645,-0.0130,-0.0449,-0.1008,-70.92,84.90,1008.24,-80,-54,13
1512180645,-0.0589,-0.0413,-0.1056,-26.00,80.08,991.39,-87,-47,16
1512180645,-0.0072,-0.0258,-0.1045,-16.85,69.27,1021.79,-87,-47,16
1512180645,-0.0372,-0.0248,-0.1032,-23.62,43.76,1033.75,-87,-47,16
1512180645,-0.0209,-0.0328,-0.0996,-35.95,95.52,1010.62,-87,-47,16
1512180645,-0.0510,-0.0368,-0.0947,-52.92,62.81,981.63,-96,-49,15
1512180646,-0.0575,-0.0208,-0.0903,-26.06,79.47,986.88,-96,-49,15
1512180646,-0.0254,-0.0019,-0.0871,0.06,72.45,1057.19,-96,-49,15
1512180646,0.0312,-0.0053,-0.0912,-26.31,65.37,1107.91,-96,-49,15
1512180646,-0.0021,-0.0104,-0.0940,-18.37,57.68,985.90,-96,-49,15
1512180646,0.0144,-0.0091,-0.0975,-36.93,47.79,975.16,-79,-52,15
1512180646,0.0031,-0.0020,-0.0965,-47.55,90.64,971.98,-79,-52,15
1512180646,0.0201,0.0091,-0.0961,-65.98,86.85,978.15,-79,-52,15
1512180646,0.0268,0.0138,-0.0909,-52.19,101.75,1010.01,-79,-52,15
1512180646,-0.0089,0.0103,-0.0866,-58.96,62.07,1005.25,-79,-52,15
1512180646,0.0302,0.0081,-0.0828,-34.97,116.39,1039.73,-82,-66,22
1512180646,0.0121,0.0036,-0.0795,-51.51,118.41,1057.43,-82,-66,22
1512180646,-0.0312,-0.0029,-0.0807,-73.00,91.80,1002.87,-82,-66,22
1512180646,0.0048,0.0004,-0.0770,-48.22,73.67,1007.63,-82,-66,22
1512180646,-0.0334,-0.0015,-0.0772,-36.80,68.60,962.83,-79,-56,15
1512180646,-0.0206,-0.0004,-0.0806,-42.91,44.31,949.95,-79,-56,15
1512180646,0.0025,0.0017,-0.0806,-31.13,56.46,956.54,-79,-56,15
1512180646,-0.0423,-0.0008,-0.0786,-31.62,38.82,995.48,-79,-56,15
1512180646,-0.0141,0.0019,-0.0755,-25.15,69.21,961.06,-79,-56,15
1512180646,0.0101,0.0048,-0.0668,-38.21,55.36,1026.37,-84,-58,16
1512180646,0.0136,0.0091,-0.0582,-11.72,88.26,1013.24,-84,-58,16
1512180646,0.0133,0.0108,-0.0545,-57.01,61.16,1054.20,-84,-58,16
1512180646,0.0162,0.0160,-0.0521,-19.90,69.95,980.90,-84,-58,16
1512180646,0.0113,0.0233,-0.0515,-37.96,71.59,1006.41,-84,-58,16
1512180646,-0.0169,0.0210,-0.0506,-46.26,57.62,977.91,-82,-63,8
1512180646,-0.0306,0.0193,-0.0495,-25.94,18.37,976.32,-82,-63,8
1512180646,-0.0035,-0.0007,-0.0433,-46.94,67.14,929.99,-82,-63,8
1512180646,0.0099,-0.0141,-0.0447,-53.53,52.98,978.94,-82,-63,8
1512180646,0.0105,-0.0152,-0.0402,-63.17,73.12,981.81,-80,-58,16
1512180646,-0.0142,-0.0177,-0.0406,-69.82,66.83,961.18,-80,-58,16
1512180646,-0.0073,-0.0238,-0.0370,-39.00,69.64,987.85,-80,-58,16
1512180646,-0.0028,-0.0229,-0.0322,-28.02,64.27,972.60,-80,-58,16
1512180646,-0.0470,-0.0281,-0.0298,-3.60,23.74,1006.47,-80,-58,16
1512180646,-0.0369,-0.0305,-0.0269,-22.58,25.63,1003.11,-89,-59,-1
1512180646,-0.0587,-0.0370,-0.0262,-4.15,43.70,1000.24,-89,-59,-1
1512180646,-0.0100,-0.0345,-0.0194,-14.16,44.74,1012.02,-89,-59,-1
1512180646,-0.0103,-0.0330,-0.0156,-31.92,32.53,988.95,-89,-59,-1
1512180646,0.0008,-0.0272,-0.0133,-22.03,43.09,1007.63,-94,-65,3
1512180646,-0.0065,-0.0368,-0.0072,-35.89,71.59,982.67,-94,-65,3
1512180647,0.0124,-0.0387,-0.0053,-30.52,59.63,990.78,-94,-65,3
1512180647,-0.0043,-0.0398,-0.0017,-9.64,90.39,994.32,-94,-65,3
1512180647,-0.0603,-0.0509,-0.0021,-16.60,48.58,1026.18,-94,-65,3
1512180647,-0.0184,-0.0602,-0.0032,-36.87,75.32,1093.14,-94,-75,0
1512180647,-0.0750,-0.0570,-0.0033,-8.67,66.83,950.99,-94,-75,0
1512180647,-0.0373,-0.0623,-0.0013,-28.26,44.13,988.16,-94,-75,0
1512180647,-0.0353,-0.0633,-0.0012,5.80,57.80,998.78,-94,-75,0
1512180647,-0.0268,-0.0751,0.0043,-14.83,69.82,995.12,-94,-75,0
1512180647,-0.0471,-0.0760,0.0036,11.66,56.27,983.64,-82,-81,-1
1512180647,-0.0040,-0.0603,0.0049,8.30,54.50,1026.06,-82,-81,-1
1512180647,-0.0200,-0.0405,0.0075,22.46,49.44,1020.51,-82,-81,-1
1512180647,-0.0112,-0.0329,0.0036,19.47,29.85,1004.70,-82,-81,-1
1512180647,-0.0032,-0.0270,-0.0004,40.77,22.58,1034.67,-79,-77,5
1512180647,-0.0049,-0.0124,-0.0009,49.13,18.92,997.13,-79,-77,5
1512180647,-0.0091,-0.0020,0.0067,8.85,15.81,932.13,-79,-77,5
1512180647,0.0109,0.0059,0.0192,38.88,35.34,1023.32,-79,-77,5
1512180647,0.0651,0.0222,0.0075,31.80,52.86,1076.90,-79,-77,5
1512180647,0.0217,0.0216,0.0092,38.15,58.35,978.33,-75,-70,11
1512180647,0.0364,0.0246,0.0088,-11.47,68.18,1022.46,-75,-70,11
1512180647,-0.0013,0.0202,0.0081,-10.01,97.96,990.42,-75,-70,11
1512180647,-0.0109,0.0158,0.0065,-9.89,49.56,1034.67,-75,-70,11
1512180647,0.0204,0.0065,0.0133,2.50,34.48,993.71,-79,-63,28
1512180647,-0.0083,0.0019,0.0079,24.60,31.01,943.60,-79,-63,28
1512180647,-0.0340,-0.0011,0.0049,20.51,-4.15,921.81,-79,-63,28
1512180647,-0.0039,-0.0005,0.0064,5.49,36.93,943.60,-79,-63,28
1512180647,0.0085,0.0073,0.0867,-16.30,44.31,1074.40,-79,-63,28
1512180647,-0.0024,0.0269,0.2071,-15.20,34.85,1043.95,-65,-77,5
1512180647,-0.0032,0.0397,0.2651,-8.12,42.79,997.07,-65,-77,5
1512180647,-0.0079,0.0546,0.2738,7.14,50.90,1062.50,-65,-77,5
1512180647,-0.0402,0.0640,0.3040,3.23,57.62,999.63,-65,-77,5
1512180647,0.0085,0.0680,0.2852,0.00,53.77,1054.63,-65,-77,5
1512180647,0.0722,0.0591,0.3694,22.77,48.10,1022.22,-19,7,-28
1512180647,-0.1562,0.0871,0.4394,1.71,45.59,855.10,-19,7,-28
1512180647,-0.0192,0.0146,0.4392,30.58,19.71,878.48,-19,7,-28
1512180647,-0.1775,0.0033,0.2692,4.15,34.12,827.27,-19,7,-28
1512180647,0.0702,-0.0527,0.0550,-142.46,122.80,891.30,12,91,-82
1512180647,-0.1896,0.0499,0.0386,-171.02,13.31,928.28,12,91,-82
1512180647,-0.0021,-0.0116,0.0277,-48.34,63.72,1038.15,12,91,-82
1512180648,-0.0879,-0.0256,0.0244,-8.91,-39.92,946.47,12,91,-82
1512180648,-0.0730,-0.0698,0.0382,60.30,-11.96,984.13,12,91,-82
1512180648,0.0185,-0.0851,0.0314,-2.26,-48.71,1044.86,17,89,-74
1512180648,-0.0511,-0.0692,0.0382,-5.98,-32.29,989.07,17,89,-74
1512180648,-0.0443,-0.0499,0.0442,24.96,-56.95,1020.63,17,89,-74
1512180648,-0.0096,-0.0459,0.0529,-20.45,-39.73,1078.98,17,89,-74
1512180648,-0.0059,-0.0312,0.0546,19.04,-41.75,1012.33,17,89,-74
1512180648,0.0169,-0.0273,0.0561,-4.27,-11.78,1093.38,12,88,-82
1512180648,0.0166,-0.0260,0.0423,9.83,-78.92,991.70,12,88,-82
1512180648,-0.0109,-0.0241,0.0573,6.10,4.15,995.91,12,88,-82
1512180648,-0.0166,-0.0257,0.0594,-33.45,-34.48,1035.52,12,88,-82
1512180648,-0.0107,-0.0502,0.0667,-35.77,-34.55,976.75,14,86,-84
1512180648,-0.0586,-0.0549,0.0755,-22.40,-45.17,952.15,14,86,-84
1512180648,-0.0072,-0.0565,0.0724,-46.57,-38.33,995.97,14,86,-84
1512180648,-0.0258,-0.0547,0.0758,-27.71,-3.17,954.71,14,86,-84
1512180648,-0.0382,-0.0439,0.0702,-30.94,-65.12,951.54,14,86,-84
1512180648,-0.0059,-0.0421,0.0675,27.34,-19.17,976.32,8,91,-79
1512180648,-0.0075,-0.0365,0.0594,-25.94,-48.58,1012.02,8,91,-79
1512180648,0.0246,-0.0402,0.0648,-2.56,-25.57,1046.57,8,91,-79
1512180648,-0.0069,-0.0398,0.0672,23.68,-45.04,972.60,8,91,-79
1512180648,0.0008,-0.0425,0.0683,15.56,-32.96,1026.43,22,88,-82
1512180648,-0.0109,-0.0205,0.0711,-1.40,-60.79,980.10,22,88,-82
1512180648,0.0507,-0.0146,0.0711,37.23,-3.72,1057.01,22,88,-82
1512180648,0.0393,-0.0081,0.0726,-4.76,-14.40,1068.05,22,88,-82
1512180648,0.0636,-0.0234,0.0836,65.37,-5.98,1047.73,22,88,-82
1512180648,0.0021,-0.0309,0.0860,-4.46,11.84,1004.27,21,96,-88
1512180648,-0.0936,-0.0099,0.0951,-20.81,30.03,896.55,21,96,-88
1512180648,-0.0403,-0.0115,0.0872,4.39,-31.56,993.10,21,96,-88
1512180648,-0.0004,-0.0128,0.0882,-56.03,13.67,1045.29,21,96,-88
1512180648,-0.0678,-0.0072,0.0850,-30.15,-6.16,902.83,21,96,-88
1512180648,-0.0490,0.0035,0.0742,21.48,-29.11,973.14,5,84,-82
1512180648,0.0325,0.0121,0.0662,58.65,83.50,1135.44,5,84,-82
1512180648,-0.0334,-0.0024,0.0778,60.00,3.48,1037.60,5,84,-82
1512180648,-0.0376,-0.0132,0.1025,-42.66,-44.74,1038.57,5,84,-82
1512180648,-0.0642,0.0473,0.1244,15.99,-41.81,906.98,28,86,-94
1512180648,0.0466,0.0518,0.1557,18.19,-67.93,828.86,28,86,-94
1512180648,0.0357,-0.0023,0.2786,24.35,-36.01,850.34,28,86,-94
1512180649,-0.0574,0.0028,0.3186,-6.65,-37.84,858.22,28,86,-94
1512180649,0.1633,-0.0438,0.2182,-26.37,-71.53,1062.32,28,86,-94
1512180649,-0.1192,0.0313,0.1292,-23.44,-41.87,913.76,52,93,-88
1512180649,-0.0288,0.0230,0.1196,28.44,-18.62,960.45,52,93,-88
1512180649,0.0470,0.0004,0.0980,-6.16,-47.55,1004.58,52,93,-88
1512180649,-0.0676,0.0336,0.0904,12.94,-48.28,976.14,52,93,-88
1512180649,-0.0196,0.0123,0.1142,28.69,-59.27,970.95,52,93,-88
1512180649,-0.0341,0.0157,0.1120,12.88,-52.19,970.28,56,107,-84
1512180649,-0.0272,0.0272,0.1092,16.42,-51.57,1019.71,56,107,-84
1512180649,-0.0092,0.0164,0.1202,8.73,-49.13,996.77,56,107,-84
1512180649,-0.0244,0.0154,0.1437,14.71,-39.67,1002.87,56,107,-84
1512180649,0.0083,-0.0087,0.1166,9.28,-52.67,1041.99,75,102,-82
1512180649,-0.0285,0.0134,0.1301,14.53,-4.64,1022.46,75,102,-82
1512180649,-0.0353,-0.0009,0.1289,-30.82,-40.89,1022.83,75,102,-82
1512180649,0.0084,-0.0168,0.1119,15.01,-40.89,1028.14,75,102,-82
1512180649,-0.0365,-0.0031,0.1119,45.65,-30.46,1008.36,75,102,-82
1512180649,0.0137,0.0008,0.1119,1.34,-59.81,1027.34,68,112,-72
1512180649,-0.0569,0.0280,0.1011,25.39,-55.66,950.07,68,112,-72
1512180649,-0.0305,0.0308,0.0993,43.64,-44.07,946.47,68,112,-72
1512180649,0.0786,-0.0116,0.1039,6.65,-87.65,1026.18,68,112,-72
1512180649,-0.0313,0.0201,0.1065,15.44,5.25,945.37,68,112,-72
1512180649,-0.0093,0.0240,0.1103,2.08,-25.70,1032.23,79,119,-69
1512180649,0.0337,0.0200,0.1135,-30.52,-13.73,1011.17,79,119,-69
1512180649,-0.0073,0.0348,0.1218,-21.36,1.22,1000.98,79,119,-69
1512180649,0.0510,0.0136,0.1140,27.65,-46.20,1029.54,79,119,-69
1512180649,0.0197,0.0261,0.1124,15.87,-34.30,1067.44,75,119,-82
1512180649,0.0160,0.0236,0.1031,59.51,-46.26,1089.48,75,119,-82
1512180649,0.0446,-0.0127,0.1000,-5.92,27.10,1077.39,75,119,-82
1512180649,-0.0092,-0.0077,0.1012,-13.73,35.64,1051.21,75,119,-82
1512180649,0.0591,-0.0357,0.1051,-30.82,17.88,1066.41,75,119,-82
1512180649,0.0256,-0.0586,0.1230,-41.81,66.83,1034.12,72,119,-76
1512180649,-0.0429,-0.0358,0.1242,-84.23,-70.86,1000.67,72,119,-76
1512180649,-0.0807,-0.0057,0.1238,35.34,-16.91,864.81,72,119,-76
1512180649,-0.0987,0.0545,0.1630,41.08,-51.27,818.60,72,119,-76
1512180649,0.2218,-0.0788,0.2671,14.28,-73.67,1113.77,72,119,-76
1512180649,-0.3390,0.1012,0.2578,56.95,-26.61,915.71,87,125,-64
1512180649,-0.1775,0.0643,0.3273,5.98,-53.59,950.07,87,125,-64
1512180649,0.1362,-0.0313,0.3923,8.12,-37.05,921.39,87,125,-64
1512180650,0.1185,-0.0107,0.3598,20.75,-54.14,999.45,87,125,-64
1512180650,-0.0627,0.0595,0.3007,35.52,-50.96,1023.68,137,178,-91
1512180650,-0.0095,0.0466,0.2835,47.73,-68.54,1017.94,137,178,-91
1512180650,-0.1248,0.1057,0.3197,56.34,-69.89,972.17,137,178,-91
1512180650,-0.2073,0.1292,0.3477,8.79,-64.70,956.79,137,178,-91
1512180650,-0.0190,0.0523,0.2884,-15.08,-74.83,982.30,137,178,-91
1512180650,0.0952,-0.0012,0.1987,3.23,-86.30,969.73,182,202,-77
1512180650,0.0019,0.0256,0.1104,-9.34,-8.97,1019.29,182,202,-77
1512180650,0.1065,-0.0193,0.1087,-15.75,-17.40,1038.82,182,202,-77
1512180650,-0.0285,0.0439,0.1135,-10.93,-1.34,1022.64,182,202,-77
1512180650,0.0084,0.0394,0.1190,7.75,-55.79,1037.72,182,202,-77
1512180650,-0.0381,0.0648,0.1256,19.84,-44.74,968.44,151,213,-84
1512180650,0.0377,0.0208,0.1784,49.68,-90.64,1027.47,151,213,-84
1512180650,-0.0413,0.0485,0.1000,7.26,-66.41,965.21,151,213,-84
1512180650,0.1060,-0.0015,0.0997,0.06,-30.09,1023.62,151,213,-84
1512180650,-0.0486,0.0750,0.0997,-13.49,-31.25,1002.44,172,213,-74
1512180650,0.0473,0.0362,0.1024,7.87,-35.58,984.99,172,213,-74
1512180650,0.0650,0.0080,0.0971,-26.43,-70.98,991.15,172,213,-74
1512180650,0.0158,0.0117,0.1024,-9.95,-34.73,958.44,172,213,-74
1512180650,-0.0417,0.0305,0.1052,-11.96,-27.40,962.95,172,213,-74
1512180650,0.0224,0.0029,0.1035,19.90,-19.47,1021.30,170,229,-72
1512180650,-0.0004,0.0079,0.1007,0.06,7.57,969.30,170,229,-72
1512180650,-0.0079,-0.0073,0.0929,23.19,-7.69,1069.58,170,229,-72
1512180650,0.0330,-0.0364,0.0959,-34.06,-30.70,1023.25,170,229,-72
1512180650,-0.0214,0.0040,0.0905,30.09,-35.64,1007.32,170,229,-72
1512180650,0.0205,-0.0075,0.0872,-13.55,-82.52,1009.16,180,232,-66
1512180650,-0.0075,0.0035,0.0913,6.59,-63.84,995.61,180,232,-66
1512180650,-0.0332,0.0150,0.0941,30.76,-44.37,984.01,180,232,-66
1512180650,-0.0619,0.0169,0.0983,-23.86,-31.01,1071.29,180,232,-66
1512180650,-0.0893,0.0562,0.0935,-45.84,-46.39,933.47,172,223,-64
1512180650,0.0352,0.0390,0.1305,32.41,-72.14,976.26,172,223,-64
1512180650,0.0253,0.0373,0.0904,-17.88,-58.11,999.57,172,223,-64
1512180650,-0.1075,0.0659,0.0895,6.35,-91.31,899.72,172,223,-64
1512180650,0.1057,-0.0322,0.0878,-18.31,-57.68,1054.02,172,223,-64
1512180650,-0.0744,0.0529,0.0864,-91.25,-25.21,956.48,188,225,-79
1512180650,0.0816,0.0012,0.0882,-23.62,-4.52,1038.76,188,225,-79
1512180650,-0.1836,0.1246,0.0862,-62.07,-25.21,957.58,188,225,-79
1512180650,0.1629,-0.0652,0.0923,-47.36,-15.20,1016.30,188,225,-79
1512180651,0.0097,-0.0208,0.0847,-10.01,-8.73,1018.43,188,225,-79
1512180651,-0.0105,-0.0020,0.1109,-39.79,-55.48,962.95,180,232,-86
1512180651,-0.0111,0.0125,0.0735,-18.74,-24.35,1052.12,180,232,-86
1512180651,0.0313,0.0128,0.0752,11.41,-23.74,996.70,180,232,-86
1512180651,-0.0281,0.0403,0.0696,-13.37,-41.63,1033.57,180,232,-86
1512180651,0.0627,-0.0005,0.0742,37.90,-40.16,1059.51,193,234,-88
1512180651,-0.0306,0.0517,0.0686,0.85,-17.46,1026.06,193,234,-88
1512180651,-0.0554,0.0644,0.0746,-31.62,-37.54,952.21,193,234,-88
1512180651,0.1084,-0.0020,0.0675,-65.12,4.33,1005.07,193,234,-88
1512180651,0.0711,0.0242,0.0706,-25.76,6.41,1013.79,193,234,-88
1512180651,-0.0360,0.0759,0.0651,-41.32,-17.64,1020.69,203,237,-108
1512180651,0.0629,0.0241,0.0634,-65.19,-41.81,960.45,203,237,-108
1512180651,0.0099,0.0369,0.0567,-26.55,-38.21,1020.87,203,237,-108
1512180651,-0.0316,0.0485,0.0647,-54.69,7.14,946.59,203,237,-108
1512180651,0.0557,0.0100,0.0519,-16.48,7.45,1018.86,198,250,-93
1512180651,-0.0100,0.0387,0.0518,-15.99,-28.99,1002.38,198,250,-93
1512180651,-0.0968,0.0719,0.0495,-32.90,-25.63,907.71,198,250,-93
1512180651,0.1482,-0.0435,0.0471,-31.74,-34.30,994.38,198,250,-93
1512180651,-0.0350,0.0218,0.0410,-34.91,9.77,1021.61,198,250,-93
1512180651,0.0764,-0.0353,0.0395,-25.09,-5.13,1087.46,186,237,-98
1512180651,-0.0328,0.0115,0.0361,-73.67,-78.43,1057.13,186,237,-98
1512180651,-0.0868,0.0521,0.0678,-25.09,-22.89,834.84,186,237,-98
1512180651,-0.0264,0.0358,0.0391,-17.40,-32.96,997.31,186,237,-98
1512180651,0.0298,-0.0048,0.0345,-45.10,-0.55,884.89,186,237,-98
1512180651,0.0012,0.0092,0.0316,-14.59,-3.23,1013.12,170,243,-96
1512180651,0.0667,-0.0142,0.0369,-20.57,-56.88,1020.69,170,243,-96
1512180651,-0.0162,0.0321,0.0316,19.71,-25.70,1028.20,170,243,-96
1512180651,-0.0398,0.0450,0.0336,-18.98,-36.62,885.38,170,243,-96
1512180651,0.0104,0.0013,0.1100,30.33,11.72,979.49,165,245,-101
1512180651,0.0260,-0.0189,0.0340,13.43,47.06,976.56,165,245,-101
1512180651,0.0028,-0.0069,0.0330,-58.78,-8.54,1084.53,165,245,-101
1512180651,-0.0573,0.0330,0.0236,12.82,-24.90,1062.38,165,245,-101
1512180651,0.0455,-0.0262,0.0265,-29.05,16.17,1009.52,165,245,-101
1512180651,-0.0621,0.0108,0.0198,-37.41,-36.56,1020.14,180,246,-116
1512180651,0.0606,-0.0345,0.0181,7.51,-1.95,991.52,180,246,-116
1512180651,0.0112,0.0091,0.0177,-5.80,-10.74,988.04,180,246,-116
1512180651,0.0545,0.0025,0.0134,19.71,7.87,1033.69,180,246,-116
1512180651,0.0403,0.0165,0.0123,2.26,16.11,985.11,180,246,-116
1512180652,0.0634,0.0206,0.0168,-4.15,-34.30,1045.23,172,245,-121
1512180652,0.0421,0.0077,0.0125,8.54,4.64,981.38,172,245,-121
1512180652,0.0594,-0.0021,0.0128,6.84,54.02,1001.16,172,245,-121
1512180652,0.0803,-0.0209,0.0144,-23.93,53.16,1023.38,172,245,-121
1512180652,-0.0019,0.0157,0.0260,18.49,53.59,999.39,177,229,-126
1512180652,0.0414,0.0160,0.0129,13.37,13.37,978.27,177,229,-126
1512180652,0.0209,0.0387,0.0060,14.10,8.18,982.42,177,229,-126
1512180652,0.0312,0.0249,0.0008,-9.95,-28.08,983.09,177,229,-126
1512180652,0.0482,0.0043,0.0004,-11.17,33.26,983.95,177,229,-126
1512180652,-0.0262,0.0285,0.0037,-5.98,3.05,982.30,163,239,-113
1512180652,0.0901,-0.0284,0.0052,-9.70,38.33,979.06,163,239,-113
1512180652,-0.0293,0.0222,0.0093,-14.22,61.16,995.00,163,239,-113
1512180652,0.0386,-0.0112,0.0087,-20.14,16.17,953.31,163,239,-113
1512180652,0.0317,-0.0100,0.0060,-49.62,47.00,1020.08,170,229,-116
1512180652,0.0144,-0.0150,0.0045,-20.94,18.86,970.83,170,229,-116
1512180652,0.0260,-0.0149,0.0025,-21.24,17.21,1001.10,170,229,-116
1512180652,0.0298,-0.0134,0.0040,8.24,2.69,991.27,170,229,-116
1512180652,-0.0156,0.0051,0.0041,-28.87,6.59,1032.84,170,229,-116
1512180652,0.0190,-0.0099,-0.0004,-7.81,18.49,962.77,173,229,-103
1512180652,-0.0360,0.0185,-0.0007,0.49,29.11,1008.42,173,229,-103
1512180652,0.0248,-0.0069,0.0023,-44.98,-0.18,1011.66,173,229,-103
1512180652,-0.0518,0.0321,0.0047,-25.82,18.19,997.01,173,229,-103
1512180652,0.0776,-0.0149,0.0048,-47.61,22.34,1052.06,158,241,-118
1512180652,-0.0567,0.0370,0.0052,3.30,25.39,938.48,158,241,-118
1512180652,0.0983,-0.0491,0.0015,-9.77,30.58,1011.90,158,241,-118
1512180652,-0.0650,0.0081,-0.0005,-70.25,8.67,992.37,158,241,-118
1512180652,0.0964,-0.0430,-0.0020,-20.08,46.63,996.52,158,241,-118
1512180652,-0.0209,0.0272,-0.0051,-57.43,5.37,995.12,179,252,-118
1512180652,0.0610,-0.0084,-0.0080,-29.91,-4.70,1015.14,179,252,-118
1512180652,-0.0437,0.0286,-0.0084,9.83,-13.37,969.42,179,252,-118
1512180652,0.0758,-0.0369,-0.0088,-64.33,-14.16,1007.51,179,252,-118
1512180652,-0.0778,0.0210,-0.0099,-62.62,15.56,942.32,179,252,-118
1512180652,0.0883,-0.0413,-0.0112,-56.52,11.17,1035.22,175,234,-115
1512180652,-0.0348,0.0059,-0.0084,-85.02,-4.64,982.12,175,234,-115
1512180652,0.0622,-0.0368,-0.0137,-37.78,46.57,980.10,175,234,-115
1512180652,-0.0471,0.0083,-0.0133,-51.88,-14.16,1013.49,175,234,-115
1512180652,0.0581,-0.0360,-0.0185,-87.04,0.98,1004.33,158,245,-125
1512180653,-0.0024,-0.0130,-0.0254,-62.13,5.25,941.28,158,245,-125
1512180653,0.0326,-0.0220,-0.0282,-61.16,21.12,1015.01,158,245,-125
1512180653,-0.0084,-0.0067,-0.0328,-69.46,-7.81,974.30,158,245,-125
1512180653,0.0278,-0.0262,-0.0341,-68.73,23.07,993.65,158,245,-125
1512180653,0.0332,-0.0292,-0.0321,-39.92,8.73,986.63,170,236,-113
1512180653,0.0108,-0.0208,-0.0341,-65.00,3.23,1030.21,170,236,-113
1512180653,0.0208,-0.0250,-0.0329,-70.74,24.17,949.46,170,236,-113
1512180653,-0.0289,-0.0084,-0.0321,-56.76,39.12,1007.32,170,236,-113
1512180653,0.0201,-0.0266,-0.0373,-72.14,13.18,1010.25,170,236,-113
1512180653,-0.0454,0.0039,-0.0377,-86.73,1.95,986.63,173,236,-106
1512180653,0.0766,-0.0402,-0.0418,-24.29,28.63,1008.54,173,236,-106
1512180653,0.0172,-0.0212,-0.0451,-54.87,-9.95,1007.02,173,236,-106
1512180653,-0.0332,-0.0076,-0.0419,-11.47,2.81,998.17,173,236,-106
1512180653,0.0072,-0.0129,-0.0431,-38.82,-15.44,986.33,170,236,-106
1512180653,-0.0297,-0.0053,-0.0467,-60.55,-10.99,1011.47,170,236,-106
1512180653,-0.0020,-0.0241,-0.0454,-70.50,-5.98,971.98,170,236,-106
1512180653,-0.0116,-0.0096,-0.0479,-31.13,3.97,1009.03,170,236,-106
1512180653,0.0364,-0.0330,-0.0450,-77.39,-23.01,954.41,170,236,-106
1512180653,-0.0511,-0.0140,-0.0485,-87.22,14.40,969.54,173,232,-120
1512180653,0.0174,-0.0341,-0.0482,-38.15,17.03,973.82,173,232,-120
1512180653,0.0041,-0.0248,-0.0465,-58.72,0.37,1014.95,173,232,-120
1512180653,-0.0559,-0.0064,-0.0449,-79.96,-1.71,980.77,173,232,-120
1512180653,-0.0052,-0.0276,-0.0497,-62.93,13.06,982.06,182,216,-118
1512180653,-0.0104,-0.0206,-0.0509,-64.39,-23.93,968.87,182,216,-118
1512180653,-0.0200,-0.0137,-0.0521,-45.65,-7.57,982.12,182,216,-118
1512180653,-0.0196,-0.0170,-0.0479,-77.58,-0.67,985.29,182,216,-118
1512180653,-0.0128,-0.0137,-0.0527,-37.23,-20.87,965.76,182,216,-118
1512180653,-0.0228,-0.0196,-0.0482,-52.19,39.98,998.17,173,222,-99
1512180653,0.0403,-0.0598,-0.0526,-90.52,18.19,1027.71,173,222,-99
1512180653,-0.0614,-0.0095,-0.0526,-78.31,14.16,1013.61,173,222,-99
1512180653,-0.0150,-0.0064,-0.0513,-71.78,10.74,1002.50,173,222,-99
1512180653,-0.0812,0.0101,-0.0555,-88.26,-36.07,941.89,173,222,-99
1512180653,0.0389,-0.0425,-0.0593,-26.12,23.99,971.68,170,236,-106
1512180653,-0.0447,-0.0116,-0.0621,-62.26,-24.29,993.16,170,236,-106
1512180653,0.0055,-0.0313,-0.0658,-56.09,4.15,1083.37,170,236,-106
1512180653,-0.0804,0.0109,-0.0643,-59.08,-21.61,975.65,170,236,-106
1512180653,0.1021,-0.0581,-0.0710,-41.44,25.45,1021.97,168,213,-98
1512180653,-0.0377,0.0036,-0.0707,-19.71,8.42,1029.54,168,213,-98
1512180654,0.0332,-0.0350,-0.0722,-70.98,35.83,1002.56,168,213,-98
1512180654,-0.0740,0.0081,-0.0732,-56.58,10.01,983.58,168,213,-98
1512180654,-0.0037,-0.0254,-0.0754,-106.81,24.11,969.18,168,213,-98
1512180654,-0.0338,-0.0152,-0.0799,-16.60,39.37,1011.11,163,222,-93
1512180654,0.0158,-0.0356,-0.0794,-25.70,39.67,1025.09,163,222,-93
1512180654,-0.0574,-0.0067,-0.0816,-39.61,16.42,1030.40,163,222,-93
1512180654,-0.0547,-0.0040,-0.0831,-66.89,-0.43,986.57,163,222,-93
1512180654,0.0328,-0.0345,-0.0843,-39.25,34.18,1046.88,172,220,-71
1512180654,-0.0993,0.0354,-0.0820,-28.75,-13.49,996.77,172,220,-71
1512180654,0.0112,-0.0084,-0.0855,-32.35,24.54,1030.52,172,220,-71
1512180654,-0.0663,0.0160,-0.0844,-32.65,-0.06,984.19,172,220,-71
1512180654,-0.0493,0.0068,-0.0840,-46.20,32.53,1010.50,172,220,-71
1512180654,-0.1004,0.0362,-0.0848,-72.81,29.72,936.95,172,220,-81
1512180654,-0.0056,-0.0009,-0.0896,-58.04,24.84,1026.43,172,220,-81
1512180654,-0.0595,0.0100,-0.0940,-91.43,7.63,926.27,172,220,-81
1512180654,-0.0134,-0.0129,-0.0944,-60.55,41.93,989.20,172,220,-81
1512180654,-0.0559,-0.0021,-0.0928,-66.65,12.39,961.24,172,220,-81
1512180654,-0.0590,-0.0136,-0.0961,-49.62,36.25,1003.91,170,232,-76
1512180654,0.0032,-0.0449,-0.0944,-80.32,12.21,943.48,170,232,-76
1512180654,-0.0558,-0.0154,-0.0943,-36.25,21.97,996.15,170,232,-76
1512180654,0.0063,-0.0261,-0.0933,-15.63,11.23,1011.90,170,232,-76
1512180654,-0.0449,0.0033,-0.0968,-32.47,26.25,1015.93,182,245,-71
1512180654,-0.0083,-0.0065,-0.1039,-37.41,-32.90,1039.25,182,245,-71
1512180654,-0.0810,0.0188,-0.0985,-44.62,-5.68,1008.67,182,245,-71
1512180654,0.0012,-0.0196,-0.1021,-20.45,19.23,1055.91,182,245,-71
1512180654,-0.0280,-0.0009,-0.0951,-17.21,13.31,1034.79,182,245,-71
1512180654,0.0297,-0.0037,-0.0987,-33.39,62.19,1047.79,182,227,-84
1512180654,-0.0302,0.0246,-0.0973,-52.43,-3.85,1007.45,182,227,-84
1512180654,-0.0113,0.0146,-0.0992,-7.39,17.52,1005.92,182,227,-84
1512180654,-0.0225,0.0029,-0.0972,-60.73,21.97,948.79,182,227,-84
1512180654,-0.0466,0.0202,-0.1009,-67.57,36.25,974.00,191,232,-103
1512180654,-0.0009,-0.0007,-0.1069,-49.68,59.51,989.93,191,232,-103
1512180654,0.0172,-0.0077,-0.1051,-43.95,39.12,1019.35,191,232,-103
1512180654,0.0031,0.0025,-0.1081,-4.94,6.65,1051.51,191,232,-103
1512180654,-0.0288,0.0129,-0.1091,-18.37,39.79,1049.38,191,232,-103
1512180654,0.0012,-0.0045,-0.1113,-18.25,15.63,1032.53,180,215,-103
1512180654,-0.0364,0.0027,-0.1136,-6.96,-4.21,983.89,180,215,-103
1512180654,0.0867,-0.0346,-0.1125,-1.46,66.28,985.66,180,215,-103
1512180655,0.0202,0.0079,-0.1148,-14.65,2.69,1036.38,180,215,-103
1512180655,0.0039,0.0107,-0.1111,-6.96,54.32,963.50,180,215,-103
1512180655,0.0361,0.0027,-0.1120,-5.86,23.68,1023.80,184,222,-106
1512180655,0.0373,-0.0011,-0.1108,-47.18,37.84,951.48,184,222,-106
1512180655,-0.0574,0.0402,-0.1035,2.93,66.83,969.06,184,222,-106
1512180655,0.0506,-0.0117,-0.1117,-82.95,73.18,949.83,184,222,-106
1512180655,-0.0510,0.0282,-0.1044,-68.97,61.28,979.25,177,215,-106
1512180655,0.0783,-0.0192,-0.1112,-56.64,84.66,973.14,177,215,-106
1512180655,0.0262,0.0068,-0.1141,-17.82,45.10,1030.64,177,215,-106
1512180655,0.0209,-0.0012,-0.1146,-20.14,78.67,1003.97,177,215,-106
1512180655,-0.1864,0.0774,-0.1233,-31.74,35.95,1003.30,177,215,-106
1512180655,0.1293,-0.0553,-0.1274,-62.74,28.87,1060.18,163,218,-110
1512180655,-0.0033,-0.0125,-0.1024,-8.97,39.31,1000.55,163,218,-110
1512180655,0.0380,-0.0252,-0.1300,-19.04,45.47,971.44,163,218,-110
1512180655,-0.0088,-0.0037,-0.0587,-35.71,42.72,1047.36,163,218,-110
1512180655,0.0864,-0.0346,-0.0527,-40.04,85.69,1038.39,163,218,-110
1512180655,0.0550,-0.0144,-0.0537,-10.99,45.10,1021.48,165,216,-104
1512180655,-0.0068,0.0149,-0.0182,-39.92,82.21,1009.77,165,216,-104
1512180655,0.0288,-0.0003,-0.0889,-7.63,72.57,978.03,165,216,-104
1512180655,0.0033,0.0073,-0.0960,-19.71,66.16,982.06,165,216,-104
1512180655,-0.0487,0.0374,-0.1517,-49.01,77.82,963.87,152,218,-150
1512180655,0.0819,-0.0056,-0.1550,-31.62,98.39,1049.80,152,218,-150
1512180655,0.0265,0.0115,-0.1610,-47.49,46.75,1055.30,152,218,-150
1512180655,0.0262,0.0009,-0.1605,-36.07,97.90,1020.63,152,218,-150
1512180655,-0.0019,0.0214,-0.1618,-31.07,76.42,1002.01,152,218,-150
1512180655,-0.0274,0.0233,-0.1654,-24.72,80.26,1010.31,147,216,-145
1512180655,0.0109,0.0063,-0.1680,-49.01,107.54,1000.43,147,216,-145
1512180655,-0.0099,0.0286,-0.1700,-42.48,109.92,1031.56,147,216,-145
1512180655,-0.0176,0.0437,-0.1760,-32.84,71.78,1014.47,147,216,-145
1512180655,-0.0107,0.0313,-0.1814,-18.31,87.59,1040.77,128,229,-147
1512180655,0.0306,0.0055,-0.1815,-54.38,63.42,1026.00,128,229,-147
1512180655,-0.0206,0.0340,-0.1835,-36.07,94.73,1030.58,128,229,-147
1512180655,0.0196,0.0250,-0.1810,-23.01,117.80,1004.39,128,229,-147
1512180655,0.0427,0.0168,-0.1822,-22.40,131.96,1037.78,128,229,-147
1512180655,-0.0157,0.0357,-0.1872,-10.80,105.04,989.20,138,218,-143
1512180655,0.0021,0.0230,-0.1917,-68.73,89.05,1008.54,138,218,-143
1512180655,0.0061,0.0306,-0.1920,-14.34,115.11,999.76,138,218,-143
1512180656,-0.0142,0.0423,-0.1948,-38.76,105.59,972.60,138,218,-143
1512180656,-0.0365,0.0478,-0.1999,-22.83,103.94,926.94,138,218,-143
1512180656,0.0534,0.0127,-0.1943,-2.87,108.52,1047.67,130,230,-138
1512180656,-0.0087,0.0200,-0.1939,-108.89,111.69,992.13,130,230,-138
1512180656,-0.0758,0.0521,-0.1979,-56.09,100.59,988.71,130,230,-138
1512180656,0.0073,0.0300,-0.2063,-65.61,102.97,986.88,130,230,-138
1512180656,0.0228,0.0288,-0.2083,-37.48,70.68,1045.04,140,206,-145
1512180656,-0.0262,0.0280,-0.2099,-37.66,100.65,1007.51,140,206,-145
1512180656,-0.0190,0.0165,-0.2093,-34.42,110.66,1047.06,140,206,-145
1512180656,-0.0607,0.0497,-0.2120,-22.64,98.94,1013.92,140,206,-145
1512180656,0.0256,0.0409,-0.2154,-52.67,90.09,1028.08,140,206,-145
1512180656,0.0123,0.0728,-0.2178,-4.39,59.08,976.81,124,218,-157
1512180656,0.0100,0.0690,-0.2184,-59.45,55.79,972.41,124,218,-157
1512180656,-0.0354,0.0847,-0.2198,-20.32,48.83,955.51,124,218,-157
1512180656,0.0154,0.0720,-0.2152,-34.73,96.37,988.22,124,218,-157
1512180656,-0.0244,0.0783,-0.2120,-78.86,80.63,1031.62,124,218,-157
1512180656,0.0526,0.0333,-0.2139,-98.82,127.56,1016.24,133,209,-152
1512180656,-0.0172,0.0473,-0.2120,-98.27,110.66,955.44,133,209,-152
1512180656,0.0630,-0.0033,-0.2077,-83.80,134.64,1013.18,133,209,-152
1512180656,0.0391,0.0088,-0.2152,-83.80,116.82,1015.62,133,209,-152
1512180656,-0.0262,0.0421,-0.2224,-49.38,76.90,1026.18,130,206,-148
1512180656,-0.0028,0.0232,-0.2228,-33.33,46.94,987.24,130,206,-148
1512180656,0.0674,-0.0265,-0.2229,-40.71,75.44,1057.86,130,206,-148
1512180656,-0.1108,0.0399,-0.2174,-102.11,87.16,1047.00,130,206,-148
1512180656,0.0057,0.0025,-0.2190,-50.05,117.86,927.12,130,206,-148
1512180656,0.0449,0.0027,-0.2105,-79.28,108.15,1030.88,126,202,-142
1512180656,-0.0967,0.0740,-0.2176,-44.31,46.02,985.60,126,202,-142
1512180656,0.0625,-0.0189,-0.2132,-65.55,102.36,1041.20,126,202,-142
1512180656,-0.0514,0.0099,-0.2148,-102.60,99.85,1038.09,126,202,-142
1512180656,-0.0909,0.0405,-0.2056,-55.42,101.87,935.12,124,190,-157
1512180656,0.0316,0.0105,-0.2176,-95.70,127.20,1044.31,124,190,-157
1512180656,-0.0051,0.0246,-0.2212,-134.83,78.98,984.37,124,190,-157
1512180656,0.0116,0.0132,-0.2196,-79.16,85.82,1010.99,124,190,-157
1512180656,0.0001,0.0144,-0.2184,-139.34,64.15,983.03,124,190,-157
1512180656,-0.0582,0.0503,-0.2196,-81.91,82.64,943.85,108,202,-152
1512180656,0.0366,0.0091,-0.2117,-118.10,73.97,1039.49,108,202,-152
1512180656,-0.0390,0.0397,-0.2202,-103.58,85.82,1014.59,108,202,-152
1512180656,0.0487,-0.0136,-0.2119,-110.29,89.23,1000.98,108,202,-152
1512180657,-0.0489,0.0265,-0.2198,-107.30,88.32,1071.17,108,202,-152
1512180657,0.0482,-0.0077,-0.2188,-83.07,79.59,1035.03,119,185,-148
1512180657,-0.0226,0.0382,-0.2241,-111.15,90.88,974.43,119,185,-148
1512180657,0.0647,0.0075,-0.2245,-76.90,57.19,1031.56,119,185,-148
1512180657,0.0413,0.0194,-0.2282,-77.76,73.97,1052.61,119,185,-148
1512180657,0.0198,0.0111,-0.2277,-93.20,54.99,999.88,108,174,-155
1512180657,0.0635,-0.0077,-0.2256,-100.71,87.28,980.83,108,174,-155
1512180657,0.0292,0.0137,-0.2246,-76.90,44.86,968.57,108,174,-155
1512180657,0.0634,-0.0129,-0.2184,-88.87,89.48,959.59,108,174,-155
1512180657,0.0273,-0.0057,-0.2136,-121.28,97.90,967.90,108,174,-155
1512180657,-0.0502,0.0244,-0.2084,-112.92,95.70,954.71,101,178,-148
1512180657,0.0699,-0.0196,-0.2071,-74.95,109.25,1055.18,101,178,-148
1512180657,-0.0911,0.0415,-0.2076,-106.26,83.44,1022.83,101,178,-148
1512180657,-0.0166,-0.0020,-0.2035,-108.28,89.05,1013.85,101,178,-148
1512180657,0.0059,-0.0194,-0.2047,-83.98,98.39,1050.48,93,162,-147
1512180657,0.0146,-0.0160,-0.2056,-115.17,79.47,985.96,93,162,-147
1512180657,0.0390,-0.0182,-0.2023,-73.49,86.55,988.77,93,162,-147
1512180657,-0.0130,-0.0015,-0.2004,-84.66,63.96,973.21,93,162,-147
1512180657,-0.0278,-0.0103,-0.1972,-73.91,41.32,997.07,93,162,-147
1512180657,-0.0434,-0.0036,-0.1941,-88.44,70.92,996.64,96,162,-154
1512180657,0.0138,-0.0202,-0.1888,-80.87,85.08,994.08,96,162,-154
1512180657,-0.0498,0.0217,-0.1859,-66.10,74.34,999.27,96,162,-154
1512180657,0.0000,0.0065,-0.1847,-102.36,59.33,1026.06,96,162,-154
1512180657,-0.0084,0.0057,-0.1806,-65.92,56.64,978.27,96,162,-154
1512180657,0.0268,-0.0059,-0.1790,-48.22,55.30,1031.56,93,172,-150
1512180657,-0.0049,0.0095,-0.1739,-88.32,56.09,980.10,93,172,-150
1512180657,0.0407,-0.0146,-0.1751,-84.96,69.52,1005.37,93,172,-150
1512180657,0.0028,-0.0016,-0.1726,-49.19,54.08,996.28,93,172,-150
1512180657,0.0409,-0.0314,-0.1648,-88.62,60.30,1040.77,93,172,-150
1512180657,-0.0631,0.0313,-0.1652,-48.16,86.67,989.99,89,162,-154
1512180657,0.0678,-0.0240,-0.1633,-76.90,74.22,984.31,89,162,-154
1512180657,-0.0846,0.0427,-0.1648,-49.44,53.28,989.20,89,162,-154
1512180657,0.0779,-0.0297,-0.1582,-54.32,42.66,1000.49,89,162,-154
1512180657,-0.0863,0.0365,-0.1590,-58.41,64.88,1006.65,84,156,-145
1512180657,0.0040,0.0056,-0.1542,-63.84,32.78,939.70,84,156,-145
1512180657,-0.0025,0.0240,-0.1513,-28.44,16.42,998.23,84,156,-145
1512180657,-0.0172,0.0354,-0.1511,-66.89,13.24,940.86,84,156,-145
1512180657,-0.0732,0.0621,-0.1450,-60.79,21.97,975.77,84,156,-145
1512180658,0.0668,-0.0025,-0.1425,-109.31,41.38,1042.24,82,148,-140
1512180658,-0.0593,0.0487,-0.1382,-44.68,72.88,1014.10,82,148,-140
1512180658,0.0786,-0.0270,-0.1269,-97.96,55.24,1046.81,82,148,-140
1512180658,-0.1168,0.0471,-0.1234,-67.26,29.05,969.12,82,148,-140
1512180658,-0.0644,-0.0141,-0.1165,-71.41,46.14,857.36,91,132,-155
1512180658,0.1079,-0.1181,-0.1124,-86.61,58.65,1054.50,91,132,-155
1512180658,-0.0141,-0.0270,-0.1128,-31.19,82.03,1081.67,91,132,-155
1512180658,-0.0478,0.0285,-0.1145,-77.76,34.06,1069.09,91,132,-155
1512180658,-0.0956,0.0422,-0.1076,-42.30,-8.91,955.57,91,132,-155
1512180658,0.0952,-0.0583,-0.1095,3.54,6.96,1015.14,80,163,-138
1512180658,-0.0451,0.0060,-0.1035,-26.06,-27.34,1065.06,80,163,-138
1512180658,-0.0498,0.0425,-0.0985,-21.91,-14.83,1037.66,80,163,-138
1512180658,-0.0631,0.0497,-0.0848,-17.76,8.18,972.11,80,163,-138
1512180658,0.1020,-0.0202,-0.0807,-17.82,-8.91,1092.35,80,163,-138
1512180658,-0.0123,0.0519,-0.0711,-38.57,-24.90,996.58,84,132,-162
1512180658,-0.0258,0.0517,-0.0682,-49.01,16.78,1010.44,84,132,-162
1512180658,-0.0465,0.0510,-0.0558,-67.14,-2.14,931.46,84,132,-162
1512180658,0.0161,0.0244,-0.0622,10.99,24.66,1038.09,84,132,-162
1512180658,0.0076,0.0336,-0.0593,-59.33,9.40,1037.72,63,160,-142
1512180658,-0.0353,0.0655,-0.0630,-9.64,30.70,1016.48,63,160,-142
1512180658,0.0446,0.0459,-0.0567,-35.83,14.40,987.61,63,160,-142
1512180658,0.0228,0.0583,-0.0573,-41.81,-3.05,1087.77,63,160,-142
1512180658,-0.0091,0.0494,-0.0511,-30.09,-4.27,1009.52,63,160,-142
1512180658,-0.0298,0.0391,-0.0449,-40.47,23.25,991.03,61,148,-147
1512180658,0.0189,-0.0045,-0.0358,-65.80,7.26,977.66,61,148,-147
1512180658,0.0057,0.0005,-0.0257,-38.76,36.80,986.15,61,148,-147
1512180658,0.0336,-0.0085,-0.0161,-24.54,15.14,1010.56,61,148,-147
1512180658,-0.0345,0.0248,-0.0144,-8.00,-21.18,985.41,80,142,-148
1512180658,0.0202,-0.0100,-0.0003,0.79,16.42,981.32,80,142,-148
1512180658,-0.0478,0.0186,-0.0012,4.39,-32.78,1054.38,80,142,-148
1512180658,0.0402,-0.0124,0.0068,14.40,-15.44,1012.45,80,142,-148
1512180658,-0.0533,0.0349,0.0162,-29.79,-29.48,961.79,80,142,-148
1512180658,0.0000,0.0080,0.0240,-10.80,-26.37,984.74,61,151,-160
1512180658,-0.0217,0.0146,0.0302,-14.89,-1.53,961.18,61,151,-160
1512180658,0.0048,0.0244,0.0397,-6.29,-34.73,982.79,61,151,-160
1512180658,0.0108,0.0228,0.0513,-5.49,12.88,1012.57,61,151,-160
1512180658,-0.0525,0.0415,0.0573,-22.22,-9.28,978.64,61,151,-160
1512180659,0.0214,0.0000,0.0684,-36.50,-2.69,1025.63,72,144,-157
1512180659,-0.0244,0.0282,0.0707,4.76,-82.15,1036.56,72,144,-157
1512180659,0.0037,-0.0107,0.0852,28.56,-48.40,950.56,72,144,-157
1512180659,0.0447,-0.0369,0.0832,27.10,-83.37,1054.99,72,144,-157
1512180659,-0.0393,0.0059,0.0826,18.74,-43.52,1047.97,56,160,-152
1512180659,-0.0017,-0.0039,0.0889,44.07,-74.77,989.62,56,160,-152
1512180659,0.0431,-0.0230,0.0916,24.35,5.80,929.02,56,160,-152
1512180659,0.0358,-0.0328,0.0997,4.21,-49.19,985.11,56,160,-152
1512180659,-0.0414,-0.0115,0.1060,33.57,-11.17,1013.49,56,160,-152
1512180659,0.0546,-0.0618,0.1088,-12.88,28.14,958.31,68,158,-150
1512180659,-0.0132,-0.0242,0.1157,40.16,-28.75,1033.02,68,158,-150
1512180659,0.0250,-0.0165,0.1234,45.78,9.22,962.40,68,158,-150
1512180659,0.0284,-0.0015,0.1348,41.63,-63.42,1082.82,68,158,-150
1512180659,0.0095,0.0069,0.1457,38.45,-16.36,962.16,68,158,-150
1512180659,0.0138,0.0157,0.1716,50.72,-42.42,1074.04,66,163,-138
1512180659,-0.0015,0.0350,0.2124,49.07,-29.91,1094.60,66,163,-138
1512180659,0.0405,0.0262,0.2352,27.10,-30.40,1004.39,66,163,-138
1512180659,0.0763,0.0204,0.2774,45.23,-28.14,1000.98,66,163,-138
1512180659,0.0099,0.0427,0.3163,33.63,-31.80,998.60,75,190,-177
1512180659,-0.0181,0.0222,0.3027,42.42,-14.65,976.56,75,190,-177
1512180659,-0.0446,0.0149,0.3048,45.53,-23.50,1071.11,75,190,-177
1512180659,-0.0457,0.0109,0.2466,38.94,9.89,1010.62,75,190,-177
1512180659,-0.0186,0.0059,0.1903,-20.32,-6.53,969.24,75,190,-177
1512180659,0.0161,-0.0024,0.1904,51.27,-23.56,906.62,82,204,-225
1512180659,-0.0033,-0.0111,0.1961,56.64,-18.62,909.97,82,204,-225
1512180659,-0.0024,-0.0196,0.1945,70.56,-59.51,958.92,82,204,-225
1512180659,-0.0435,-0.0099,0.2024,51.57,-58.59,969.42,82,204,-225
1512180659,-0.0083,-0.0220,0.2036,52.80,-44.25,977.97,82,204,-225
1512180659,0.0093,-0.0116,0.2075,74.71,-25.02,980.16,84,209,-213
1512180659,0.0134,-0.0166,0.2210,35.52,-46.20,1023.86,84,209,-213
1512180659,0.0282,-0.0145,0.2364,44.43,-11.23,987.79,84,209,-213
1512180659,-0.0481,0.0132,0.2329,35.03,-47.85,1002.56,84,209,-213
1512180659,0.0196,-0.0142,0.2346,50.29,-11.96,978.94,96,215,-221
1512180659,0.0005,-0.0112,0.2294,24.72,-45.35,942.87,96,215,-221
1512180659,0.0282,-0.0156,0.2326,34.06,-32.17,966.37,96,215,-221
1512180659,-0.0426,0.0193,0.2370,62.19,-22.71,972.11,96,215,-221
1512180659,0.0470,-0.0166,0.2310,45.72,-27.71,963.50,96,215,-221
1512180659,0.0011,0.0080,0.2337,67.81,-19.84,1029.05,89,211,-211
1512180660,0.0526,-0.0381,0.2374,-1.83,14.95,987.43,89,211,-211
1512180660,-0.0290,-0.0023,0.2838,29.91,-36.56,959.05,89,211,-211
1512180660,0.0162,-0.0116,0.3314,41.02,-38.21,980.53,89,211,-211
1512180660,0.1286,0.0981,0.5017,1.16,13.31,1271.06,89,211,-211
1512180660,0.0410,0.0252,0.6242,31.68,-16.42,938.90,101,248,-257
1512180660,0.3747,0.2103,0.8823,-3.54,39.67,959.96,101,248,-257
1512180660,1.2508,1.5785,1.0622,335.94,-281.31,1009.58,101,248,-257
1512180660,-0.0220,0.5008,0.8477,0.43,100.83,1280.52,101,248,-257
1512180660,-0.1324,-0.6895,0.5471,-96.86,22.03,581.12,131,324,-384
1512180660,0.1349,-0.3819,0.6005,114.50,77.58,1469.42,131,324,-384
1512180660,0.0366,-0.0292,0.3491,9.46,47.55,803.10,131,324,-384
1512180660,0.2831,0.2973,0.1361,-8.97,77.03,1101.56,131,324,-384
1512180660,0.0222,0.0088,0.2226,4.27,36.87,999.82,131,324,-384
1512180660,-0.0537,-0.0824,0.2850,-13.37,11.41,964.23,145,377,-428
1512180660,-0.0065,0.0812,0.2539,21.67,-13.37,970.95,145,377,-428
1512180660,-0.0322,-0.0481,0.2654,-8.85,-10.86,984.44,145,377,-428
1512180660,-0.0360,-0.0049,0.2547,13.61,-0.49,960.51,145,377,-428
1512180660,-0.0206,0.0146,0.2563,20.94,12.08,1056.21,147,389,-433
1512180660,-0.0201,-0.0031,0.2649,-46.69,29.79,1051.03,147,389,-433
1512180660,-0.0912,-0.0787,0.2700,5.68,20.26,969.18,147,389,-433
1512180660,-0.0386,0.0337,0.2657,19.04,-18.25,973.02,147,389,-433
1512180660,-0.0663,-0.0447,0.2755,28.81,-21.55,972.72,147,389,-433
1512180660,-0.0370,0.0170,0.2780,39.67,-50.11,968.02,147,386,-423
1512180660,-0.0579,-0.0194,0.2795,19.78,-52.06,986.45,147,386,-423
1512180660,-0.0526,-0.0073,0.2714,32.47,-46.51,977.23,147,386,-423
1512180660,-0.0667,0.0091,0.2770,-5.55,-49.62,1019.29,147,386,-423
1512180660,-0.0602,-0.0124,0.2854,28.38,-33.02,996.77,147,386,-423
1512180660,-0.0723,0.0140,0.2770,16.72,-61.46,993.65,159,405,-428
1512180660,0.0028,0.0008,0.2834,25.39,-21.00,1042.30,159,405,-428
1512180660,-0.0232,-0.0245,0.2951,21.48,-30.33,1010.93,159,405,-428
1512180660,-0.0752,0.0469,0.2846,-10.68,-28.02,965.52,159,405,-428
1512180660,-0.0767,-0.0209,0.2852,-39.98,-41.26,1014.77,159,401,-428
1512180660,-0.0451,0.0049,0.2948,-12.33,-11.11,1029.91,159,401,-428
1512180660,-0.0506,-0.0025,0.2924,21.00,-5.07,1039.98,159,401,-428
1512180660,-0.0128,-0.0353,0.3075,12.33,-45.59,992.68,159,401,-428
1512180660,-0.0193,0.0808,0.2921,50.72,0.06,1072.94,159,401,-428
1512180660,-0.0613,-0.0527,0.3169,2.99,-12.51,1043.70,175,393,-419
1512180660,-0.0695,0.0354,0.3131,-29.54,-27.40,986.51,175,393,-419
1512180661,-0.1124,-0.0253,0.3173,7.51,-54.69,957.46,175,393,-419
1512180661,-0.1487,0.0197,0.3197,37.96,-72.57,906.37,175,393,-419
1512180661,-0.1057,0.1172,0.3139,51.03,-101.20,1076.29,175,393,-419
1512180661,-0.0611,-0.0555,0.3454,25.02,-35.83,938.90,159,412,-431
1512180661,-0.0186,0.0545,0.3621,-29.79,-3.85,988.89,159,412,-431
1512180661,-0.1182,0.0439,0.3325,66.77,-91.31,920.10,159,412,-431
1512180661,-0.0226,-0.0459,0.3735,30.76,-63.11,1007.87,159,412,-431
1512180661,0.0503,0.0932,0.3333,18.07,-62.74,1027.22,161,428,-426
1512180661,-0.0080,-0.0692,0.3720,91.43,-29.91,982.42,161,428,-426
1512180661,0.0525,0.0550,0.3502,68.54,-112.24,975.22,161,428,-426
1512180661,-0.0411,0.0244,0.3526,28.81,-46.08,1067.32,161,428,-426
1512180661,-0.1589,-0.0531,0.3860,44.49,-57.25,948.91,161,428,-426
1512180661,-0.0329,-0.0011,0.3702,31.56,-91.49,1032.17,170,412,-421
1512180661,-0.0995,0.0080,0.3812,42.72,-128.48,892.09,170,412,-421
1512180661,0.0269,0.0312,0.3776,77.15,-36.13,1055.85,170,412,-421
1512180661,0.0758,0.0146,0.4015,0.85,-62.56,1016.60,170,412,-421
1512180661,-0.0708,0.0449,0.3967,76.97,-106.99,1020.02,170,412,-421
1512180661,-0.0025,-0.0262,0.3948,23.13,-75.13,993.53,170,440,-431
1512180661,-0.0076,0.0286,0.4120,51.88,-63.66,943.97,170,440,-431
1512180661,0.0158,0.0791,0.3949,71.53,-20.87,1026.92,170,440,-431
1512180661,0.0855,0.0003,0.4232,37.35,-85.57,1110.66,170,440,-431
1512180661,0.0021,0.0519,0.4105,78.80,-23.56,986.76,168,449,-416
1512180661,0.0013,0.0337,0.4200,53.22,-64.64,1105.04,168,449,-416
1512180661,0.0088,-0.0527,0.4342,101.62,-63.60,937.81,168,449,-416
1512180661,-0.0101,0.1221,0.4104,62.62,-81.60,994.20,168,449,-416
1512180661,0.0682,-0.0505,0.4296,89.60,-87.28,1002.99,168,449,-416
1512180661,0.0024,0.1830,0.4222,76.97,-16.24,999.08,172,481,-443
1512180661,0.0907,-0.0370,0.4432,9.58,-31.37,1069.40,172,481,-443
1512180661,-0.0917,0.0585,0.4224,63.05,-31.49,964.05,172,481,-443
1512180661,0.0510,-0.0201,0.4413,22.34,46.33,1102.54,172,481,-443
1512180661,0.0712,0.0447,0.4392,23.25,20.45,957.52,166,490,-424
1512180661,0.0474,-0.0340,0.4477,-54.26,-3.85,1005.25,166,490,-424
1512180661,0.0907,0.0521,0.4320,83.25,-72.51,979.98,166,490,-424
1512180661,0.0124,0.0240,0.4393,78.43,-27.95,1037.17,166,490,-424
1512180661,-0.0031,-0.0435,0.4381,33.57,24.66,922.42,166,490,-424
1512180661,-0.0582,0.0198,0.4413,41.14,34.30,872.19,179,488,-436
1512180661,0.0015,0.0490,0.4483,27.04,-14.22,996.03,179,488,-436
1512180661,-0.0664,0.0157,0.4545,80.57,-41.14,934.14,179,488,-436
1512180662,-0.1124,0.0828,0.4505,77.27,-76.97,997.74,179,488,-436
1512180662,-0.0569,0.0276,0.4523,83.62,-113.10,1002.01,179,488,-436
1512180662,0.0055,0.0742,0.4530,34.97,-18.49,1065.06,175,502,-426
1512180662,-0.0225,-0.0160,0.4530,51.03,-54.57,1022.95,175,502,-426
1512180662,-0.0521,0.0882,0.4542,28.56,5.86,959.66,175,502,-426
1512180662,0.0260,0.0272,0.4589,39.86,41.93,1068.85,175,502,-426
1512180662,0.0997,0.0305,0.4511,35.95,-21.18,996.15,173,518,-421
1512180662,-0.0137,0.0397,0.4486,33.87,23.74,979.37,173,518,-421
1512180662,0.0676,0.0887,0.4546,53.96,-2.93,1068.54,173,518,-421
1512180662,0.0466,0.0292,0.4626,-67.63,19.10,1020.02,173,518,-421
1512180662,0.0059,0.0170,0.4449,43.46,-2.81,938.60,173,518,-421
1512180662,-0.0117,0.0563,0.4378,76.60,-2.20,1024.23,163,521,-424
1512180662,0.0662,0.0210,0.4615,-27.22,0.98,1004.33,163,521,-424
1512180662,0.0513,0.0651,0.4342,3.48,39.43,993.29,163,521,-424
1512180662,-0.0134,0.0498,0.4450,23.80,-11.17,972.53,163,521,-424
1512180662,0.0374,0.0658,0.4410,16.60,-17.21,1023.19,163,521,-424
1512180662,0.0687,0.0545,0.4445,25.76,-17.15,1036.56,168,523,-443
1512180662,0.0001,0.0083,0.4422,40.22,-61.22,1018.01,168,523,-443
1512180662,0.0463,0.0687,0.4405,39.12,21.67,1008.85,168,523,-443
1512180662,-0.0060,-0.0158,0.4543,24.96,-47.79,1044.25,168,523,-443
1512180662,-0.0011,0.0411,0.4534,6.59,-39.55,940.61,163,574,-438
1512180662,-0.0290,0.0718,0.4420,12.45,-59.33,1062.01,163,574,-438
1512180662,-0.0023,-0.0313,0.4634,-65.12,-29.30,991.52,163,574,-438
1512180662,-0.0332,0.0578,0.4502,-26.86,-18.92,936.83,163,574,-438
1512180662,0.0382,-0.0116,0.4527,-14.28,-47.42,1018.01,163,574,-438
1512180662,-0.0289,0.0149,0.4610,-38.76,-43.64,974.12,161,544,-423
1512180662,-0.0293,0.0382,0.4567,5.80,-13.67,1006.16,161,544,-423
1512180662,0.0288,0.0148,0.4738,21.42,-72.14,1068.66,161,544,-423
1512180662,-0.0487,-0.0025,0.4605,-3.42,-74.71,910.58,161,544,-423
1512180662,0.0072,0.0583,0.4675,-64.51,-26.73,1069.89,161,544,-423
1512180662,0.0499,-0.0369,0.4767,-55.24,-68.36,1010.62,147,565,-440
1512180662,-0.0104,0.0469,0.4711,-23.50,-39.37,981.14,147,565,-440
1512180662,0.0546,-0.0123,0.4858,-24.60,-53.96,1024.11,147,565,-440
1512180662,-0.0601,0.0589,0.4755,0.31,-48.89,977.29,147,565,-440
1512180662,0.0660,0.0104,0.4919,-72.33,15.93,1052.55,144,580,-429
1512180662,0.0623,0.0330,0.4931,-67.93,-13.49,1004.58,144,580,-429
1512180662,-0.0197,-0.0264,0.4843,-89.90,-18.92,1047.67,144,580,-429
1512180662,-0.0482,-0.0119,0.4915,-66.10,34.18,1008.91,144,580,-429
1512180663,-0.0847,-0.0105,0.4738,-22.40,37.23,1068.30,144,580,-429
1512180663,-0.0799,-0.0459,0.4848,-14.16,79.71,1068.79,131,574,-438
1512180663,-0.1185,-0.0395,0.4782,43.76,29.97,1074.10,131,574,-438
1512180663,-0.1369,-0.0288,0.4728,-82.52,61.58,1105.53,131,574,-438
1512180663,-0.1249,-0.0582,0.4728,-91.06,91.43,1087.22,131,574,-438
1512180663,-0.1763,-0.0265,0.4649,-94.97,46.57,1076.48,126,594,-436
1512180663,-0.1967,-0.1257,0.4754,16.36,3.11,1011.54,126,594,-436
1512180663,-0.2260,0.0176,0.4663,8.85,-57.25,987.12,126,594,-436
1512180663,-0.2160,-0.0574,0.4827,51.15,-119.20,1039.49,126,594,-436
1512180663,-0.2280,0.0093,0.4670,44.31,-161.74,904.54,126,594,-436
1512180663,-0.1880,-0.0394,0.4916,84.47,-112.00,929.93,137,583,-429
1512180663,-0.1252,-0.0180,0.4819,87.16,-126.34,833.01,137,583,-429
1512180663,-0.0812,0.0217,0.4630,103.09,-159.79,1014.16,137,583,-429
1512180663,-0.0296,-0.0526,0.4804,-32.47,-98.82,952.39,137,583,-429
1512180663,-0.1226,-0.0031,0.4743,17.33,-58.29,957.52,137,583,-429
1512180663,-0.0052,0.0443,0.4852,73.79,-21.24,1112.73,122,597,-453
1512180663,0.0065,0.0293,0.4860,66.22,-98.45,1064.88,122,597,-453
1512180663,0.0551,0.1266,0.4790,72.69,-72.51,1157.78,122,597,-453
1512180663,-0.0462,0.1000,0.4888,108.34,-81.60,1086.30,122,597,-453
1512180663,0.0209,0.1256,0.5053,43.82,-41.14,1040.59,114,620,-448
1512180663,-0.0668,0.2012,0.4780,31.25,-58.65,1016.60,114,620,-448
1512180663,-0.0112,0.1888,0.4848,29.30,-87.22,1027.53,114,620,-448
1512180663,-0.0486,0.1855,0.4872,35.40,-88.26,932.31,114,620,-448
1512180663,-0.0112,0.2057,0.4807,-39.73,-66.22,954.53,114,620,-448
1512180663,-0.1563,0.1011,0.4912,-96.68,-6.41,832.52,112,636,-440
1512180663,-0.0483,0.2033,0.4810,-147.03,-15.20,920.90,112,636,-440
1512180663,-0.0850,0.0627,0.4819,-140.69,5.31,918.21,112,636,-440
1512180663,0.0071,0.1344,0.4851,-134.22,-60.24,972.84,112,636,-440
1512180663,-0.0996,0.0198,0.4796,-117.80,-65.86,921.33,112,636,-440
1512180663,-0.1041,0.1108,0.4699,-96.37,-71.66,974.37,91,636,-436
1512180663,-0.0960,0.0366,0.4742,-4.33,-68.24,1068.54,91,636,-436
1512180663,-0.0312,0.0117,0.4803,-105.04,-99.98,999.08,91,636,-436
1512180663,-0.1519,0.0538,0.4722,-89.05,-76.42,1017.21,91,636,-436
1512180663,0.0012,0.0039,0.4904,-71.66,-52.00,1085.14,91,647,-440
1512180663,-0.0928,0.0228,0.4920,-77.39,-85.94,1015.50,91,647,-440
1512180663,-0.0483,0.0196,0.4976,-14.89,-6.04,1066.22,91,647,-440
1512180663,0.0142,0.0266,0.5047,-106.87,-12.51,1130.13,91,647,-440
1512180664,-0.1433,-0.0980,0.5272,-34.30,-24.60,1052.92,91,647,-440
1512180664,-0.0766,-0.0092,0.5344,-81.85,-12.57,1065.19,73,654,-440
1512180664,-0.1462,-0.1397,0.5171,-47.06,-74.34,1000.31,73,654,-440
1512180664,-0.1474,-0.0783,0.5185,-22.09,-14.53,968.93,73,654,-440
1512180664,-0.0944,-0.1361,0.5201,-97.05,-120.54,1006.23,73,654,-440
1512180664,-0.2061,-0.0965,0.4991,-36.38,-139.89,934.75,77,650,-453
1512180664,-0.1840,-0.0594,0.4951,43.70,-138.00,1008.85,77,650,-453
1512180664,-0.1887,-0.0935,0.5092,-55.24,-141.97,887.63,77,650,-453
1512180664,-0.1703,-0.0674,0.5040,-31.62,-126.46,933.90,77,650,-453
1512180664,-0.0121,-0.0370,0.5004,3.05,-93.44,1100.10,77,650,-453
1512180664,0.0342,-0.0959,0.5088,-35.89,-123.60,1099.85,50,659,-445
1512180664,0.0639,-0.0093,0.5015,26.92,-90.58,1023.07,50,659,-445
1512180664,0.1109,-0.0417,0.4847,71.66,-160.89,1125.43,50,659,-445
1512180664,0.2047,0.0069,0.4763,-20.87,-102.97,1134.52,50,659,-445
1512180664,0.1256,-0.0399,0.4722,9.89,-139.28,1041.44,50,659,-445
1512180664,0.1629,0.0274,0.4590,-50.54,-116.39,1045.04,43,659,-462
1512180664,0.2479,-0.0627,0.4577,-74.65,-35.40,959.23,43,659,-462
1512180664,0.2123,0.0397,0.4422,-72.20,-44.19,878.30,43,659,-462
1512180664,0.1614,0.0434,0.4521,-113.89,-23.38,904.85,43,659,-462
1512180664,0.1349,0.0471,0.4671,-124.33,-17.94,924.68,19,673,-431
1512180664,0.0971,0.0591,0.4587,-138.24,3.36,937.38,19,673,-431
1512180664,0.0117,-0.0160,0.4764,-158.39,-10.99,925.78,19,673,-431
1512180664,-0.0165,0.0510,0.4690,-87.95,-33.57,968.08,19,673,-431
1512180664,-0.0244,0.0190,0.4650,-104.43,-36.44,979.43,19,673,-431
1512180664,0.0240,0.0558,0.4776,-78.74,-36.62,1019.71,8,676,-445
1512180664,-0.0462,0.0372,0.4589,-89.36,-86.49,984.56,8,676,-445
1512180664,0.0107,-0.0007,0.4629,-60.12,-86.36,1059.20,8,676,-445
1512180664,-0.0514,0.0258,0.4607,-102.36,-63.42,944.15,8,676,-445
1512180664,-0.0268,0.0248,0.4746,-88.50,-26.86,1031.68,8,676,-445
1512180664,0.0087,0.0045,0.4744,-86.61,-30.70,1009.22,7,664,-450
1512180664,0.0146,-0.0547,0.4802,-98.45,-106.57,1008.85,7,664,-450
1512180664,0.0044,0.0563,0.4787,-38.64,-96.92,997.80,7,664,-450
1512180664,0.0670,-0.0225,0.4943,-84.72,-72.51,1114.93,7,664,-450
1512180664,-0.0724,0.0115,0.4863,-49.32,-123.84,987.24,-17,671,-450
1512180664,-0.0245,-0.0021,0.4774,-78.49,-104.19,1009.70,-17,671,-450
1512180664,0.0079,0.0285,0.4760,-91.74,-109.68,1022.03,-17,671,-450
1512180664,-0.0024,-0.0145,0.4766,-76.60,-67.32,1021.24,-17,671,-450
1512180664,0.0901,0.0574,0.4681,-102.66,-78.37,1021.48,-17,671,-450
1512180665,-0.0081,-0.0134,0.4735,-88.26,-107.42,951.78,-28,682,-436
1512180665,0.0533,0.0429,0.4698,-96.25,-73.67,1029.72,-28,682,-436
1512180665,0.0583,-0.0012,0.4704,-145.57,-78.25,957.95,-28,682,-436
1512180665,0.0190,0.0180,0.4694,-98.08,-62.32,912.72,-28,682,-436
1512180665,0.0365,0.0232,0.4723,-117.74,-57.80,993.41,-28,682,-436
1512180665,-0.0461,0.0069,0.4696,-101.50,-53.77,913.33,-35,675,-450
1512180665,-0.0162,0.0329,0.4718,-131.65,-28.14,1020.14,-35,675,-450
1512180665,-0.0012,0.0109,0.4784,-123.90,-83.01,986.39,-35,675,-450
1512180665,-0.0209,0.0049,0.4675,-116.27,-78.74,985.53,-35,675,-450
1512180665,-0.0217,0.0165,0.4782,-117.74,-87.77,999.39,-50,666,-428
1512180665,-0.0083,-0.0241,0.4711,-83.86,-95.34,1053.28,-50,666,-428
1512180665,-0.0487,-0.0023,0.4587,-81.48,-101.87,999.45,-50,666,-428
1512180665,-0.0220,0.0170,0.4561,-60.24,-77.88,1073.49,-50,666,-428
1512180665,-0.0149,-0.0056,0.4595,-127.32,-60.18,1038.82,-50,666,-428
1512180665,-0.0410,-0.0068,0.4546,-53.28,-59.69,947.63,-66,671,-440
1512180665,-0.0104,0.0316,0.4671,-133.36,-99.49,1022.22,-66,671,-440
1512180665,-0.0647,-0.0782,0.4603,-135.68,-114.26,934.63,-66,671,-440
1512180665,0.0088,0.0775,0.4483,-92.04,-77.88,994.20,-66,671,-440
1512180665,0.0160,-0.0332,0.4502,-156.62,-95.03,999.45,-79,687,-458
1512180665,-0.0840,0.0025,0.4385,-125.85,-66.83,930.36,-79,687,-458
1512180665,0.0180,0.0262,0.4388,-93.44,-79.28,1058.59,-79,687,-458
1512180665,-0.0475,0.0076,0.4366,-137.51,-91.92,928.10,-79,687,-458
1512180665,0.0270,0.0260,0.4350,-77.58,-49.68,1011.66,-79,687,-458
1512180665,0.0076,0.0276,0.4196,-109.19,-75.44,1013.61,-84,668,-446
1512180665,-0.0332,-0.0546,0.4249,-149.11,-21.12,1001.59,-84,668,-446
1512180665,0.0647,0.1011,0.4035,-123.47,-26.31,1053.47,-84,668,-446
1512180665,0.0240,-0.0438,0.4274,-113.04,-54.87,1058.23,-84,668,-446
1512180665,0.0254,0.0798,0.4125,-123.17,-73.79,1001.65,-84,668,-446
1512180665,-0.0061,0.0004,0.4097,-158.57,-30.27,1015.20,-107,662,-448
1512180665,0.0306,0.0578,0.3911,-138.98,-50.90,980.65,-107,662,-448
1512180665,-0.0378,0.0165,0.3850,-141.24,-75.93,995.97,-107,662,-448
1512180665,0.0409,0.0780,0.3880,-123.84,-30.46,1028.08,-107,662,-448
1512180665,0.0611,0.0286,0.3762,-114.20,10.86,1039.86,-112,661,-453
1512180665,0.0518,0.0463,0.3771,-186.83,-12.33,1008.48,-112,661,-453
1512180665,-0.0272,-0.0015,0.3686,-136.96,14.22,970.95,-112,661,-453
1512180665,0.0486,0.0723,0.3549,-170.23,-0.24,1051.09,-112,661,-453
1512180665,0.0213,-0.0882,0.3582,-160.58,-0.31,981.81,-112,661,-453
1512180665,0.0571,0.0617,0.3434,-161.32,27.40,972.72,-117,648,-451
1512180666,-0.0393,-0.0107,0.3474,-186.83,-29.48,1029.24,-117,648,-451
1512180666,0.0087,0.0200,0.3313,-135.56,-13.12,944.21,-117,648,-451
1512180666,0.0158,-0.0064,0.3410,-188.42,-25.21,1008.18,-117,648,-451
1512180666,-0.0077,-0.0201,0.3209,-143.98,-31.43,955.99,-144,650,-440
1512180666,-0.0393,0.0145,0.3119,-143.49,-35.77,949.89,-144,650,-440
1512180666,0.0226,-0.0157,0.3152,-166.38,-6.35,996.22,-144,650,-440
1512180666,-0.0691,0.0176,0.2988,-125.73,-25.15,870.54,-144,650,-440
1512180666,-0.0004,0.0248,0.3031,-124.33,-6.41,1052.92,-144,650,-440
1512180666,-0.0059,0.0025,0.2971,-147.95,-14.22,986.02,-138,652,-445
1512180666,-0.0296,-0.0258,0.2973,-186.04,-16.05,991.15,-138,652,-445
1512180666,0.0056,0.0141,0.2848,-156.49,-23.32,987.18,-138,652,-445
1512180666,-0.0647,-0.0321,0.2674,-94.06,2.87,987.00,-138,652,-445
1512180666,0.0071,-0.0173,0.2804,-142.03,-32.78,1025.39,-138,652,-445
1512180666,-0.0720,0.0148,0.2563,-161.19,5.98,980.04,-144,654,-443
1512180666,-0.0463,-0.0298,0.2647,-163.57,-5.43,1027.53,-144,654,-443
1512180666,0.0397,0.0413,0.2633,-152.10,-11.11,1054.32,-144,654,-443
1512180666,-0.0244,-0.0212,0.2519,-148.50,-7.87,986.69,-144,654,-443
1512180666,-0.0019,-0.0258,0.2523,-168.88,-19.35,995.79,-154,639,-443
1512180666,-0.0605,0.0402,0.2262,-175.35,-10.44,941.28,-154,639,-443
1512180666,0.0266,0.0057,0.2350,-158.45,39.98,1094.24,-154,639,-443
1512180666,0.0049,0.0048,0.2147,-131.16,11.60,1007.57,-154,639,-443
1512180666,-0.0278,-0.0237,0.2174,-163.88,-3.42,1021.79,-154,639,-443
1512180666,0.0362,0.0121,0.2011,-163.21,-33.87,996.64,-149,634,-438
1512180666,0.0433,0.0123,0.2032,-159.24,11.17,1041.69,-149,634,-438
1512180666,0.1076,0.0011,0.1912,-138.73,36.62,1019.04,-149,634,-438
1512180666,-0.0005,-0.0174,0.1842,-152.77,2.26,935.73,-149,634,-438
1512180666,0.0535,0.0356,0.1791,-141.05,16.11,988.77,-149,634,-438
1512180666,0.0716,0.0415,0.1672,-177.98,83.07,1064.03,-163,627,-438
1512180666,0.0827,-0.0443,0.1714,-171.39,45.41,977.78,-163,627,-438
1512180666,0.0489,0.0330,0.1602,-163.09,50.84,1010.44,-163,627,-438
1512180666,0.0663,-0.0073,0.1511,-205.38,76.66,994.75,-163,627,-438
1512180666,0.0158,-0.0116,0.1526,-154.97,44.01,933.11,-168,632,-453
1512180666,0.0214,0.0699,0.1332,-185.55,30.27,1016.17,-168,632,-453
1512180666,-0.0130,-0.0858,0.1403,-171.26,10.93,914.18,-168,632,-453
1512180666,0.0407,0.1249,0.1298,-159.97,-2.81,1011.84,-168,632,-453
1512180666,0.0256,-0.0397,0.1270,-160.28,28.44,957.58,-168,632,-453
1512180666,-0.0186,0.0607,0.1270,-148.93,45.96,975.22,-173,609,-451
1512180666,0.0174,-0.0182,0.1176,-193.36,17.21,989.38,-173,609,-451
1512180667,0.0044,0.0236,0.1168,-157.84,42.30,958.56,-173,609,-451
1512180667,0.0506,0.0035,0.1113,-187.81,30.94,1014.89,-173,609,-451
1512180667,-0.0039,-0.0234,0.1105,-227.48,4.39,937.44,-173,609,-451
1512180667,0.0341,0.0117,0.1100,-194.40,66.04,1037.23,-166,620,-462
1512180667,0.0463,-0.0421,0.1011,-197.02,39.67,973.21,-166,620,-462
1512180667,-0.0609,-0.0249,0.1053,-171.02,44.74,972.35,-166,620,-462
1512180667,-0.0125,0.0047,0.1011,-159.55,53.77,1014.83,-166,620,-462
1512180667,-0.0614,-0.0226,0.0973,-195.43,14.28,965.39,-180,617,-451
1512180667,-0.0625,-0.0003,0.1009,-196.29,33.57,1007.75,-180,617,-451
1512180667,-0.0218,-0.0120,0.0876,-198.24,51.94,962.22,-180,617,-451
1512180667,0.0240,-0.0318,0.0889,-139.34,38.21,1019.47,-180,617,-451
1512180667,0.0068,0.0321,0.0794,-178.47,18.68,1045.78,-180,617,-451
1512180667,0.0123,-0.0463,0.0723,-142.64,68.42,990.72,-173,624,-445
1512180667,0.0764,0.0212,0.0694,-186.77,51.21,1012.02,-173,624,-445
1512180667,-0.0422,-0.0182,0.0642,-186.65,37.29,997.07,-173,624,-445
1512180667,-0.0446,-0.0200,0.0510,-172.49,30.64,965.15,-173,624,-445
1512180667,-0.0222,0.0052,0.0549,-207.70,67.08,965.88,-173,624,-445
1512180667,0.0322,-0.0193,0.0562,-215.03,100.16,977.54,-182,632,-453
1512180667,0.1145,-0.0053,0.0383,-174.13,105.59,1042.91,-182,632,-453
1512180667,0.0718,-0.0039,0.0405,-235.78,65.31,981.02,-182,632,-453
1512180667,0.0190,-0.0338,0.0419,-255.00,91.61,944.52,-182,632,-453
1512180667,0.0214,0.0382,0.0281,-192.26,92.59,965.58,-173,624,-441
1512180667,0.0479,0.0123,0.0260,-204.16,102.54,1034.00,-173,624,-441
1512180667,0.0154,-0.0009,0.0220,-167.36,55.79,957.64,-173,624,-441
1512180667,-0.0210,0.0121,0.0189,-189.21,74.95,975.16,-173,624,-441
1512180667,0.0341,-0.0069,0.0168,-165.16,77.33,1015.56,-173,624,-441
1512180667,0.0321,-0.0049,0.0080,-165.59,139.47,996.28,-188,609,-445
1512180667,0.0913,0.0381,0.0105,-177.43,132.69,1073.43,-188,609,-445
1512180667,0.0534,-0.0401,0.0041,-132.87,105.47,1002.44,-188,609,-445
1512180667,0.0431,0.0304,0.0089,-156.01,75.07,1041.44,-188,609,-445
1512180667,-0.0220,-0.0256,0.0041,-153.56,76.60,991.88,-188,609,-445
1512180667,-0.0391,0.0016,-0.0013,-129.82,83.19,954.04,-173,624,-435
1512180667,0.0210,0.0200,0.0019,-214.48,89.78,1048.58,-173,624,-435
1512180667,-0.0590,-0.0232,-0.0125,-165.16,98.57,949.16,-173,624,-435
1512180667,0.0377,0.0538,-0.0061,-162.48,125.79,1043.88,-173,624,-435
1512180667,-0.0165,-0.0216,-0.0180,-159.36,123.23,971.56,-189,622,-457
1512180667,0.0249,-0.0398,-0.0121,-156.62,128.11,993.23,-189,622,-457
1512180668,0.0791,0.0407,-0.0264,-176.76,165.53,1020.75,-189,622,-457
1512180668,0.0293,-0.0739,-0.0165,-141.42,135.19,1006.53,-189,622,-457
1512180668,0.0539,0.0587,-0.0228,-161.25,148.80,996.83,-189,622,-457
1512180668,0.0909,-0.0252,-0.0326,-171.14,152.04,1059.33,-188,613,-441
1512180668,0.1039,0.0168,-0.0365,-204.96,169.74,1009.03,-188,613,-441
1512180668,0.0595,-0.0277,-0.0288,-169.37,157.65,1002.93,-188,613,-441
1512180668,0.0806,0.0149,-0.0349,-144.96,162.05,1004.76,-188,613,-441
1512180668,0.0361,-0.0461,-0.0296,-159.55,129.15,1014.53,-188,613,-441
1512180668,0.0567,0.0192,-0.0385,-164.43,149.66,950.13,-186,618,-453
1512180668,0.0619,-0.0471,-0.0316,-132.08,122.19,1033.39,-186,618,-453
1512180668,-0.0012,0.0184,-0.0374,-154.48,142.03,955.87,-186,618,-453
1512180668,-0.0229,-0.0376,-0.0366,-109.19,134.16,1026.86,-186,618,-453
1512180668,0.0431,0.0373,-0.0322,-171.57,122.13,1004.33,-182,615,-446
1512180668,0.0314,-0.0451,-0.0378,-150.15,144.71,1044.92,-182,615,-446
1512180668,0.1012,-0.0060,-0.0431,-176.51,135.38,1039.25,-182,615,-446
1512180668,-0.0079,-0.0438,-0.0334,-102.36,91.86,1003.72,-182,615,-446
1512180668,0.0073,0.0321,-0.0494,-128.11,117.49,999.33,-182,615,-446
1512180668,-0.0197,-0.0670,-0.0253,-151.49,133.42,982.42,-188,609,-438
1512180668,0.0060,0.0585,-0.0366,-154.54,87.71,997.68,-188,609,-438
1512180668,0.0101,-0.0328,-0.0294,-133.42,99.91,1031.31,-188,609,-438
1512180668,-0.0940,-0.0017,-0.0376,-100.52,65.19,936.34,-188,609,-438
1512180668,-0.0606,-0.0498,-0.0212,-138.24,132.81,1022.52,-188,609,-438
1512180668,0.0330,0.0129,-0.0423,-111.76,117.61,983.70,-182,611,-443
1512180668,0.0206,-0.0851,-0.0353,-101.50,166.08,996.64,-182,611,-443
1512180668,0.1169,0.0125,-0.0313,-176.88,148.25,1051.21,-182,611,-443
1512180668,-0.0533,-0.0730,-0.0376,-178.65,79.77,981.08,-182,611,-443
1512180668,-0.0084,0.0286,-0.0394,-107.24,117.98,1009.58,-193,604,-443
1512180668,-0.0521,-0.0193,-0.0465,-113.46,86.12,1021.00,-193,604,-443
1512180668,-0.1067,-0.0153,-0.0386,-116.27,99.24,993.16,-193,604,-443
1512180668,-0.0591,0.0349,-0.0305,-93.14,103.21,1014.89,-193,604,-443
1512180668,-0.1197,0.0193,-0.0394,-105.47,104.13,998.29,-193,604,-443
1512180668,-0.1121,-0.0537,-0.0177,-68.05,101.01,991.82,-198,609,-441
1512180668,-0.0501,0.0759,-0.0411,-123.23,115.54,974.06,-198,609,-441
1512180668,-0.0314,-0.0437,-0.0377,-157.23,95.21,1024.66,-198,609,-441
1512180668,0.0073,0.0134,-0.0390,-151.86,140.32,927.80,-198,609,-441
1512180668,0.0680,-0.0112,-0.0352,-153.02,138.37,1019.71,-179,608,-446
1512180668,0.0051,-0.0232,-0.0313,-146.24,119.93,978.33,-179,608,-446
1512180668,0.0648,-0.0368,-0.0322,-134.46,197.88,1004.88,-179,608,-446
1512180669,0.1365,0.0170,-0.0405,-171.51,194.95,1005.98,-179,608,-446
1512180669,0.0968,-0.0810,-0.0372,-114.56,174.32,1038.39,-179,608,-446
1512180669,0.1543,0.0115,-0.0522,-103.76,237.55,1001.53,-188,609,-435
1512180669,0.1810,-0.0174,-0.0418,-101.87,165.34,1070.74,-188,609,-435
1512180669,0.0799,-0.0694,-0.0465,-57.25,166.75,943.42,-188,609,-435
1512180669,0.0965,0.0720,-0.0403,-78.80,207.70,1063.23,-188,609,-435
1512180669,0.0851,-0.0341,-0.0294,-151.18,137.57,1009.34,-188,609,-435
1512180669,0.0073,-0.0338,-0.0222,-147.89,167.54,996.34,-200,594,-440
1512180669,0.0138,-0.0071,-0.0309,-128.30,147.28,1041.02,-200,594,-440
1512180669,-0.0288,-0.0506,-0.0241,-122.01,104.68,993.65,-200,594,-440
1512180669,-0.0274,0.0543,-0.0245,-89.11,96.07,969.97,-200,594,-440
1512180669,-0.0481,0.0172,-0.0281,-75.01,86.79,1021.85,-196,615,-419
1512180669,-0.0360,0.0134,-0.0093,-66.47,94.30,985.05,-196,615,-419
1512180669,-0.1012,0.0574,-0.0150,-130.49,103.21,952.33,-196,615,-419
1512180669,-0.0571,-0.0518,-0.0099,-68.85,89.36,1041.08,-196,615,-419
1512180669,0.0878,0.0450,-0.0153,-102.48,114.38,1036.38,-196,615,-419
1512180669,0.0076,-0.0466,-0.0234,-121.09,148.86,995.06,-182,618,-413
1512180669,0.0105,-0.0152,-0.0144,-137.82,99.55,988.77,-182,618,-413
1512180669,0.0210,0.0234,-0.0182,-144.78,127.99,1001.83,-182,618,-413
1512180669,-0.0427,0.0269,-0.0221,-81.85,97.23,951.72,-182,618,-413
1512180669,-0.0545,0.0043,-0.0060,-100.77,86.49,1005.00,-182,618,-413
1512180669,-0.0033,0.0318,-0.0170,-110.29,122.80,933.41,-179,625,-429
1512180669,-0.0141,0.0035,-0.0088,-108.70,114.07,1008.30,-179,625,-429
1512180669,-0.0382,0.0238,-0.0128,-84.23,61.22,973.33,-179,625,-429
1512180669,-0.0177,-0.0145,-0.0200,-34.00,86.49,1017.82,-179,625,-429
1512180669,-0.0166,0.0141,-0.0141,-90.58,79.59,1004.39,-173,617,-428
1512180669,-0.1028,-0.0068,-0.0105,-95.58,103.09,957.34,-173,617,-428
1512180669,-0.0511,0.0113,-0.0132,-126.95,92.41,959.05,-173,617,-428
1512180669,-0.0117,0.0346,-0.0073,-134.40,115.48,956.48,-173,617,-428
1512180669,-0.0180,0.0272,-0.0085,-92.35,83.07,992.13,-173,617,-428
1512180669,0.0160,-0.0382,-0.0091,-114.01,118.35,989.93,-179,622,-443
1512180669,0.0687,0.0399,-0.0051,-115.05,118.10,1067.08,-179,622,-443
1512180669,-0.0567,-0.0273,-0.0108,-75.38,132.45,957.58,-179,622,-443
1512180669,0.0554,0.0368,-0.0021,-80.02,123.11,1042.66,-179,622,-443
1512180669,-0.0116,0.0015,-0.0063,-113.10,44.01,955.75,-177,631,-431
1512180669,-0.0664,0.0111,-0.0024,-100.04,84.53,1037.84,-177,631,-431
1512180669,-0.0260,-0.0374,0.0057,-129.39,70.62,939.45,-177,631,-431
1512180669,-0.0466,0.0326,0.0091,-99.98,48.65,945.98,-177,631,-431
1512180670,-0.0638,-0.0310,0.0123,-81.30,47.73,974.18,-177,631,-431
1512180670,-0.0487,0.0328,0.0161,-92.96,44.19,994.20,-184,624,-445
1512180670,0.0234,-0.0092,0.0145,-71.96,81.24,1039.86,-184,624,-445
1512180670,0.0332,0.0044,0.0197,-109.92,87.22,1043.21,-184,624,-445
1512180670,-0.0064,-0.0382,0.0141,-97.84,103.03,988.65,-184,624,-445
1512180670,0.0125,0.0168,0.0246,-88.13,112.85,978.94,-186,629,-436
1512180670,0.0134,-0.0181,0.0209,-84.11,47.61,985.84,-186,629,-436
1512180670,-0.0158,0.0220,0.0318,-104.68,93.26,942.50,-186,629,-436
1512180670,-0.0040,0.0595,0.0261,-66.47,79.41,1069.64,-186,629,-436
1512180670,-0.0818,-0.0648,0.0382,-126.28,49.93,984.01,-186,629,-436
1512180670,0.0020,0.0244,0.0429,-113.34,100.95,951.23,-165,618,-446
1512180670,-0.0008,-0.0241,0.0459,-95.34,52.06,1019.59,-165,618,-446
1512180670,-0.0830,-0.0240,0.0483,-65.80,29.36,908.08,-165,618,-446
1512180670,-0.0322,0.0398,0.0563,-53.89,31.56,985.78,-165,618,-446
1512180670,0.0372,-0.0198,0.0506,-95.52,85.75,955.26,-165,618,-446
1512180670,0.0137,-0.0048,0.0578,-45.35,50.72,1021.12,-173,617,-441
1512180670,-0.0130,0.0372,0.0577,-91.49,42.36,1000.73,-173,617,-441
1512180670,-0.0652,-0.0555,0.0636,-83.68,73.61,976.68,-173,617,-441
1512180670,-0.0229,0.0711,0.0684,-78.86,54.32,957.89,-173,617,-441
1512180670,-0.0265,-0.0276,0.0702,-100.83,43.70,970.58,-182,615,-446
1512180670,-0.0130,0.0317,0.0687,-68.05,59.51,1005.80,-182,615,-446
1512180670,-0.0304,-0.0254,0.0756,-127.38,70.68,927.25,-182,615,-446
1512180670,0.0365,-0.0045,0.0820,-101.44,84.47,948.06,-182,615,-446
1512180670,0.0149,-0.0120,0.0775,-89.78,44.49,990.42,-182,615,-446
1512180670,-0.0300,-0.0298,0.0866,-50.48,80.44,946.96,-180,613,-431
1512180670,0.0146,0.0551,0.0883,-9.64,1.83,1014.40,-180,613,-431
1512180670,-0.0028,-0.0142,0.0952,-56.52,48.40,1013.61,-180,613,-431
1512180670,-0.0254,-0.0318,0.0976,-90.58,63.23,987.24,-180,613,-431
1512180670,-0.0134,0.0124,0.1079,-54.99,52.12,995.00,-180,613,-431
1512180670,-0.0418,-0.0320,0.1032,-104.86,15.20,1014.89,-179,608,-453
1512180670,0.0487,-0.0462,0.1095,-51.51,26.25,946.04,-179,608,-453
1512180670,0.0205,0.0459,0.1185,-119.45,62.93,995.06,-179,608,-453
1512180670,-0.0666,-0.0071,0.1201,-21.42,-21.18,1008.67,-179,608,-453
1512180670,0.0405,-0.0507,0.1244,-72.33,41.14,962.59,-184,627,-445
1512180670,-0.0282,0.0095,0.1308,-67.32,-24.48,1025.09,-184,627,-445
1512180670,-0.1458,-0.0145,0.1278,-3.42,-40.53,966.86,-184,627,-445
1512180670,-0.0644,0.0374,0.1370,-30.64,-40.04,999.76,-184,627,-445
1512180670,-0.0896,0.0447,0.1308,3.48,5.74,975.52,-184,627,-445
1512180671,-0.0507,0.0145,0.1407,-9.22,34.48,1019.41,-177,606,-455
1512180671,-0.0385,0.0080,0.1435,-78.49,50.05,961.30,-177,606,-455
1512180671,0.0141,-0.0212,0.1410,-44.98,61.89,951.72,-177,606,-455
1512180671,0.0056,0.0497,0.1397,-63.11,21.55,1040.53,-177,606,-455
1512180671,-0.0115,-0.0173,0.1481,-31.19,2.44,937.99,-177,606,-455
1512180671,0.0482,0.0302,0.1481,-30.46,105.41,958.19,-198,602,-448
1512180671,0.0437,-0.0180,0.1505,-48.28,15.50,1000.12,-198,602,-448
1512180671,-0.0164,0.0181,0.1505,-86.61,68.36,924.13,-198,602,-448
1512180671,-0.0273,-0.0063,0.1514,-42.79,10.31,999.76,-198,602,-448
1512180671,-0.0003,0.0274,0.1497,-74.04,59.45,1003.23,-202,585,-435
1512180671,-0.0313,-0.0119,0.1494,-37.05,61.40,1004.46,-202,585,-435
1512180671,-0.0146,-0.0149,0.1533,-4.70,29.60,978.82,-202,585,-435
1512180671,0.0162,0.0405,0.1525,-49.56,78.74,982.24,-202,585,-435
1512180671,-0.0032,0.0152,0.1546,-29.79,52.06,1073.00,-202,585,-435
1512180671,-0.0072,-0.0079,0.1594,-32.71,29.24,981.02,-198,595,-431
1512180671,-0.0531,0.0237,0.1591,-34.73,-3.60,1055.91,-198,595,-431
1512180671,-0.0097,-0.0240,0.1602,-14.89,8.73,1005.55,-198,595,-431
1512180671,-0.0579,0.0133,0.1698,-70.43,-30.64,1003.91,-198,595,-431
1512180671,-0.0377,-0.0304,0.1736,-76.66,-19.23,1001.95,-198,595,-431
1512180671,-0.0505,-0.0079,0.1764,-75.26,29.24,937.74,-188,581,-431
1512180671,0.0076,-0.0027,0.1779,-50.35,37.54,1036.74,-188,581,-431
1512180671,-0.0433,-0.0013,0.1796,-76.48,-1.34,985.84,-188,581,-431
1512180671,-0.0570,-0.0210,0.1742,-15.93,5.74,983.40,-188,581,-431
1512180671,0.0186,0.0233,0.1840,-50.72,10.56,1059.94,-191,588,-428
1512180671,-0.1056,-0.0301,0.1814,10.07,-51.82,951.60,-191,588,-428
1512180671,-0.0174,0.0138,0.1806,-65.06,-2.14,975.95,-191,588,-428
1512180671,-0.0232,0.0272,0.1812,18.01,-25.88,1012.33,-191,588,-428
1512180671,-0.0146,0.0487,0.1947,-10.44,-17.27,1073.00,-191,588,-428
1512180671,-0.0414,0.0072,0.2029,-40.47,-12.02,974.37,-191,581,-445
1512180671,0.0120,0.0695,0.1924,-10.68,23.07,968.26,-191,581,-445
1512180671,0.0455,0.0273,0.2071,-72.69,52.00,1028.56,-191,581,-445
1512180671,0.1245,0.0108,0.1939,-75.07,57.62,976.20,-191,581,-445
1512180671,0.1273,0.0390,0.2016,-88.68,117.68,1008.85,-196,590,-443
1512180671,0.1100,0.0316,0.2008,-104.92,79.65,896.12,-196,590,-443
1512180671,0.0531,-0.0157,0.2077,-99.73,80.14,948.91,-196,590,-443
1512180671,0.0232,0.0244,0.1949,-49.19,78.92,975.16,-196,590,-443
1512180671,0.0302,-0.0668,0.2073,-64.82,68.73,1000.92,-196,590,-443
1512180672,0.0309,0.0274,0.1975,-18.37,51.45,994.38,-223,578,-428
1512180672,-0.0981,-0.0326,0.2017,-7.51,-7.39,1028.81,-223,578,-428
1512180672,-0.0414,0.0376,0.2019,5.55,35.22,1041.93,-223,578,-428
1512180672,0.0288,-0.0057,0.2076,-8.18,35.16,1087.65,-223,578,-428
1512180672,-0.0747,-0.0093,0.2063,2.75,5.37,985.84,-223,578,-428
1512180672,-0.0364,0.0109,0.2099,-6.29,22.77,1054.99,-223,574,-438
1512180672,-0.0780,-0.0064,0.2153,-65.00,39.92,962.28,-223,574,-438
1512180672,-0.0318,0.0224,0.2245,-21.79,19.47,978.64,-223,574,-438
1512180672,0.0104,0.0245,0.2224,-90.09,-19.29,1049.13,-223,574,-438
1512180672,-0.0065,-0.0020,0.2197,-36.87,48.40,1009.40,-219,567,-451
1512180672,0.0435,0.0144,0.2289,-65.43,30.27,963.44,-219,567,-451
1512180672,-0.0574,-0.0088,0.2166,-26.18,-0.12,977.23,-219,567,-451
1512180672,-0.0489,0.0293,0.2087,-37.23,-33.69,1033.26,-219,567,-451
1512180672,-0.0602,0.0041,0.2204,-86.67,37.78,1039.86,-219,567,-451
1512180672,-0.0487,0.0111,0.2165,-35.03,29.36,990.84,-233,567,-448
1512180672,-0.0261,0.0281,0.2201,-50.78,38.57,1032.41,-233,567,-448
1512180672,0.0297,0.0337,0.2174,-45.29,2.56,1002.38,-233,567,-448
1512180672,0.0113,0.0071,0.2176,4.58,18.25,1069.27,-233,567,-448
1512180672,-0.0430,0.0344,0.2232,-57.13,15.26,1033.57,-228,558,-436
1512180672,-0.0961,0.0166,0.2125,-62.19,-13.92,1022.22,-228,558,-436
1512180672,0.0190,0.0150,0.2184,-35.77,50.35,1031.49,-228,558,-436
1512180672,0.0076,-0.0117,0.2113,-33.94,-16.11,972.60,-228,558,-436
1512180672,-0.0401,0.0361,0.2162,-25.02,23.99,958.56,-228,558,-436
1512180672,-0.0654,0.0178,0.2172,-86.79,-1.89,966.25,-217,548,-446
1512180672,-0.0611,0.0268,0.2293,-82.15,26.73,938.23,-217,548,-446
1512180672,-0.0780,0.0435,0.2178,-97.60,5.74,962.52,-217,548,-446
1512180672,-0.0248,0.0063,0.2249,-68.18,38.21,1017.70,-217,548,-446
1512180672,-0.0503,0.0680,0.2182,-52.73,-10.74,1008.00,-217,548,-446
1512180672,-0.0644,-0.0169,0.2206,-54.14,-15.69,1006.71,-238,558,-446
1512180672,-0.0839,0.0289,0.2220,-48.83,-31.31,956.05,-238,558,-446
1512180672,-0.0133,0.0549,0.2169,-48.34,-6.10,1021.55,-238,558,-446
1512180672,-0.0441,-0.0360,0.2258,-47.79,-14.77,945.92,-238,558,-446
1512180672,0.0097,0.0531,0.2222,-68.12,56.03,955.57,-238,558,-433
1512180672,0.0265,-0.0045,0.2216,-60.00,54.69,1058.29,-238,558,-433
1512180672,0.0963,-0.0132,0.2270,-66.10,56.21,1046.57,-238,558,-433
1512180672,0.0482,0.0290,0.2206,-59.14,48.95,1017.52,-238,558,-433
1512180672,0.0193,-0.0088,0.2226,-70.37,21.61,1033.81,-238,558,-433
1512180672,-0.0410,0.0565,0.2221,-81.24,21.36,986.45,-237,550,-438
1512180673,-0.0372,-0.0071,0.2212,-91.25,14.10,1049.07,-237,550,-438
1512180673,-0.0509,0.0212,0.2202,-57.86,-1.28,980.77,-237,550,-438
1512180673,-0.0293,0.0256,0.2192,-59.63,-12.21,996.70,-237,550,-438
1512180673,0.0133,-0.0088,0.2216,-70.19,2.75,1005.55,-237,550,-438
1512180673,-0.0016,0.0200,0.2234,-93.32,31.68,940.92,-233,542,-438
1512180673,-0.0152,0.0079,0.2185,-83.98,23.68,990.78,-233,542,-438
1512180673,0.0329,0.0036,0.2289,-76.05,18.13,984.37,-233,542,-438
1512180673,-0.0134,-0.0083,0.2185,-53.71,10.31,973.94,-233,542,-438
1512180673,-0.0134,0.0182,0.2333,-81.79,43.27,987.43,-240,532,-448
1512180673,-0.0497,0.0123,0.2213,-76.60,19.10,940.86,-240,532,-448
1512180673,-0.0185,0.0029,0.2212,-38.39,-6.96,1013.61,-240,532,-448
1512180673,0.0033,0.0063,0.2184,-72.39,14.65,990.72,-240,532,-448
1512180673,-0.0294,-0.0015,0.2131,-104.55,5.19,1008.12,-240,532,-448
1512180673,-0.0056,-0.0533,0.2250,-80.75,40.59,974.67,-231,530,-436
1512180673,-0.0051,0.0383,0.2169,-92.53,47.61,971.37,-231,530,-436
1512180673,-0.0085,-0.0579,0.2232,-79.28,23.80,1080.99,-231,530,-436
1512180673,-0.0439,-0.0605,0.2285,-107.48,-12.45,931.64,-231,530,-436
1512180673,-0.0072,0.0138,0.2234,-69.58,-35.58,993.84,-240,539,-448
1512180673,-0.0249,-0.0526,0.2314,-80.26,9.70,964.66,-240,539,-448
1512180673,0.0254,0.0309,0.2208,-45.41,-0.31,998.05,-240,539,-448
1512180673,0.0111,-0.0265,0.2228,-79.22,-4.82,1029.48,-240,539,-448
1512180673,0.0067,0.0154,0.2196,-92.22,-8.18,1032.96,-240,539,-448
1512180673,-0.0533,0.0021,0.2158,-42.05,-12.27,1003.72,-233,532,-441
1512180673,-0.0329,0.0334,0.2170,-75.26,-4.39,1033.75,-233,532,-441
1512180673,-0.0634,-0.0180,0.2154,-112.79,24.60,916.56,-233,532,-441
1512180673,-0.0455,0.0133,0.2197,-71.53,-2.32,1018.86,-233,532,-441
1512180673,0.0246,-0.0113,0.2172,-80.14,29.05,1036.80,-233,532,-441
1512180673,0.0142,-0.0309,0.2186,-33.87,33.20,993.77,-235,513,-433
1512180673,0.0290,-0.0085,0.2160,-75.20,26.79,983.15,-235,513,-433
1512180673,-0.0073,-0.0330,0.2105,-62.62,20.81,974.67,-235,513,-433
1512180673,0.0390,0.0312,0.2144,-74.04,-2.87,1038.09,-235,513,-433
1512180673,-0.0378,0.0037,0.2135,-83.37,16.72,963.62,-245,513,-429
1512180673,-0.0511,0.0262,0.2039,-48.28,14.10,951.23,-245,513,-429
1512180673,-0.0465,0.0814,0.2083,-75.20,6.90,1007.39,-245,513,-429
1512180673,-0.0192,-0.0172,0.2109,-52.61,13.24,1026.92,-245,513,-429
1512180673,-0.0035,0.0494,0.2128,-87.83,55.24,971.80,-245,513,-429
1512180673,-0.0248,0.0027,0.2037,-90.88,14.95,1051.64,-253,498,-457
1512180673,-0.0449,-0.0153,0.2091,-99.85,-2.81,984.74,-253,498,-457
1512180674,-0.0707,0.0209,0.2068,-90.21,34.91,1004.76,-253,498,-457
1512180674,-0.0491,-0.0104,0.2064,-45.96,6.29,1039.31,-253,498,-457
1512180674,-0.0310,0.0479,0.2055,-69.52,-14.71,974.85,-247,507,-445
1512180674,-0.0220,-0.0052,0.2021,-55.42,9.16,962.65,-247,507,-445
1512180674,-0.0036,0.0727,0.1952,-66.89,-16.24,1033.69,-247,507,-445
1512180674,-0.0316,-0.0344,0.1979,-54.02,0.73,985.29,-247,507,-445
1512180674,-0.0040,0.0969,0.1947,-82.21,10.56,971.86,-247,507,-445
1512180674,-0.0385,-0.0360,0.1984,-94.85,13.98,1010.25,-242,491,-433
1512180674,0.0242,0.0852,0.1941,-81.48,52.25,996.03,-242,491,-433
1512180674,-0.0011,-0.0583,0.2015,-106.57,46.33,1023.01,-242,491,-433
1512180674,-0.0019,0.0293,0.1933,-80.38,48.46,961.61,-242,491,-433
1512180674,0.0039,-0.0198,0.1939,-83.01,60.18,1040.16,-242,491,-433
1512180674,-0.0099,-0.0005,0.1915,-121.46,-10.50,962.40,-254,483,-445
1512180674,-0.0706,0.0003,0.1883,-50.35,18.86,1038.09,-254,483,-445
1512180674,0.0427,0.0329,0.1945,-72.39,31.68,1024.96,-254,483,-445
1512180674,-0.0301,-0.0419,0.1925,-66.28,-9.03,992.68,-254,483,-445
1512180674,-0.0252,0.0535,0.1822,-55.18,28.75,1001.89,-258,486,-435
1512180674,-0.0609,-0.0413,0.1883,-70.80,0.00,1045.65,-258,486,-435
1512180674,-0.0321,0.0248,0.1792,-78.86,-13.73,982.42,-258,486,-435
1512180674,-0.0413,0.0188,0.1759,-48.77,21.79,1019.59,-258,486,-435
1512180674,0.0439,-0.0012,0.1779,-67.99,-8.24,1024.05,-258,486,-435
1512180674,-0.0820,-0.0088,0.1759,-88.01,12.21,932.37,-254,472,-448
1512180674,0.0168,0.0430,0.1708,-87.40,34.00,1080.69,-254,472,-448
1512180674,-0.0814,-0.0113,0.1676,-80.57,-0.61,953.98,-254,472,-448
1512180674,-0.0856,0.0599,0.1639,-53.41,2.75,1030.70,-254,472,-448
1512180674,0.0348,0.0128,0.1678,-56.46,63.60,1027.71,-254,472,-448
1512180674,-0.0079,0.0164,0.1655,-61.16,19.23,988.53,-263,474,-446
1512180674,0.0361,0.0037,0.1555,-108.03,51.64,1017.40,-263,474,-446
1512180674,0.0381,-0.0305,0.1522,-101.68,65.43,948.61,-263,474,-446
1512180674,0.0583,0.0455,0.1454,-127.20,67.99,997.01,-263,474,-446
1512180674,0.0084,-0.0080,0.1372,-90.64,46.81,951.29,-256,484,-436
1512180674,0.0340,0.0630,0.1384,-98.08,41.93,1012.94,-256,484,-436
1512180674,-0.0117,0.0441,0.1314,-75.99,40.77,1013.37,-256,484,-436
1512180674,-0.0214,0.0091,0.1354,-58.96,45.47,1015.01,-256,484,-436
1512180674,-0.0206,0.0678,0.1328,-94.12,45.65,998.41,-256,484,-436
1512180674,-0.0312,-0.0301,0.1340,-95.89,71.53,1021.24,-258,465,-445
1512180674,0.0242,0.0422,0.1326,-107.18,81.97,991.70,-258,465,-445
1512180675,0.0185,-0.0081,0.1236,-96.19,94.91,1032.84,-258,465,-445
1512180675,0.0499,0.0197,0.1196,-95.03,101.87,1001.04,-258,465,-445
1512180675,0.0712,0.0226,0.1153,-101.20,93.02,1038.21,-258,465,-445
1512180675,-0.0148,0.0005,0.1077,-83.25,69.89,998.78,-268,475,-435
1512180675,-0.0016,0.0280,0.1063,-89.23,68.73,1019.71,-268,475,-435
1512180675,-0.0482,-0.0017,0.1071,-78.67,53.77,954.71,-268,475,-435
1512180675,0.0095,0.0527,0.1095,-40.16,70.25,1000.06,-268,475,-435
1512180675,0.0305,0.0009,0.1150,-69.82,27.47,1014.22,-265,451,-451
1512180675,-0.0622,-0.0286,0.1161,-67.44,52.06,929.26,-265,451,-451
1512180675,0.0134,0.0302,0.1133,-77.21,67.14,1038.33,-265,451,-451
1512180675,0.0313,-0.0140,0.1139,-73.55,62.68,1037.96,-265,451,-451
1512180675,-0.0072,0.0184,0.1079,-82.34,52.25,1018.92,-265,451,-451
1512180675,-0.0517,0.0045,0.1107,-76.23,59.57,1019.84,-254,458,-451
1512180675,-0.0361,0.0333,0.1045,-61.22,21.24,1011.29,-254,458,-451
1512180675,-0.0830,-0.0109,0.1100,-77.82,33.20,960.57,-254,458,-451
1512180675,-0.0534,0.0589,0.1043,-79.16,54.08,1028.02,-254,458,-451
1512180675,-0.0269,-0.0410,0.1061,-99.43,73.49,1036.50,-254,468,-441
1512180675,-0.0023,0.0145,0.1037,-91.13,79.10,968.81,-254,468,-441
1512180675,-0.0100,-0.0213,0.1079,-81.79,52.25,1023.07,-254,468,-441
1512180675,-0.0116,0.0000,0.1003,-68.24,30.82,932.37,-254,468,-441
1512180675,-0.0041,0.0089,0.1001,-46.02,27.16,973.57,-254,468,-441
1512180675,0.0451,0.0019,0.1045,-54.57,75.81,969.36,-267,463,-450
1512180675,0.0477,0.0052,0.0956,-71.23,65.06,1023.86,-267,463,-450
1512180675,0.0286,-0.0160,0.0961,-79.90,92.41,1017.76,-267,463,-450
1512180675,0.0164,0.0112,0.0985,-84.59,86.36,1060.79,-267,463,-450
1512180675,0.0072,-0.0091,0.0945,-70.68,51.33,1012.82,-267,463,-450
1512180675,0.0430,0.0286,0.0949,-50.90,65.06,1024.41,-247,465,-431
1512180675,0.0399,0.0055,0.0905,-86.36,45.72,1034.73,-247,465,-431
1512180675,-0.0356,-0.0229,0.0928,-100.28,77.94,992.13,-247,465,-431
1512180675,0.0085,0.0051,0.0883,-79.28,76.05,1011.84,-247,465,-431
1512180675,-0.0360,-0.0358,0.0875,-87.77,51.76,940.67,-247,451,-441
1512180675,-0.0204,0.0205,0.0806,-34.73,62.62,919.98,-247,451,-441
1512180675,-0.0285,0.0313,0.0790,-69.89,38.09,953.06,-247,451,-441
1512180675,-0.0060,0.0237,0.0792,-64.09,97.05,1007.08,-247,451,-441
1512180675,-0.0148,0.0253,0.0748,-80.69,74.28,987.00,-247,451,-441
1512180675,-0.0305,-0.0103,0.0842,-76.42,89.42,1065.61,-244,451,-435
1512180675,-0.0439,0.0254,0.0800,-83.07,81.36,1006.29,-244,451,-435
1512180675,-0.0487,-0.0377,0.0811,-70.92,72.81,1074.04,-244,451,-435
1512180676,-0.0715,-0.0075,0.0820,-84.72,61.83,1023.38,-244,451,-435
1512180676,-0.0965,0.0028,0.0768,-98.69,58.65,1019.04,-244,451,-435
1512180676,0.0101,-0.0810,0.0830,-65.25,67.57,995.12,-256,456,-443
1512180676,-0.0722,0.0165,0.0767,-47.73,39.12,967.96,-256,456,-443
1512180676,-0.1214,-0.0534,0.0791,-77.27,46.88,964.97,-256,456,-443
1512180676,-0.0152,0.0208,0.0772,-68.73,66.89,955.51,-256,456,-443
1512180676,-0.0225,-0.0731,0.0723,-83.86,56.76,1000.06,-242,435,-443
1512180676,0.0004,-0.0063,0.0772,-69.40,76.17,967.10,-242,435,-443
1512180676,0.0008,0.0044,0.0696,-54.57,43.82,998.90,-242,435,-443
1512180676,0.0309,0.0193,0.0720,-50.78,54.44,1014.83,-242,435,-443
1512180676,-0.0346,0.0651,0.0670,-60.55,18.68,1019.47,-242,435,-443
1512180676,-0.0579,-0.0081,0.0668,-56.46,54.81,1029.05,-249,442,-440
1512180676,-0.0391,0.0462,0.0668,-75.99,51.15,1015.20,-249,442,-440
1512180676,-0.0178,-0.0258,0.0712,-105.16,106.69,1065.67,-249,442,-440
1512180676,-0.0152,-0.0146,0.0667,-77.94,101.26,977.29,-249,442,-440
1512180676,0.0047,-0.0164,0.0668,-87.04,84.72,1057.01,-249,442,-440
1512180676,-0.0201,-0.0249,0.0606,-85.33,49.13,975.52,-245,456,-440
1512180676,0.0115,0.0257,0.0598,-70.25,86.18,1033.69,-245,456,-440
1512180676,0.0310,-0.0162,0.0561,-93.63,39.25,971.44,-245,456,-440
1512180676,-0.0417,0.0073,0.0589,-83.86,33.08,919.25,-245,456,-440
1512180676,0.0577,0.0357,0.0569,-66.41,41.02,995.61,-244,444,-438
1512180676,0.0197,-0.0329,0.0658,-99.06,55.66,951.66,-244,444,-438
1512180676,0.0185,0.0185,0.0633,-116.21,63.11,994.87,-244,444,-438
1512180676,-0.0169,-0.0362,0.0672,-101.62,86.91,956.24,-244,444,-438
1512180676,0.0362,0.0517,0.0658,-122.80,82.21,1053.89,-244,444,-438
1512180676,-0.0064,-0.0292,0.0646,-130.92,96.62,1022.16,-244,437,-451
1512180676,0.0414,0.0075,0.0613,-130.86,90.64,1049.07,-244,437,-451
1512180676,0.0076,-0.0212,0.0570,-131.53,66.16,1041.56,-244,437,-451
1512180676,-0.0426,-0.0387,0.0566,-131.10,72.57,1015.56,-244,437,-451
1512180676,-0.0185,-0.0257,0.0575,-139.40,53.59,969.79,-247,430,-445
1512180676,-0.0154,0.0134,0.0498,-104.68,19.41,953.98,-247,430,-445
1512180676,0.0180,-0.0182,0.0533,-97.72,21.24,936.83,-247,430,-445
1512180676,0.0333,0.0411,0.0550,-117.61,28.87,974.43,-247,430,-445
1512180676,-0.0430,-0.0233,0.0539,-93.57,43.46,1009.40,-247,430,-445
1512180676,-0.0353,0.0095,0.0599,-120.54,75.32,1010.68,-231,428,-440
1512180676,-0.0252,-0.0461,0.0599,-116.09,93.20,1015.93,-231,428,-440
1512180676,0.0012,-0.0001,0.0518,-94.67,55.97,994.02,-231,428,-440
1512180676,0.0087,0.0067,0.0515,-93.57,42.11,1019.04,-231,428,-440
1512180677,-0.0039,0.0107,0.0519,-76.66,28.99,981.32,-231,428,-440
1512180677,-0.0009,0.0023,0.0482,-77.88,22.95,1015.14,-242,442,-443
1512180677,0.0228,0.0285,0.0522,-99.24,46.02,969.48,-242,442,-443
1512180677,-0.0008,0.0092,0.0509,-114.26,49.56,1001.71,-242,442,-443
1512180677,0.0578,0.0320,0.0559,-121.70,75.62,1067.44,-242,442,-443
1512180677,-0.0180,-0.0214,0.0561,-111.33,81.85,1000.73,-240,430,-438
1512180677,-0.0068,0.0025,0.0585,-111.21,57.68,1020.14,-240,430,-438
1512180677,-0.0178,-0.0188,0.0561,-97.72,79.41,984.50,-240,430,-438
1512180677,-0.0358,-0.0278,0.0494,-132.45,24.17,922.61,-240,430,-438
1512180677,0.0270,0.0213,0.0399,-54.38,31.25,918.46,-240,430,-438
1512180677,0.0418,0.0505,0.0395,-88.20,-3.23,987.24,-251,426,-441
1512180677,-0.0153,0.0277,0.0401,-79.04,26.73,988.77,-251,426,-441
1512180677,-0.0372,0.0557,0.0503,-115.97,58.23,1001.53,-251,426,-441
1512180677,-0.0260,0.0206,0.0510,-140.99,76.23,998.66,-251,426,-441
1512180677,-0.0052,-0.0145,0.0571,-108.58,111.76,980.83,-254,423,-431
1512180677,0.0554,0.0282,0.0575,-118.16,79.28,1010.13,-254,423,-431
1512180677,0.0063,-0.0401,0.0577,-119.63,80.08,1057.13,-254,423,-431
1512180677,-0.0202,-0.0587,0.0589,-136.47,42.30,961.18,-254,423,-431
1512180677,0.0108,0.0089,0.0509,-89.48,80.14,1026.31,-254,423,-431
1512180677,0.0904,-0.0441,0.0529,-76.48,52.31,1007.20,-228,417,-436
1512180677,-0.0385,0.0201,0.0490,-87.22,19.96,969.73,-228,417,-436
1512180677,-0.0121,0.0145,0.0442,-41.38,30.64,1022.77,-228,417,-436
1512180677,-0.0345,0.0172,0.0558,-74.77,40.89,1013.92,-228,417,-436
1512180677,-0.0947,0.0063,0.0546,-86.43,36.01,976.32,-228,417,-436
1512180677,-0.0443,0.0044,0.0643,-91.37,59.27,1035.22,-231,428,-446
1512180677,-0.0370,-0.0127,0.0676,-106.69,50.23,973.69,-231,428,-446
1512180677,-0.0120,-0.0031,0.0602,-104.80,25.02,972.84,-231,428,-446
1512180677,0.0245,0.0015,0.0640,-82.09,51.64,968.14,-231,428,-446
1512180677,0.0373,0.0370,0.0578,-63.72,20.51,995.85,-242,414,-429
1512180677,-0.0280,-0.0289,0.0601,-79.16,-2.14,968.32,-242,414,-429
1512180677,0.0361,0.0193,0.0522,-35.22,81.97,977.84,-242,414,-429
1512180677,0.0688,-0.0003,0.0648,-56.46,72.45,1049.19,-242,414,-429
1512180677,0.0105,-0.0001,0.0565,-33.51,97.41,982.42,-242,414,-429
1512180677,0.0130,0.0011,0.0638,-83.07,100.65,1058.78,-249,414,-446
1512180677,0.0515,-0.0096,0.0599,-91.98,71.59,1014.77,-249,414,-446
1512180677,0.0012,-0.0047,0.0660,-100.40,62.56,1010.80,-249,414,-446
1512180677,0.0298,-0.0125,0.0625,-70.13,52.19,995.12,-249,414,-446
1512180677,0.0120,0.0164,0.0614,-58.90,25.76,995.67,-249,414,-446
1512180678,0.0196,0.0156,0.0629,-65.00,9.09,1025.39,-249,421,-440
1512180678,-0.0197,0.0043,0.0630,-51.27,29.72,962.59,-249,421,-440
1512180678,-0.0088,-0.0056,0.0635,-83.98,58.96,988.40,-249,421,-440
1512180678,-0.0190,0.0056,0.0675,-67.69,81.48,954.10,-249,421,-440
1512180678,0.0149,0.0056,0.0668,-68.73,70.80,998.17,-249,421,-440
1512180678,0.0487,0.0365,0.0714,-53.59,72.63,1004.09,-245,428,-450
1512180678,0.0284,0.0210,0.0700,-90.45,89.90,1011.17,-245,428,-450
1512180678,0.0218,-0.0025,0.0694,-81.79,63.05,971.98,-245,428,-450
1512180678,0.0566,0.0073,0.0687,-110.23,113.04,1018.25,-245,428,-450
1512180678,0.0726,-0.0075,0.0674,-105.77,82.03,1007.26,-245,428,-436
1512180678,0.0458,-0.0019,0.0656,-82.40,119.69,1039.98,-245,428,-436
1512180678,0.0097,0.0093,0.0639,-95.95,68.97,1011.17,-245,428,-436
1512180678,-0.0438,0.0096,0.0646,-67.75,55.11,968.87,-245,428,-436
1512180678,0.0268,0.0229,0.0646,-86.36,90.88,1017.03,-245,428,-436
1512180678,-0.0507,-0.0268,0.0651,-71.04,81.12,949.71,-247,444,-438
1512180678,-0.0152,0.0455,0.0634,-58.65,59.33,989.69,-247,444,-438
1512180678,-0.0005,-0.0220,0.0694,-29.05,37.05,1009.22,-247,444,-438
1512180678,-0.0336,0.0353,0.0691,-75.26,29.79,969.91,-247,444,-438
1512180678,-0.0417,0.0096,0.0674,-60.97,37.05,986.63,-245,414,-436
1512180678,0.0048,0.0390,0.0679,-67.87,40.95,946.23,-245,414,-436
1512180678,-0.0109,0.0009,0.0696,-68.36,74.65,995.91,-245,414,-436
1512180678,-0.0308,-0.0141,0.0723,-85.39,57.56,929.32,-245,414,-436
1512180678,-0.0226,0.0523,0.0720,-80.08,94.24,1024.48,-245,414,-436
1512180678,0.0308,0.0027,0.0751,-86.79,79.04,995.91,-242,424,-443
1512180678,0.0246,0.0226,0.0734,-98.21,59.88,959.72,-242,424,-443
1512180678,-0.0021,0.0308,0.0674,-59.20,14.53,965.52,-242,424,-443
1512180678,0.0625,0.0145,0.0723,-85.57,70.68,986.57,-242,424,-443
1512180678,0.0386,-0.0005,0.0691,-76.48,61.89,937.19,-242,424,-443
1512180678,-0.0332,-0.0105,0.0686,-90.09,62.81,950.74,-249,403,-450
1512180678,-0.0048,-0.0021,0.0712,-78.55,52.73,939.94,-249,403,-450
1512180678,0.0342,0.0045,0.0772,-98.63,80.81,983.70,-249,403,-450
1512180678,-0.0244,-0.0101,0.0791,-83.37,43.03,899.11,-249,403,-450
1512180678,0.0433,0.0551,0.0731,-37.66,50.35,1015.14,-251,398,-438
1512180678,0.0880,-0.0096,0.0743,-57.31,60.55,1062.32,-251,398,-438
1512180678,0.0344,-0.0011,0.0728,-54.69,60.97,1017.58,-251,398,-438
1512180678,0.0290,-0.0032,0.0771,-53.34,47.30,1057.92,-251,398,-438
1512180678,-0.0017,0.0020,0.0778,-85.27,74.58,1000.92,-251,398,-438
1512180679,-0.0736,-0.0378,0.0838,-62.87,51.33,955.87,-253,400,-453
1512180679,-0.0204,0.0483,0.0924,-119.93,67.38,996.03,-253,400,-453
1512180679,0.0065,-0.0360,0.0931,-107.24,70.74,988.40,-253,400,-453
1512180679,0.0418,-0.0186,0.1005,-94.79,69.76,997.50,-253,400,-453
1512180679,0.0100,-0.0129,0.0949,-91.49,66.04,965.45,-253,400,-453
1512180679,-0.0230,-0.0253,0.0952,-68.42,36.01,998.41,-253,396,-440
1512180679,-0.0293,-0.0240,0.1052,-105.47,62.50,961.98,-253,396,-440
1512180679,-0.0222,-0.0101,0.0989,-56.88,41.32,1000.79,-253,396,-440
1512180679,0.0252,-0.0043,0.1088,-52.19,42.85,1056.46,-253,396,-440
1512180679,0.0015,-0.0089,0.1080,-60.61,-18.19,1024.11,-251,398,-441
1512180679,-0.0433,-0.0413,0.1119,-40.16,10.80,961.55,-251,398,-441
1512180679,0.0189,0.0389,0.1188,-68.24,25.63,1028.32,-251,398,-441
1512180679,0.0386,-0.0483,0.1266,-66.59,40.59,1016.97,-251,398,-441
1512180679,0.0478,0.0052,0.1294,-71.84,61.40,989.01,-251,398,-441
1512180679,0.0644,-0.0084,0.1322,-68.66,75.62,1016.30,-261,380,-441
1512180679,0.0968,0.0387,0.1246,-36.68,35.34,1065.80,-261,380,-441
1512180679,0.0672,-0.0129,0.1292,-52.12,-5.68,1059.08,-261,380,-441
1512180679,0.0089,0.0225,0.1362,-65.12,-11.35,949.04,-261,380,-441
1512180679,-0.0344,-0.0049,0.1421,-123.78,6.77,939.64,-260,382,-443
1512180679,-0.0361,0.0393,0.1423,-116.27,65.06,935.67,-260,382,-443
1512180679,-0.0161,-0.0262,0.1473,-84.66,56.27,993.59,-260,382,-443
1512180679,0.0033,0.0642,0.1465,-68.91,2.44,981.02,-260,382,-443
1512180679,-0.0443,-0.0164,0.1627,-68.36,21.97,1032.84,-260,382,-443
1512180679,-0.0015,0.0559,0.1585,-31.92,28.44,1043.27,-254,380,-448
1512180679,-0.0389,0.0099,0.1606,-59.75,36.01,1096.80,-254,380,-448
1512180679,-0.0084,-0.0293,0.1633,-33.51,0.18,1003.78,-254,380,-448
1512180679,0.0494,0.0378,0.1654,-70.13,12.33,1112.12,-254,380,-448
1512180679,0.0115,-0.0622,0.1771,-75.01,55.48,991.58,-254,380,-448
1512180679,0.0080,0.0808,0.1784,-29.11,21.18,1078.06,-238,371,-436
1512180679,-0.0325,-0.0507,0.1903,-66.53,18.74,977.78,-238,371,-436
1512180679,-0.0399,0.0113,0.1871,-55.54,32.78,944.82,-238,371,-436
1512180679,0.0659,-0.0027,0.2024,-62.19,36.99,1009.03,-238,371,-436
1512180679,0.0238,0.0150,0.2024,-43.33,31.56,975.16,-237,363,-441
1512180679,0.0261,0.0016,0.2055,-69.21,23.99,1037.23,-237,363,-441
1512180679,0.0248,0.0671,0.2156,-74.34,-19.17,1032.84,-237,363,-441
1512180679,-0.0389,-0.0244,0.2182,-44.01,8.12,954.83,-237,363,-441
1512180679,0.0577,0.0405,0.2200,-65.25,17.88,1032.53,-237,363,-441
1512180679,0.0133,0.0257,0.2097,-64.70,48.58,992.61,-249,364,-446
1512180680,0.0421,0.0236,0.2182,-98.27,11.17,986.88,-249,364,-446
1512180680,0.0909,0.0321,0.2173,-134.89,55.48,917.85,-249,364,-446
1512180680,0.0921,0.0407,0.2225,-64.76,36.93,1111.15,-249,364,-446
1512180680,0.0824,0.0298,0.2162,-35.28,38.57,1045.53,-249,364,-446
1512180680,0.0748,0.0224,0.2232,-42.91,33.51,1104.98,-242,368,-440
1512180680,0.0241,0.0117,0.2151,-55.79,43.82,998.11,-242,368,-440
1512180680,-0.0146,-0.0145,0.2156,-48.89,34.12,1042.91,-242,368,-440
1512180680,-0.0013,0.0333,0.2252,-100.71,56.70,1028.20,-242,368,-440
1512180680,-0.0832,0.0064,0.2258,-87.28,10.86,984.13,-219,366,-455
1512180680,-0.0798,-0.0015,0.2345,-65.12,6.53,953.31,-219,366,-455
1512180680,-0.0337,0.0691,0.2309,-67.69,13.06,958.07,-219,366,-455
1512180680,-0.0091,-0.0493,0.2400,-63.48,6.35,1002.14,-219,366,-455
1512180680,-0.0364,0.0266,0.2447,-23.38,-24.11,997.07,-219,366,-455
1512180680,-0.0587,-0.0525,0.2517,-16.60,-44.98,1055.24,-231,350,-433
1512180680,-0.0740,0.0156,0.2581,-21.85,-28.44,951.29,-231,350,-433
1512180680,-0.0253,-0.0144,0.2554,-30.15,-8.18,1043.95,-231,350,-433
1512180680,-0.0820,0.0092,0.2543,-18.19,-21.42,963.38,-231,350,-433
1512180680,0.0557,-0.0130,0.2631,-20.75,-10.13,1084.59,-231,350,-433
1512180680,0.0494,0.0027,0.2639,-57.56,33.51,990.30,-210,343,-436
1512180680,-0.0007,-0.0344,0.2692,-25.70,-14.16,952.21,-210,343,-436
1512180680,0.0478,0.0417,0.2706,-73.43,-19.17,979.49,-210,343,-436
1512180680,-0.0390,-0.0640,0.2674,-27.95,-41.38,981.63,-210,343,-436
1512180680,-0.0193,0.0324,0.2827,-59.69,-22.58,1026.49,-209,331,-438
1512180680,-0.0310,0.0325,0.2731,-24.48,-18.31,1045.35,-209,331,-438
1512180680,-0.0152,-0.0306,0.2787,-33.02,-20.02,1030.94,-209,331,-438
1512180680,-0.0300,0.0742,0.2760,-41.99,-55.48,995.00,-209,331,-438
1512180680,-0.0523,0.0545,0.2670,-81.36,-51.64,1072.88,-209,331,-438
1512180680,-0.0634,0.0246,0.2699,-22.22,-105.22,973.51,-207,350,-443
1512180680,-0.0481,0.1678,0.2770,-59.94,-62.93,1064.58,-207,350,-443
1512180680,-0.1170,0.0189,0.2715,-41.02,-56.15,1037.05,-207,350,-443
1512180680,-0.0862,0.0939,0.2779,-32.29,-17.76,1056.15,-207,350,-443
1512180680,-0.0495,0.0551,0.2818,-64.27,-58.84,1064.27,-205,331,-451
1512180680,-0.0708,0.0242,0.2816,-15.08,-10.99,989.69,-205,331,-451
1512180680,-0.0192,-0.0035,0.2858,-60.55,-20.51,1049.01,-205,331,-451
1512180680,-0.0441,0.0368,0.2814,-29.85,40.95,1018.31,-205,331,-451
1512180680,-0.0802,-0.0742,0.2870,-29.72,40.41,1009.09,-205,331,-451
1512180680,-0.0177,0.0550,0.2808,-68.60,20.87,958.74,-203,326,-446
1512180680,-0.0964,-0.0442,0.2730,-41.44,-4.21,992.92,-203,326,-446
1512180681,-0.0567,0.0844,0.2662,-109.86,0.43,974.37,-203,326,-446
1512180681,-0.1256,-0.0879,0.2786,-21.91,24.90,941.83,-203,326,-446
1512180681,-0.0113,0.1168,0.2759,-55.18,21.79,951.60,-203,326,-446
1512180681,-0.0029,-0.0862,0.2864,-21.67,36.19,1023.56,-202,324,-435
1512180681,0.0541,0.0724,0.2792,-9.40,6.47,969.91,-202,324,-435
1512180681,-0.0558,0.0005,0.2886,-51.82,-0.79,1051.33,-202,324,-435
1512180681,-0.0591,-0.0027,0.2900,9.52,-58.17,932.01,-202,324,-435
1512180681,-0.0197,0.0517,0.2882,-39.31,-64.03,1016.05,-184,313,-445
1512180681,-0.0634,-0.0429,0.2971,-80.44,-53.83,906.25,-184,313,-445
1512180681,-0.0719,0.0935,0.2900,-3.05,-1.65,1021.06,-184,313,-445
1512180681,-0.0352,-0.0213,0.2977,-31.56,-85.94,1056.03,-184,313,-445
1512180681,-0.0278,0.0112,0.2995,-5.25,-43.21,992.61,-184,313,-445
1512180681,0.0329,0.0578,0.2908,-38.45,-34.55,1059.94,-173,306,-441
1512180681,0.0228,-0.0254,0.2921,-22.40,-61.10,1005.98,-173,306,-441
1512180681,-0.0212,0.0495,0.2876,-45.84,-58.65,1003.66,-173,306,-441
1512180681,-0.0345,-0.0607,0.2904,-41.38,-46.57,1044.07,-173,306,-441
1512180681,0.0221,0.0256,0.2977,-46.81,-16.60,929.57,-173,306,-441
1512180681,-0.0391,0.0278,0.2915,-14.53,-64.70,1040.53,-180,303,-431
1512180681,-0.0619,0.0144,0.2969,-53.89,-51.88,938.11,-180,303,-431
1512180681,-0.0465,0.0543,0.2933,-4.15,1.22,975.28,-180,303,-431
1512180681,0.0839,0.0262,0.2997,-50.23,-9.03,1056.88,-180,303,-431
1512180681,-0.0154,-0.0024,0.2933,-11.72,-30.82,989.44,-175,301,-440
1512180681,0.0244,0.0555,0.2928,-40.65,-31.98,1005.80,-175,301,-440
1512180681,0.0087,-0.0232,0.2923,-37.72,-17.15,990.42,-175,301,-440
1512180681,0.0838,0.0112,0.2975,-54.50,-5.19,1015.69,-175,301,-440
1512180681,-0.0273,-0.0499,0.2977,-13.55,-48.34,920.35,-175,301,-440
1512180681,0.0317,0.0523,0.3004,-78.31,18.37,1049.74,-179,301,-440
1512180681,0.0249,0.0061,0.2860,-12.76,-7.87,988.46,-179,301,-440
1512180681,0.0491,0.0696,0.2989,7.02,-35.28,1078.74,-179,301,-440
1512180681,-0.0294,0.0053,0.2991,-23.25,-79.53,988.04,-179,301,-440
1512180681,-0.1356,-0.0419,0.3043,-36.25,-33.57,942.87,-179,301,-440
1512180681,0.0349,0.0631,0.3036,-42.72,-47.00,984.99,-170,292,-431
1512180681,-0.0224,-0.0578,0.3048,-54.26,0.61,1023.93,-170,292,-431
1512180681,-0.0120,-0.0202,0.2984,-48.71,-0.43,906.25,-170,292,-431
1512180681,-0.0052,0.0921,0.2911,1.10,-17.33,1058.41,-170,292,-431
1512180681,-0.0174,-0.0483,0.2948,-7.81,-21.67,1045.23,-161,297,-446
1512180681,-0.0586,0.0348,0.2947,-39.73,-67.20,978.58,-161,297,-446
1512180681,-0.0433,-0.0052,0.2945,-24.60,-28.14,1011.23,-161,297,-446
1512180682,-0.0586,0.0108,0.2864,-4.94,-37.48,961.98,-161,297,-446
1512180682,0.0321,-0.0138,0.2984,-36.13,-1.95,1015.44,-161,297,-446
1512180682,0.0031,0.0527,0.2847,-9.52,-31.13,974.91,-156,296,-424
1512180682,-0.0297,-0.0156,0.2906,-23.62,-6.53,1010.07,-156,296,-424
1512180682,-0.0024,0.0410,0.2866,-59.57,-42.60,913.76,-156,296,-424
1512180682,-0.0258,0.0288,0.2850,-47.18,21.61,1047.30,-156,296,-424
1512180682,0.0266,-0.0194,0.2915,-36.87,-13.92,970.46,-156,296,-424
1512180682,-0.0077,-0.0079,0.2867,-27.83,-27.89,969.67,-147,287,-443
1512180682,-0.0097,-0.0284,0.2890,-64.03,35.34,954.16,-147,287,-443
1512180682,-0.0100,0.0328,0.2775,-47.61,20.51,1015.50,-147,287,-443
1512180682,0.0390,-0.0294,0.2810,-29.91,23.68,972.23,-147,287,-443
1512180682,0.0108,0.0282,0.2703,-42.60,-0.49,999.08,-145,260,-431
1512180682,-0.0626,-0.0313,0.2736,-49.74,-14.34,976.81,-145,260,-431
1512180682,-0.0096,0.0475,0.2744,-25.76,9.77,1056.15,-145,260,-431
1512180682,-0.0332,-0.0301,0.2676,-42.97,-60.30,1052.98,-145,260,-431
1512180682,-0.0535,0.0152,0.2695,-31.07,7.87,1001.65,-145,260,-431
1512180682,-0.0387,0.0180,0.2684,-16.66,-77.64,1029.48,-131,264,-455
1512180682,-0.0401,-0.0020,0.2715,-9.46,-25.39,949.40,-131,264,-455
1512180682,-0.0073,0.0352,0.2738,-10.31,16.05,963.20,-131,264,-455
1512180682,-0.0069,0.0293,0.2653,-5.49,38.88,996.28,-131,264,-455
1512180682,0.0150,0.0164,0.2707,-21.97,8.00,938.35,-130,269,-433
1512180682,0.0294,0.0557,0.2739,0.12,-5.62,997.38,-130,269,-433
1512180682,-0.0349,0.0286,0.2690,-36.32,-1.04,1014.28,-130,269,-433
1512180682,-0.0008,-0.0196,0.2810,-1.16,34.85,1017.40,-130,269,-433
1512180682,0.0405,0.0683,0.2795,-91.37,19.84,1002.87,-130,269,-433
1512180682,-0.0325,-0.0233,0.2878,-31.19,45.23,997.44,-126,276,-443
1512180682,0.0571,0.0960,0.2795,-29.11,49.62,1049.26,-126,276,-443
1512180682,-0.0601,-0.0647,0.2810,-3.30,-4.15,974.06,-126,276,-443
1512180682,0.0583,0.0711,0.2768,-4.15,56.70,996.64,-126,276,-443
1512180682,0.0276,0.0069,0.2744,10.62,-11.60,1045.35,-126,276,-443
1512180682,-0.0374,0.0248,0.2775,23.50,0.12,988.89,-117,257,-458
1512180682,0.0044,0.0312,0.2804,-6.77,-1.83,1039.92,-117,257,-458
1512180682,-0.1248,0.0148,0.2838,-2.69,-30.21,915.22,-117,257,-458
1512180682,-0.0490,0.0731,0.2836,65.73,-7.32,998.17,-117,257,-458
1512180682,0.0288,0.0221,0.2984,5.92,12.76,1024.54,-112,276,-453
1512180682,-0.0752,0.0130,0.2999,23.13,-39.31,933.17,-112,276,-453
1512180682,-0.0278,0.0838,0.2917,35.34,33.75,962.77,-112,276,-453
1512180682,0.0863,0.0559,0.3057,2.38,-22.28,1090.45,-112,276,-453
1512180683,-0.0113,0.0176,0.3011,1.46,-2.50,1007.20,-112,276,-453
1512180683,0.0411,0.0691,0.3065,-4.39,58.78,1021.42,-100,278,-431
1512180683,0.0178,0.0040,0.3100,24.11,32.84,1027.95,-100,278,-431
1512180683,-0.0296,0.0276,0.3119,7.45,13.06,972.84,-100,278,-431
1512180683,0.0471,0.0165,0.3204,-14.04,58.41,1033.20,-100,278,-431
1512180683,0.0395,0.0206,0.3079,-5.98,75.74,979.92,-82,267,-458
1512180683,-0.0290,-0.0613,0.3229,0.06,-1.59,1015.50,-82,267,-458
1512180683,-0.0153,0.0462,0.3160,32.29,43.64,923.03,-82,267,-458
1512180683,0.0579,-0.0170,0.3293,-6.47,57.01,1054.93,-82,267,-458
1512180683,0.0539,0.0176,0.3265,32.35,25.21,969.36,-82,267,-458
1512180683,-0.0011,0.0068,0.3306,43.03,23.13,1053.77,-98,280,-443
1512180683,0.0915,0.0245,0.3349,22.28,10.99,1036.44,-98,280,-443
1512180683,-0.0105,-0.0161,0.3410,56.03,26.31,1004.21,-98,280,-443
1512180683,0.0538,-0.0289,0.3497,22.95,-7.93,1019.71,-98,280,-443
1512180683,0.0349,0.0065,0.3561,29.85,-0.67,988.16,-98,280,-443
1512180683,0.0590,-0.0092,0.3455,69.03,10.01,1066.96,-82,257,-441
1512180683,0.0575,0.0289,0.3601,42.36,16.36,1045.23,-82,257,-441
1512180683,-0.0917,-0.0067,0.3611,13.61,-1.40,964.29,-82,257,-441
1512180683,-0.0712,0.0555,0.3570,54.63,-0.61,966.06,-82,257,-441
1512180683,-0.0261,-0.0053,0.3619,1.22,-23.32,1008.48,-75,257,-438
1512180683,-0.0220,0.0497,0.3610,74.65,-10.19,956.30,-75,257,-438
1512180683,0.0085,0.0336,0.3760,39.31,2.56,1051.09,-75,257,-438
1512180683,0.0017,0.0246,0.3758,68.24,-3.05,985.23,-75,257,-438
1512180683,-0.0049,0.0302,0.3759,44.13,21.06,1066.96,-75,257,-438
1512180683,-0.0276,0.0028,0.3835,34.30,-33.57,1045.29,-68,267,-441
1512180683,-0.1001,0.0318,0.3762,35.40,6.04,977.17,-68,267,-441
1512180683,-0.0254,0.0093,0.3786,34.48,10.13,1046.88,-68,267,-441
1512180683,-0.0583,0.0411,0.3827,28.93,33.87,950.74,-68,267,-441
1512180683,0.0001,0.0403,0.3831,68.60,26.92,979.55,-68,267,-441
1512180683,0.0505,0.0710,0.3818,8.48,1.34,1055.36,-56,259,-450
1512180683,-0.0775,-0.0238,0.3751,21.06,7.20,959.78,-56,259,-450
1512180683,0.0044,0.0818,0.3842,32.10,47.85,1028.08,-56,259,-450
1512180683,-0.0501,0.0039,0.3890,9.64,19.23,988.16,-56,259,-450
1512180683,-0.0170,0.0186,0.3852,64.15,16.30,1016.78,-49,259,-440
1512180683,0.0009,0.0156,0.3953,20.75,14.22,1007.20,-49,259,-440
1512180683,-0.0879,0.0196,0.3951,15.50,14.22,979.06,-49,259,-440
1512180683,-0.0879,0.0312,0.3987,54.93,-18.31,1041.56,-49,259,-440
1512180684,-0.0553,0.0328,0.3989,23.07,-21.55,989.38,-49,259,-440
1512180684,-0.0368,0.0281,0.3956,79.90,1.53,1018.92,-26,250,-435
1512180684,0.0250,0.0075,0.4013,64.88,54.99,996.09,-26,250,-435
1512180684,0.0305,-0.0025,0.4007,41.56,41.32,973.02,-26,250,-435
1512180684,0.0109,0.0007,0.3957,47.24,43.52,984.68,-26,250,-435
1512180684,-0.0871,0.0237,0.4005,55.73,38.88,975.89,-26,250,-435
1512180684,0.0133,-0.0117,0.4077,-11.17,26.98,1013.24,-19,264,-441
1512180684,0.0386,0.0170,0.4091,53.22,18.80,1034.67,-19,264,-441
1512180684,-0.0453,0.0381,0.4044,108.22,3.72,1057.62,-19,264,-441
1512180684,-0.0270,-0.0277,0.4128,40.83,-3.78,1043.40,-19,264,-441
1512180684,-0.0138,0.0140,0.4037,79.35,26.49,1018.98,-10,262,-450
1512180684,-0.0688,0.0285,0.4000,111.57,-22.16,1029.05,-10,262,-450
1512180684,-0.0694,-0.0023,0.4156,-7.57,-30.76,1000.85,-10,262,-450
1512180684,-0.0995,0.0622,0.4057,115.11,-0.12,975.83,-10,262,-450
1512180684,0.0609,0.0036,0.4172,28.56,26.67,1024.96,-10,262,-450
1512180684,-0.0121,0.0256,0.4100,23.25,3.72,967.47,14,269,-426
1512180684,-0.0507,-0.0076,0.4107,58.11,11.17,1018.80,14,269,-426
1512180684,0.0586,0.0252,0.4165,3.23,123.78,993.10,14,269,-426
1512180684,0.0617,-0.0205,0.4153,13.85,45.53,969.91,14,269,-426
1512180684,0.0667,-0.0133,0.4080,18.31,79.65,1047.00,8,260,-431
1512180684,0.0268,0.0037,0.4145,4.03,37.11,1037.41,8,260,-431
1512180684,-0.0236,-0.0258,0.4036,21.24,48.10,987.85,8,260,-431
1512180684,0.0688,0.0140,0.4172,49.01,39.55,1040.95,8,260,-431
1512180684,-0.0075,0.0164,0.4012,26.43,25.27,982.12,8,260,-431
1512180684,-0.0700,0.0230,0.4031,22.03,38.15,996.09,38,283,-436
1512180684,-0.0234,0.0264,0.3995,41.56,-5.37,1015.44,38,283,-436
1512180684,-0.0394,-0.0108,0.4097,12.45,28.26,983.09,38,283,-436
1512180684,0.0643,0.0497,0.3957,57.37,28.38,1044.25,38,283,-436
1512180684,0.0044,-0.0955,0.4077,16.42,-5.00,937.50,38,283,-436
1512180684,-0.0294,0.0738,0.3927,31.25,-2.32,957.76,31,269,-423
1512180684,0.0228,-0.0499,0.4012,41.75,58.04,1021.79,31,269,-423
1512180684,0.0482,0.0790,0.4000,31.74,-14.77,961.55,31,269,-423
1512180684,0.0060,-0.0134,0.4023,32.53,1.22,1031.49,31,269,-423
1512180684,0.0426,0.0261,0.4080,2.14,49.01,976.07,45,269,-436
1512180684,-0.0205,0.0061,0.3995,30.94,29.66,996.77,45,269,-436
1512180684,0.0157,0.0222,0.4089,28.87,38.51,975.34,45,269,-436
1512180684,-0.0312,0.0069,0.4131,3.11,32.17,966.13,45,269,-436
1512180684,-0.0001,0.0329,0.4063,54.50,24.78,1001.65,45,269,-436
1512180685,-0.0362,-0.0115,0.4156,27.83,10.62,983.95,52,290,-423
1512180685,0.0245,0.0264,0.4099,68.73,66.04,983.03,52,290,-423
1512180685,0.0278,-0.0189,0.4091,41.56,16.85,1000.73,52,290,-423
1512180685,-0.0306,0.0656,0.4039,39.37,-7.14,982.12,52,290,-423
1512180685,-0.0686,-0.0168,0.4051,0.49,18.55,961.18,52,290,-423
1512180685,0.0346,0.0196,0.4064,-4.94,28.38,986.21,75,278,-438
1512180685,-0.0069,0.0075,0.4025,11.78,15.56,1017.94,75,278,-438
1512180685,-0.0148,-0.0145,0.4025,14.28,48.40,967.59,75,278,-438
1512180685,0.0037,0.0410,0.4004,24.54,34.24,1009.58,75,278,-438
1512180685,-0.0248,-0.0080,0.4052,-20.32,56.15,1034.24,86,282,-435
1512180685,0.0120,0.0016,0.4060,8.18,70.68,1015.26,86,282,-435
1512180685,-0.0336,-0.0212,0.4020,-78.92,21.24,935.97,86,282,-435
1512180685,-0.0209,-0.0115,0.4008,-8.12,58.17,1017.70,86,282,-435
1512180685,0.0372,0.0117,0.3918,-57.62,84.47,1006.41,86,282,-435
1512180685,0.0063,-0.0698,0.3931,29.30,28.81,989.93,72,292,-414
1512180685,0.0790,0.0509,0.3878,31.19,57.07,1100.83,72,292,-414
1512180685,0.0526,-0.0499,0.3908,-3.23,3.17,997.25,72,292,-414
1512180685,-0.0391,0.0031,0.3855,21.48,-11.66,970.58,72,292,-414
1512180685,-0.0449,0.0321,0.3872,33.14,31.19,1015.62,72,292,-414
1512180685,0.0035,-0.0290,0.3939,10.01,-29.91,1084.17,93,292,-418
1512180685,-0.0256,0.0423,0.3874,18.13,2.56,977.05,93,292,-418
1512180685,-0.0654,-0.0860,0.3900,24.23,14.83,986.45,93,292,-418
1512180685,-0.0112,0.0521,0.3810,53.53,47.06,957.95,93,292,-418
1512180685,-0.0732,-0.0706,0.3854,9.64,-31.74,1054.63,93,299,-428
1512180685,0.0059,0.0198,0.3807,-30.15,68.48,957.52,93,299,-428
1512180685,-0.0119,0.0157,0.3834,-34.42,23.13,1061.46,93,299,-428
1512180685,-0.0382,-0.0419,0.3824,-38.21,28.44,907.23,93,299,-428
1512180685,-0.0013,0.0738,0.3674,-6.29,-4.52,1014.28,93,299,-428
1512180685,0.0332,-0.0044,0.3716,31.86,6.41,997.68,105,304,-436
1512180685,0.0256,0.0105,0.3663,40.47,-18.62,984.62,105,304,-436
1512180685,-0.0172,0.0133,0.3674,40.34,5.55,994.57,105,304,-436
1512180685,-0.0670,0.0000,0.3732,52.49,-40.47,982.97,105,304,-436
1512180685,-0.0273,0.0883,0.3688,27.65,6.96,1025.45,105,304,-436
1512180685,-0.0467,-0.0141,0.3802,43.27,-37.84,941.28,101,304,-416
1512180685,-0.0200,0.0374,0.3739,22.64,-21.42,982.85,101,304,-416
1512180685,-0.0053,0.0204,0.3800,-73.24,25.33,944.15,101,304,-416
1512180685,-0.0083,-0.0091,0.3657,-28.93,14.16,994.32,101,304,-416
1512180685,0.0683,-0.0232,0.3732,-31.80,45.65,958.19,112,322,-413
1512180686,0.0740,0.0228,0.3651,-15.32,27.65,942.20,112,322,-413
1512180686,0.0257,0.0061,0.3614,-42.42,22.89,931.15,112,322,-413
1512180686,0.0470,-0.0182,0.3569,-10.93,8.12,957.15,112,322,-413
1512180686,0.0310,0.0230,0.3554,-27.04,-6.59,1063.05,112,322,-413
1512180686,0.0289,-0.0538,0.3651,-38.76,-33.94,996.28,119,333,-429
1512180686,-0.0213,0.0123,0.3543,-41.26,-15.32,942.63,119,333,-429
1512180686,0.0222,-0.0072,0.3695,39.49,-1.53,1070.19,119,333,-429
1512180686,-0.1313,0.0382,0.3590,-1.71,-63.60,1036.32,119,333,-429
1512180686,-0.0798,-0.0369,0.3780,28.32,-35.83,1083.31,140,333,-416
1512180686,-0.0921,0.0059,0.3728,-23.07,-39.49,984.13,140,333,-416
1512180686,-0.0100,0.0182,0.3631,14.53,-20.32,1106.02,140,333,-416
1512180686,-0.0029,-0.0028,0.3684,38.09,-35.71,1072.39,140,333,-416
1512180686,-0.0370,0.0724,0.3565,20.94,-74.95,1044.07,140,333,-416
1512180686,0.0193,0.0743,0.3625,13.18,-72.63,1064.58,137,343,-423
1512180686,-0.0041,0.0284,0.3667,-27.83,-58.78,974.91,137,343,-423
1512180686,-0.0481,0.0795,0.3718,-16.48,-60.42,1005.62,137,343,-423
1512180686,0.0345,-0.0208,0.3808,-114.93,66.89,948.85,137,343,-423
1512180686,-0.0293,0.0049,0.3731,-94.60,38.21,974.49,137,343,-423
1512180686,-0.0566,-0.0790,0.3822,-100.59,24.05,1005.49,138,345,-424
1512180686,-0.0503,-0.0515,0.3850,-127.99,70.50,911.25,138,345,-424
1512180686,-0.0633,-0.0429,0.3827,-137.08,-22.34,947.14,138,345,-424
1512180686,-0.1045,-0.0767,0.3744,-68.12,-37.29,900.82,138,345,-424
1512180686,0.0001,-0.0469,0.3523,-29.60,-61.10,988.59,140,357,-426
1512180686,-0.0403,-0.0720,0.3579,-50.05,-37.96,976.07,140,357,-426
1512180686,-0.1103,-0.0675,0.3573,-14.10,-44.74,964.90,140,357,-426
1512180686,-0.0485,-0.0455,0.3594,-20.14,-3.11,1055.85,140,357,-426
1512180686,-0.0852,-0.0843,0.3679,-31.07,-48.40,1049.01,140,357,-426
1512180686,-0.0652,-0.0603,0.3698,-8.61,-2.14,1017.58,168,361,-426
1512180686,0.0373,-0.0585,0.3684,-0.31,18.31,1048.95,168,361,-426
1512180686,-0.0344,-0.0767,0.3718,-39.98,-8.67,1018.98,168,361,-426
1512180686,-0.0625,-0.0558,0.3637,-21.42,-115.60,916.56,168,361,-426
1512180686,-0.0779,-0.0087,0.3618,27.47,-149.60,947.51,168,361,-426
1512180686,-0.0294,0.0196,0.3583,50.60,-149.66,960.33,184,359,-431
1512180686,0.0116,0.0101,0.3554,-18.31,-128.48,970.58,184,359,-431
1512180686,-0.1453,-0.0256,0.3465,48.77,-129.21,812.13,184,359,-431
1512180686,-0.0127,0.0698,0.3537,-34.36,-68.79,1073.85,184,359,-431
1512180686,-0.0783,-0.0919,0.3529,-64.03,-114.87,884.70,170,370,-431
1512180686,0.0068,0.1123,0.3543,-49.68,-7.63,1003.05,170,370,-431
1512180687,-0.0605,-0.0659,0.3802,-83.98,-10.44,948.06,170,370,-431
1512180687,-0.0057,0.0437,0.3698,-53.16,-53.59,931.70,170,370,-431
1512180687,0.0249,0.0109,0.3674,-10.01,-36.25,969.42,170,370,-431
1512180687,0.0435,0.0569,0.3727,-53.34,-71.29,1041.08,179,379,-440
1512180687,-0.0662,-0.0188,0.3542,32.90,-61.40,1013.49,179,379,-440
1512180687,-0.0099,0.0578,0.3527,-27.40,-142.27,1045.35,179,379,-440
1512180687,-0.0360,-0.0687,0.3510,-3.97,-115.84,1003.72,179,379,-440
1512180687,0.0242,0.0788,0.3408,4.52,-75.99,1043.40,179,379,-440
1512180687,-0.0164,0.0197,0.3437,49.87,-120.00,1103.09,177,373,-424
1512180687,0.0498,0.0447,0.3240,-18.74,-102.23,1069.89,177,373,-424
1512180687,0.0012,0.0234,0.3294,-9.89,-121.58,1134.40,177,373,-424
1512180687,0.0280,0.0262,0.3285,-29.42,-42.79,971.86,177,373,-424
1512180687,0.0529,-0.0844,0.3305,-49.50,-108.52,899.41,165,400,-429
1512180687,0.0521,0.0928,0.3308,-2.08,8.54,957.09,165,400,-429
1512180687,-0.0510,-0.1065,0.3366,-115.17,-49.74,957.09,165,400,-429
1512180687,-0.0028,0.0676,0.3397,-55.05,56.70,809.45,165,400,-429
1512180687,-0.1246,-0.0260,0.3446,-71.17,-49.44,953.61,165,400,-429
1512180687,-0.0274,0.0832,0.2955,-12.57,11.72,942.02,180,398,-431
1512180687,0.0128,-0.0582,0.3495,-39.73,-53.41,1046.08,180,398,-431
1512180687,0.0068,0.0925,0.3037,-18.07,-29.54,964.72,180,398,-431
1512180687,-0.0152,-0.0631,0.3097,-34.06,-41.32,1097.84,180,398,-431
1512180687,-0.1201,0.1008,0.2997,-85.69,-39.06,1029.66,180,398,-431
1512180687,-0.1392,-0.0919,0.3072,-45.29,-74.16,1041.69,191,412,-428
1512180687,-0.0770,0.0586,0.3131,-36.74,-99.43,988.89,191,412,-428
1512180687,-0.1266,-0.0740,0.2985,3.54,-87.59,1006.71,191,412,-428
1512180687,-0.0047,0.0648,0.3015,-71.90,-60.97,1031.56,191,412,-428
1512180687,-0.0840,-0.0559,0.2880,-49.62,-68.36,1023.68,193,424,-423
1512180687,0.0162,0.0671,0.2670,-4.33,-61.04,1040.34,193,424,-423
1512180687,-0.0839,-0.0465,0.2692,-60.18,-58.17,1053.41,193,424,-423
1512180687,-0.0273,0.0278,0.2531,-74.34,-4.46,1017.27,193,424,-423
1512180687,0.0105,-0.0097,0.2526,-72.27,-59.63,1059.14,193,424,-423
1512180687,0.0342,0.0020,0.2543,-11.54,6.23,1030.40,198,419,-431
