TC has set the system time
Mag Calibration: Wave device in a figure 8 until done!
4 seconds to get ready followed by 15 seconds of sampling)
Mag Calibration done!
time_unix,rotate_x,rotate_y,rotate_z,acc_x,acc_y,acc_z,mag_x,mag_y,mag_z
1512180456,0.0047,0.0039,-0.0177,-3.48,-32.53,946.47,7,5,8
1512180456,0.0037,0.0048,-0.0178,2.14,-29.54,959.72,7,5,8
1512180456,-0.0043,0.0011,-0.0181,-0.31,-27.22,969.60,7,5,8
1512180456,-0.0003,0.0024,-0.0178,-4.09,-41.75,964.60,7,15,1
1512180456,0.0053,0.0048,-0.0177,-0.79,-21.79,963.68,7,15,1
1512180456,-0.0056,0.0019,-0.0172,1.71,-28.63,969.67,7,15,1
1512180456,-0.0003,0.0025,-0.0176,-0.92,-36.44,967.53,7,15,1
1512180456,0.0049,0.0029,-0.0161,-0.18,-30.88,969.18,7,15,1
1512180456,0.0009,0.0032,-0.0184,-3.23,-15.26,955.26,3,1,11
1512180456,0.0001,0.0060,-0.0181,1.95,-31.56,963.20,3,1,11
1512180456,-0.0029,-0.0007,-0.0180,-1.04,-29.60,973.69,3,1,11
1512180456,0.0061,0.0029,-0.0173,-7.81,-29.91,947.45,3,1,11
1512180456,-0.0004,0.0045,-0.0176,2.14,-27.10,965.64,5,3,-3
1512180456,-0.0020,0.0027,-0.0180,0.06,-27.34,974.85,5,3,-3
1512180456,0.0037,0.0037,-0.0172,-2.20,-35.89,964.17,5,3,-3
1512180456,0.0024,0.0036,-0.0162,6.84,-27.40,961.49,5,3,-3
1512180456,0.0059,0.0033,-0.0169,2.14,-19.10,949.52,5,3,-3
1512180456,-0.0027,0.0041,-0.0170,2.32,-33.02,964.11,0,5,-8
1512180456,-0.0028,-0.0005,-0.0188,-3.36,-32.71,977.54,0,5,-8
1512180456,0.0025,0.0019,-0.0172,-4.70,-28.14,953.67,0,5,-8
1512180456,0.0024,0.0048,-0.0185,3.54,-30.64,958.44,0,5,-8
1512180456,0.0005,0.0015,-0.0194,-1.04,-34.24,973.57,10,8,1
1512180456,0.0047,0.0021,-0.0164,-9.28,-42.05,950.50,10,8,1
1512180456,-0.0013,0.0047,-0.0170,-5.68,-56.70,973.45,10,8,1
1512180456,-0.0016,0.0029,-0.0170,-2.50,-56.46,965.64,10,8,1
1512180456,-0.0003,0.0036,-0.0165,-9.70,-75.44,956.30,10,8,1
1512180456,0.0005,0.0057,-0.0164,-8.30,-76.17,972.96,-12,-3,-3
1512180456,-0.0048,0.0037,-0.0145,-5.55,-63.29,974.61,-12,-3,-3
1512180457,-0.0125,0.0041,-0.0154,-8.12,-87.59,992.74,-12,-3,-3
1512180457,0.0091,0.0045,-0.0158,-13.43,-73.24,967.47,-12,-3,-3
1512180457,0.0128,0.0059,-0.0154,-14.16,-68.36,944.82,-12,-3,-3
1512180457,0.0084,0.0076,-0.0154,-2.38,-80.14,973.45,3,-1,18
1512180457,0.0052,0.0061,-0.0177,-8.97,-71.53,955.93,3,-1,18
1512180457,0.0033,0.0059,-0.0166,-11.41,-83.07,946.04,3,-1,18
1512180457,0.0051,0.0059,-0.0149,-6.47,-83.07,965.76,3,-1,18
1512180457,-0.0075,-0.0005,-0.0166,-7.32,-64.51,979.43,8,17,16
1512180457,0.0020,0.0041,-0.0154,-12.27,-85.08,968.51,8,17,16
1512180457,-0.0007,0.0059,-0.0160,-7.14,-76.90,968.99,8,17,16
1512180457,-0.0095,-0.0012,-0.0173,-11.05,-62.62,975.59,8,17,16
1512180457,0.0009,0.0031,-0.0174,-12.70,-88.81,972.11,8,17,16
1512180457,-0.0041,0.0040,-0.0189,-8.36,-83.31,968.87,0,8,11
1512180457,-0.0027,-0.0004,-0.0192,-9.95,-63.23,972.66,0,8,11
1512180457,0.0100,0.0067,-0.0168,-14.59,-83.37,965.82,0,8,11
1512180457,0.0051,0.0047,-0.0184,-4.82,-75.87,973.21,0,8,11
1512180457,0.0117,0.0049,-0.0166,-12.08,-57.68,969.18,-5,3,3
1512180457,0.0067,0.0079,-0.0158,-11.29,-87.40,965.94,-5,3,3
1512180457,0.0052,0.0076,-0.0148,-8.24,-66.77,973.75,-5,3,3
1512180457,0.0105,0.0091,-0.0162,-9.34,-56.21,962.89,-5,3,3
1512180457,0.0088,0.0093,-0.0169,-9.16,-86.43,949.46,-5,3,3
1512180457,0.0138,0.0087,-0.0184,-7.39,-61.89,964.60,12,3,23
1512180457,0.0095,0.0073,-0.0193,-12.70,-62.07,955.32,12,3,23
1512180457,0.0052,0.0068,-0.0202,-14.59,-87.28,944.64,12,3,23
1512180457,0.0032,0.0025,-0.0204,-7.02,-66.04,955.32,12,3,23
1512180457,-0.0029,0.0008,-0.0205,-15.56,-85.51,951.11,12,3,23
1512180457,-0.0031,0.0009,-0.0198,-9.22,-81.48,972.72,21,15,8
1512180457,-0.0012,-0.0012,-0.0206,-3.23,-73.67,964.90,21,15,8
1512180457,-0.0004,0.0007,-0.0193,-11.72,-84.84,959.17,21,15,8
1512180457,-0.0009,0.0059,-0.0201,-0.73,-72.69,975.16,21,15,8
1512180457,0.0045,0.0059,-0.0209,-4.21,-68.48,967.83,12,7,16
1512180457,0.0032,0.0051,-0.0242,-11.84,-81.24,953.43,12,7,16
1512180457,0.0041,0.0048,-0.0268,-11.11,-78.55,968.81,12,7,16
1512180457,0.0075,0.0016,-0.0254,-14.47,-69.52,959.53,12,7,16
1512180457,0.0037,-0.0011,-0.0268,-21.00,-76.90,953.55,12,7,16
1512180457,-0.0024,0.0027,-0.0292,-17.76,-88.81,974.24,3,15,-1
1512180457,0.0128,0.0048,-0.0272,-8.12,-72.39,955.38,3,15,-1
1512180457,0.0020,0.0024,-0.0272,-4.03,-80.93,963.07,3,15,-1
1512180458,0.0040,0.0028,-0.0282,-9.89,-101.87,944.34,3,15,-1
1512180458,0.0101,0.0017,-0.0293,-11.41,-78.80,970.89,3,15,-1
1512180458,-0.0053,-0.0016,-0.0308,-15.38,-87.34,984.25,-7,19,11
1512180458,0.0128,0.0040,-0.0325,-17.40,-92.35,938.48,-7,19,11
1512180458,0.0021,0.0063,-0.0326,-15.38,-105.29,972.90,-7,19,11
1512180458,0.0109,0.0073,-0.0336,-20.32,-91.43,983.70,-7,19,11
1512180458,-0.0032,0.0003,-0.0356,-12.08,-99.85,978.39,0,12,5
1512180458,0.0119,0.0024,-0.0358,-20.81,-103.76,937.68,0,12,5
1512180458,0.0039,0.0025,-0.0377,-26.55,-128.17,954.04,0,12,5
1512180458,0.0043,0.0039,-0.0385,-29.97,-121.15,972.41,0,12,5
1512180458,0.0027,0.0027,-0.0418,-38.94,-114.69,984.99,0,12,5
1512180458,0.0003,0.0025,-0.0445,-18.49,-114.75,965.88,5,17,10
1512180458,-0.0037,0.0008,-0.0477,-23.62,-122.01,968.93,5,17,10
1512180458,0.0001,0.0024,-0.0485,-22.34,-118.41,949.89,5,17,10
1512180458,0.0158,0.0063,-0.0495,-31.31,-133.67,909.91,5,17,10
1512180458,-0.0060,-0.0016,-0.0534,-30.88,-140.26,980.83,5,17,10
1512180458,0.0051,0.0032,-0.0529,-41.02,-118.41,1005.80,-5,21,-3
1512180458,0.0068,0.0056,-0.0569,-44.07,-121.83,992.00,-5,21,-3
1512180458,0.0081,0.0069,-0.0598,-28.69,-119.51,961.43,-5,21,-3
1512180458,-0.0113,0.0031,-0.0626,-27.47,-132.26,974.24,-5,21,-3
1512180458,-0.0045,0.0059,-0.0646,-36.50,-126.28,989.99,-5,14,16
1512180458,-0.0127,0.0024,-0.0667,-40.04,-132.69,987.18,-5,14,16
1512180458,0.0099,0.0067,-0.0684,-41.75,-133.67,943.91,-5,14,16
1512180458,0.0145,0.0097,-0.0711,-44.13,-135.13,916.50,-5,14,16
1512180458,-0.0029,0.0097,-0.0788,-50.96,-143.62,951.23,-5,14,16
1512180458,-0.0011,0.0060,-0.0842,-37.11,-149.11,929.57,-5,17,3
1512180458,-0.0089,0.0061,-0.0887,-51.64,-135.50,987.37,-5,17,3
1512180458,0.0073,0.0063,-0.0932,-59.69,-129.94,974.67,-5,17,3
1512180458,0.0013,0.0080,-0.0971,-42.66,-127.26,994.87,-5,17,3
1512180458,0.0204,0.0109,-0.0979,-44.56,-109.62,956.42,-5,17,3
1512180458,0.0008,0.0067,-0.0992,-34.61,-119.38,965.52,-1,14,20
1512180458,0.0032,0.0009,-0.1031,-30.88,-115.05,940.00,-1,14,20
1512180458,-0.0128,-0.0003,-0.1029,-45.96,-125.18,994.20,-1,14,20
1512180458,0.0108,0.0001,-0.1067,-56.40,-108.09,934.20,-1,14,20
1512180458,0.0169,0.0011,-0.1091,-46.75,-97.11,927.25,-31,12,8
1512180458,0.0117,0.0055,-0.1141,-53.10,-115.05,943.91,-31,12,8
1512180458,0.0142,0.0051,-0.1225,-31.80,-88.01,985.84,-31,12,8
1512180459,0.0290,0.0071,-0.1270,-31.74,-72.51,978.58,-31,12,8
1512180459,-0.0069,-0.0009,-0.1325,-27.22,-96.19,1004.88,-31,12,8
1512180459,0.0225,0.0075,-0.1325,-40.95,-84.84,919.07,-12,14,3
1512180459,0.0204,0.0140,-0.1324,-51.70,-119.26,929.08,-12,14,3
1512180459,0.0256,0.0129,-0.1336,-43.33,-79.41,960.69,-12,14,3
1512180459,0.0230,0.0088,-0.1332,-40.65,-78.00,951.17,-12,14,3
1512180459,0.0125,0.0059,-0.1364,-30.40,-71.90,926.27,-22,14,10
1512180459,0.0164,0.0142,-0.1369,-44.19,-106.57,924.50,-22,14,10
1512180459,0.0221,0.0229,-0.1430,-26.25,-80.57,962.95,-22,14,10
1512180459,0.0093,0.0156,-0.1433,-15.99,-76.60,993.59,-22,14,10
1512180459,0.0071,0.0197,-0.1470,-33.39,-70.62,896.79,-22,14,10
1512180459,0.0029,0.0264,-0.1486,-43.40,-87.22,955.26,-26,14,6
1512180459,0.0064,0.0113,-0.1465,-56.46,-35.40,994.51,-26,14,6
1512180459,-0.0053,-0.0189,-0.1441,-79.28,-65.61,1066.47,-26,14,6
1512180459,0.0225,-0.0244,-0.1378,-93.57,-31.13,954.35,-26,14,6
1512180459,0.0314,-0.0221,-0.1364,-79.41,-60.18,957.52,-26,14,6
1512180459,0.0252,-0.0306,-0.1377,-84.84,-44.49,1043.27,-21,-1,15
1512180459,-0.0015,-0.0386,-0.1461,-28.93,-11.78,934.88,-21,-1,15
1512180459,0.0334,-0.0350,-0.1455,-64.70,-58.78,877.75,-21,-1,15
1512180459,0.0113,-0.0525,-0.1523,-19.71,-44.01,985.41,-21,-1,15
1512180459,-0.0314,-0.0549,-0.1546,-28.14,-34.42,989.69,-29,3,13
1512180459,-0.0052,-0.0353,-0.1538,-23.56,-41.14,948.79,-29,3,13
1512180459,-0.0085,-0.0198,-0.1519,-12.45,-35.40,969.12,-29,3,13
1512180459,-0.0340,-0.0294,-0.1491,-14.16,-44.19,1031.01,-29,3,13
1512180459,-0.0270,-0.0244,-0.1459,-12.76,-28.87,991.46,-29,3,13
1512180459,-0.0095,-0.0144,-0.1434,-9.95,-18.25,989.81,-28,-1,-1
1512180459,-0.0217,-0.0065,-0.1438,-3.72,-32.96,984.99,-28,-1,-1
1512180459,-0.0194,0.0005,-0.1454,-6.71,-35.89,972.17,-28,-1,-1
1512180459,-0.0217,-0.0013,-0.1487,-20.39,-62.01,944.82,-28,-1,-1
1512180459,-0.0088,0.0015,-0.1463,-9.03,-39.12,947.20,-28,-1,-1
1512180459,-0.0127,-0.0007,-0.1443,-25.33,-47.00,955.99,-38,1,8
1512180459,-0.0044,0.0041,-0.1459,-37.17,-52.31,922.06,-38,1,8
1512180459,0.0071,0.0095,-0.1430,-27.10,-35.34,930.05,-38,1,8
1512180459,0.0105,0.0125,-0.1437,-18.98,-52.19,930.79,-38,1,8
1512180459,0.0116,0.0150,-0.1425,-17.76,-47.18,915.77,-26,3,3
1512180459,0.0009,0.0152,-0.1439,-3.78,-58.11,943.24,-26,3,3
1512180459,0.0111,0.0198,-0.1410,2.26,-45.59,963.44,-26,3,3
1512180459,0.0081,0.0201,-0.1397,-34.73,-30.15,974.06,-26,3,3
1512180460,-0.0174,0.0144,-0.1419,-51.88,-34.48,989.56,-26,3,3
1512180460,-0.0099,0.0137,-0.1421,-68.18,-33.08,999.63,-33,0,0
1512180460,-0.0029,0.0104,-0.1454,-47.61,-25.88,1007.02,-33,0,0
1512180460,0.0306,0.0193,-0.1467,-65.55,-28.50,923.83,-33,0,0
1512180460,0.0013,0.0127,-0.1517,-60.00,-30.88,987.18,-33,0,0
1512180460,-0.0023,-0.0001,-0.1510,-41.44,-43.64,957.21,-40,0,6
1512180460,-0.0024,-0.0121,-0.1494,-39.49,-36.87,923.65,-40,0,6
1512180460,0.0124,-0.0071,-0.1434,-46.45,-31.31,952.39,-40,0,6
1512180460,0.0021,-0.0059,-0.1402,-38.02,-32.96,964.66,-40,0,6
1512180460,-0.0168,-0.0023,-0.1414,-21.24,-43.95,968.26,-40,0,6
1512180460,0.0065,0.0011,-0.1411,-19.71,-47.79,952.88,-31,1,15
1512180460,0.0115,0.0100,-0.1402,-18.13,-53.10,916.69,-31,1,15
1512180460,0.0142,0.0081,-0.1417,-18.43,-47.30,956.18,-31,1,15
1512180460,-0.0052,0.0011,-0.1438,-29.54,-41.20,940.00,-31,1,15
1512180460,0.0039,0.0011,-0.1431,-34.85,-58.17,936.89,-31,1,15
1512180460,0.0222,0.0077,-0.1418,-62.44,-41.50,969.67,-38,8,15
1512180460,0.0068,-0.0020,-0.1410,-53.65,-32.35,1001.95,-38,8,15
1512180460,-0.0168,-0.0047,-0.1397,-29.66,-40.95,962.59,-38,8,15
1512180460,0.0055,0.0088,-0.1380,-46.57,-42.36,922.18,-38,8,15
1512180460,0.0091,0.0101,-0.1384,-10.80,-54.57,956.60,-52,15,8
1512180460,-0.0056,-0.0041,-0.1388,-8.73,-54.99,986.45,-52,15,8
1512180460,-0.0123,-0.0059,-0.1374,-20.08,-32.53,970.34,-52,15,8
1512180460,-0.0071,0.0036,-0.1377,-19.84,-57.25,953.12,-52,15,8
1512180460,-0.0013,0.0091,-0.1360,-29.42,-44.56,941.83,-52,15,8
1512180460,-0.0103,0.0154,-0.1392,-5.37,-42.66,961.67,-63,-1,11
1512180460,-0.0084,0.0184,-0.1365,7.51,-54.02,933.11,-63,-1,11
1512180460,-0.0031,0.0101,-0.1336,-17.09,-54.32,938.60,-63,-1,11
1512180460,0.0020,0.0061,-0.1282,-47.49,-11.78,992.98,-63,-1,11
1512180460,-0.0017,-0.0036,-0.1252,-32.41,-10.13,1016.30,-63,-1,11
1512180460,-0.0344,-0.0204,-0.1230,-36.99,-54.63,1017.94,-49,8,1
1512180460,0.0120,-0.0173,-0.1158,-39.67,-7.39,978.39,-49,8,1
1512180460,-0.0149,-0.0280,-0.1200,-30.09,-57.13,1016.48,-49,8,1
1512180460,-0.0200,-0.0333,-0.1222,-18.49,-30.27,1010.01,-49,8,1
1512180460,-0.0101,-0.0387,-0.1209,-13.43,-21.97,997.92,-43,7,-3
1512180460,0.0021,-0.0585,-0.1165,-6.90,-37.29,954.96,-43,7,-3
1512180460,0.0015,-0.0675,-0.1125,-3.97,-28.44,934.27,-43,7,-3
1512180460,-0.0025,-0.0634,-0.1099,-21.97,-33.51,955.87,-43,7,-3
1512180460,-0.0137,-0.0535,-0.1133,-0.85,-6.77,1016.36,-43,7,-3
1512180461,-0.0112,-0.0345,-0.1100,4.15,-32.35,974.73,-56,-5,-5
1512180461,0.0032,-0.0393,-0.1003,-2.01,-33.87,935.06,-56,-5,-5
1512180461,-0.0020,-0.0679,-0.0984,20.51,-39.00,945.98,-56,-5,-5
1512180461,-0.0144,-0.0547,-0.0908,5.13,-19.47,982.48,-56,-5,-5
1512180461,-0.0250,-0.0386,-0.0940,41.26,-9.52,1002.08,-56,-5,-5
1512180461,-0.0049,-0.0104,-0.0940,31.13,-21.00,962.28,-72,-10,3
1512180461,0.0121,-0.0011,-0.0973,49.62,-57.13,950.38,-72,-10,3
1512180461,0.0061,0.0019,-0.0944,29.17,-36.07,982.36,-72,-10,3
1512180461,-0.0120,-0.0020,-0.0948,20.20,-44.98,927.98,-72,-10,3
1512180461,0.0003,0.0129,-0.0895,16.66,-28.32,899.60,-49,-19,-1
1512180461,0.0116,0.0232,-0.0807,3.05,-40.53,909.79,-49,-19,-1
1512180461,0.0041,0.0222,-0.0784,16.36,-21.48,943.36,-49,-19,-1
1512180461,-0.0036,0.0156,-0.0695,3.11,-15.50,998.78,-49,-19,-1
1512180461,-0.0101,0.0015,-0.0686,16.85,-34.42,943.66,-49,-19,-1
1512180461,0.0087,0.0025,-0.0666,-11.96,-46.45,906.07,-59,-22,8
1512180461,0.0057,0.0128,-0.0656,-4.39,-28.81,942.02,-59,-22,8
1512180461,-0.0178,0.0067,-0.0668,10.38,-46.81,1033.57,-59,-22,8
1512180461,-0.0160,0.0025,-0.0675,33.26,-12.08,942.93,-59,-22,8
1512180461,-0.0109,-0.0041,-0.0648,4.03,-27.34,962.28,-65,-14,0
1512180461,0.0113,-0.0015,-0.0599,23.99,-32.41,895.08,-65,-14,0
1512180461,0.0028,0.0048,-0.0582,15.63,-27.65,960.57,-65,-14,0
1512180461,-0.0127,0.0075,-0.0575,21.42,-34.73,978.33,-65,-14,0
1512180461,-0.0105,0.0129,-0.0527,6.23,-17.58,973.21,-65,-14,0
1512180461,0.0099,0.0156,-0.0486,0.79,-16.66,908.51,-61,-7,6
1512180461,0.0000,0.0136,-0.0469,-19.96,-47.30,949.28,-61,-7,6
1512180461,-0.0040,0.0096,-0.0490,16.72,-0.18,962.52,-61,-7,6
1512180461,-0.0067,0.0132,-0.0489,-30.27,-43.88,947.94,-61,-7,6
1512180461,0.0032,0.0105,-0.0499,-27.59,-38.51,932.37,-61,-7,6
1512180461,0.0044,0.0051,-0.0470,-31.62,-22.58,1017.88,-68,-24,10
1512180461,-0.0156,-0.0133,-0.0509,-31.13,-21.18,966.19,-68,-24,10
1512180461,-0.0049,-0.0202,-0.0475,-11.29,-36.62,925.05,-68,-24,10
1512180461,0.0024,-0.0288,-0.0441,-37.17,-48.46,956.30,-68,-24,10
1512180461,0.0059,-0.0230,-0.0427,-21.73,-42.30,973.51,-56,-12,1
1512180461,-0.0020,-0.0222,-0.0374,7.02,-57.07,949.16,-56,-12,1
1512180461,-0.0037,-0.0272,-0.0362,23.99,-33.94,941.53,-56,-12,1
1512180461,0.0049,-0.0361,-0.0345,33.51,-52.86,896.06,-56,-12,1
1512180461,0.0161,-0.0357,-0.0321,27.28,-38.27,915.28,-56,-12,1
1512180461,0.0107,-0.0414,-0.0292,8.18,-46.51,985.17,-45,-15,-5
1512180462,0.0027,-0.0526,-0.0290,1.89,-23.32,983.46,-45,-15,-5
1512180462,0.0217,-0.0463,-0.0233,-0.73,-28.50,943.79,-45,-15,-5
1512180462,-0.0041,-0.0505,-0.0228,32.17,-9.16,981.38,-45,-15,-5
1512180462,0.0040,-0.0666,-0.0188,0.85,-24.96,991.03,-45,-15,-5
1512180462,-0.0032,-0.0774,-0.0178,-2.26,-0.43,989.62,-72,-21,23
1512180462,-0.0013,-0.0784,-0.0172,31.43,-15.08,939.70,-72,-21,23
1512180462,0.0093,-0.0754,-0.0166,-2.44,-43.58,956.73,-72,-21,23
1512180462,0.0051,-0.0704,-0.0178,31.86,-26.37,933.41,-72,-21,23
1512180462,0.0011,-0.0743,-0.0119,37.84,-24.60,927.12,-75,-24,6
1512180462,-0.0216,-0.0791,-0.0145,48.03,-18.07,1017.46,-75,-24,6
1512180462,-0.0136,-0.0650,-0.0130,64.45,5.49,988.65,-75,-24,6
1512180462,0.0115,-0.0435,-0.0087,72.27,-9.83,966.55,-75,-24,6
1512180462,0.0494,-0.0222,-0.0083,68.73,-33.87,1013.61,-75,-24,6
1512180462,0.0057,-0.0370,-0.0053,69.82,-26.06,985.35,-77,-22,-1
1512180462,0.0136,-0.0281,-0.0013,86.30,-39.98,971.68,-77,-22,-1
1512180462,0.0154,-0.0007,-0.0015,70.43,-54.81,909.73,-77,-22,-1
1512180462,0.0001,0.0197,-0.0027,101.38,-51.45,927.86,-77,-22,-1
1512180462,0.0007,0.0234,-0.0037,49.68,-71.35,985.78,-77,-22,-1
1512180462,-0.0170,0.0272,-0.0052,63.66,-56.52,980.47,-56,-29,-1
1512180462,0.0176,0.0284,-0.0005,13.61,-63.17,921.57,-56,-29,-1
1512180462,0.0056,0.0217,0.0024,29.97,-56.40,935.55,-56,-29,-1
1512180462,0.0238,0.0288,0.0064,2.08,-38.82,937.19,-56,-29,-1
1512180462,0.0193,0.0170,0.0075,-5.49,-45.53,982.91,-56,-26,15
1512180462,0.0080,0.0174,0.0063,0.98,-69.52,979.31,-56,-26,15
1512180462,0.0212,0.0177,-0.0015,8.30,-41.02,940.00,-56,-26,15
1512180462,0.0019,0.0105,-0.0016,16.11,-55.54,960.88,-56,-26,15
1512180462,0.0184,0.0075,-0.0004,31.31,-53.04,928.71,-56,-26,15
1512180462,0.0337,0.0009,0.0048,44.98,-45.53,936.04,-68,-17,3
1512180462,0.0158,-0.0007,0.0095,19.35,-73.00,955.32,-68,-17,3
1512180462,0.0049,0.0111,0.0149,37.11,-14.47,1031.74,-68,-17,3
1512180462,0.0277,0.0459,0.0141,68.66,-20.26,1010.44,-68,-17,3
1512180462,0.0498,0.0771,0.0204,56.46,-35.64,1053.53,-42,-29,-1
1512180462,0.0356,0.0694,0.0229,128.97,-16.91,860.29,-42,-29,-1
1512180462,-0.0027,0.0399,0.0142,104.55,-63.72,1082.58,-42,-29,-1
1512180462,-0.0531,0.0245,0.0153,-4.64,-94.12,973.21,-42,-29,-1
1512180462,-0.0140,0.0316,0.0237,-14.59,-38.88,919.01,-42,-29,-1
1512180462,0.0059,0.0160,0.0237,-20.02,-79.77,911.25,-57,-38,6
1512180463,0.0063,-0.0043,0.0286,7.14,-53.10,924.74,-57,-38,6
1512180463,0.0091,-0.0237,0.0280,11.66,-74.52,946.04,-57,-38,6
1512180463,0.0060,-0.0206,0.0285,-14.83,-77.94,916.20,-57,-38,6
1512180463,0.0055,-0.0305,0.0242,37.54,-103.94,911.99,-42,-26,1
1512180463,0.0128,-0.0446,0.0241,39.00,-96.56,917.91,-42,-26,1
1512180463,0.0084,-0.0439,0.0294,27.77,-105.04,946.90,-42,-26,1
1512180463,0.0103,-0.0437,0.0322,20.75,-98.14,934.27,-42,-26,1
1512180463,0.0164,-0.0410,0.0358,47.67,-87.52,991.27,-42,-26,1
1512180463,0.0261,-0.0405,0.0406,55.66,-88.50,987.92,-63,-26,-1
1512180463,-0.0029,-0.0640,0.0453,56.95,-81.48,989.81,-63,-26,-1
1512180463,0.0096,-0.0747,0.0509,21.79,-64.58,1019.65,-63,-26,-1
1512180463,0.0169,-0.0888,0.0547,64.15,-75.74,982.06,-63,-26,-1
1512180463,0.0189,-0.0854,0.0558,60.97,-78.61,962.34,-63,-26,-1
1512180463,0.0132,-0.0787,0.0519,66.04,-84.96,963.81,-47,-28,0
1512180463,0.0209,-0.0678,0.0510,82.89,-79.22,906.98,-47,-28,0
1512180463,-0.0008,-0.0606,0.0439,101.38,-103.39,953.86,-47,-28,0
1512180463,0.0289,-0.0447,0.0439,114.14,-86.12,929.08,-47,-28,0
1512180463,0.0474,-0.0221,0.0443,128.97,-91.92,1004.52,-57,-21,-6
1512180463,0.0322,-0.0366,0.0477,132.45,-78.25,936.95,-57,-21,-6
1512180463,0.0297,-0.0364,0.0529,110.23,-41.26,956.18,-57,-21,-6
1512180463,0.0236,-0.0210,0.0511,108.28,-112.85,960.63,-57,-21,-6
1512180463,0.0129,-0.0044,0.0482,95.15,-61.16,972.53,-57,-21,-6
1512180463,0.0399,0.0176,0.0534,79.41,-55.91,953.06,-68,-28,-6
1512180463,0.0316,0.0121,0.0493,98.75,-117.55,955.26,-68,-28,-6
1512180463,0.0380,0.0099,0.0474,113.59,-60.73,899.66,-68,-28,-6
1512180463,0.0423,0.0097,0.0489,73.61,-91.19,931.64,-68,-28,-6
1512180463,0.0386,0.0154,0.0438,52.67,-71.04,945.80,-68,-28,-6
1512180463,0.0447,0.0288,0.0510,53.83,-42.36,980.16,-38,-37,-18
1512180463,0.0035,0.0152,0.0505,86.36,-71.53,994.14,-38,-37,-18
1512180463,0.0198,0.0138,0.0615,69.82,-57.01,1000.00,-38,-37,-18
1512180463,0.0150,-0.0087,0.0625,27.59,-39.55,998.29,-38,-37,-18
1512180463,0.0205,-0.0008,0.0618,11.05,-48.40,934.08,-50,-24,-6
1512180463,0.0100,0.0260,0.0502,12.63,-10.07,1017.94,-50,-24,-6
1512180463,0.0304,0.0431,0.0296,103.88,-13.98,1103.88,-50,-24,-6
1512180463,0.0257,0.0196,0.0782,93.93,-56.52,1083.56,-50,-24,-6
1512180463,0.0188,-0.0036,0.0380,52.92,-39.67,961.36,-50,-24,-6
1512180463,0.0477,0.0180,0.0454,37.90,-59.08,965.70,-54,-52,-16
1512180463,0.0190,0.0268,0.0610,32.53,-61.04,858.76,-54,-52,-16
1512180464,-0.0093,0.0132,0.0711,49.93,-69.03,948.91,-54,-52,-16
1512180464,0.0081,0.0015,0.0760,20.32,-79.16,899.96,-54,-52,-16
1512180464,-0.0096,-0.0052,0.0743,52.86,-71.41,930.79,-54,-52,-16
1512180464,-0.0173,-0.0123,0.0727,66.04,-72.39,864.07,-45,-33,5
1512180464,0.0292,0.0232,0.0598,46.81,-53.71,959.11,-45,-33,5
1512180464,-0.0403,0.0093,0.0639,93.69,-77.45,914.92,-45,-33,5
1512180464,-0.0390,0.0218,0.0794,48.71,-118.84,946.17,-45,-33,5
1512180464,0.1092,0.0804,0.0510,91.80,-72.20,1009.58,-47,-28,-3
1512180464,0.0095,0.0077,0.0651,29.17,-53.77,1026.31,-47,-28,-3
1512180464,-0.0096,-0.0229,0.0633,38.21,-81.36,1003.17,-47,-28,-3
1512180464,0.0031,-0.0232,0.0759,2.32,-37.35,981.32,-47,-28,-3
1512180464,-0.0162,-0.0198,0.0774,9.77,-88.75,1009.58,-47,-28,-3
1512180464,-0.0056,-0.0079,0.0747,63.72,-53.10,1009.95,-43,-35,-6
1512180464,-0.0218,-0.0023,0.0743,124.76,-87.77,973.51,-43,-35,-6
1512180464,-0.0188,-0.0091,0.0700,123.17,-88.62,892.64,-43,-35,-6
1512180464,-0.0079,-0.0011,0.0850,99.79,-82.76,923.52,-43,-35,-6
1512180464,0.0884,0.0498,0.0605,68.66,-60.30,1040.16,-43,-35,-6
1512180464,-0.0185,0.0140,0.0621,84.66,-50.05,996.70,-33,-42,-10
1512180464,-0.0166,0.0242,0.0662,90.45,-78.67,945.19,-33,-42,-10
1512180464,-0.0317,0.0238,0.0724,80.02,-63.90,942.02,-33,-42,-10
1512180464,-0.0250,0.0224,0.0728,92.35,-77.21,884.77,-33,-42,-10
1512180464,0.0008,0.0304,0.0708,56.40,-98.14,1010.80,-45,-19,-8
1512180464,-0.0357,0.0137,0.0710,57.25,-67.20,917.72,-45,-19,-8
1512180464,0.0048,0.0322,0.0760,16.97,-53.04,944.95,-45,-19,-8
1512180464,-0.0390,0.0328,0.0627,66.28,-74.40,985.72,-45,-19,-8
1512180464,-0.0296,0.0289,0.0655,21.30,-91.37,943.48,-45,-19,-8
1512180464,-0.0021,0.0306,0.0667,79.77,-27.95,975.28,-43,-31,3
1512180464,-0.0157,0.0176,0.0605,72.08,-78.00,1015.26,-43,-31,3
1512180464,-0.0105,0.0033,0.0780,-35.95,-36.01,1096.74,-43,-31,3
1512180464,0.0185,0.0045,0.0800,-20.14,-41.38,1030.82,-43,-31,3
1512180464,0.0117,-0.0153,0.0847,47.55,-95.89,956.42,-43,-31,3
1512180464,-0.0001,-0.0184,0.0860,99.00,-51.45,823.67,-43,-21,10
1512180464,-0.0241,-0.0268,0.0835,92.41,-88.87,914.55,-43,-21,10
1512180464,0.0204,-0.0047,0.0699,117.74,-56.58,910.46,-43,-21,10
1512180464,0.0028,0.0083,0.0698,62.99,-45.47,874.76,-43,-21,10
1512180464,-0.0228,0.0048,0.0634,76.29,-119.02,961.85,-42,-26,8
1512180464,0.0052,0.0222,0.0668,77.27,-95.09,974.61,-42,-26,8
1512180464,0.0019,0.0286,0.0718,74.34,-67.99,860.47,-42,-26,8
1512180465,-0.0225,0.0350,0.0750,71.84,-109.62,935.85,-42,-26,8
1512180465,-0.0282,0.0306,0.0728,66.35,-73.18,1012.33,-42,-26,8
1512180465,-0.0340,0.0064,0.0783,36.93,-79.35,1024.60,-33,-17,16
1512180465,-0.0289,0.0043,0.0792,48.58,-94.48,1025.15,-33,-17,16
1512180465,-0.0031,0.0273,0.0795,84.47,-55.24,942.38,-33,-17,16
1512180465,-0.0298,0.0466,0.0719,84.35,-81.54,959.72,-33,-17,16
1512180465,0.0017,0.0577,0.0675,120.24,-73.85,918.52,-42,-26,1
1512180465,-0.0077,0.0555,0.0656,120.48,-66.28,1009.16,-42,-26,1
1512180465,0.0020,0.0366,0.0666,95.83,-62.50,948.61,-42,-26,1
1512180465,-0.0206,0.0546,0.0660,70.86,-66.47,1000.73,-42,-26,1
1512180465,-0.0242,0.0567,0.0694,53.41,-61.58,981.45,-42,-26,1
1512180465,-0.0024,0.0551,0.0752,59.57,-71.59,923.77,-28,-22,11
1512180465,-0.0036,0.0429,0.0772,23.93,-70.68,953.55,-28,-22,11
1512180465,-0.0083,0.0265,0.0784,25.70,-63.54,953.25,-28,-22,11
1512180465,-0.0107,0.0105,0.0816,22.52,-65.06,960.39,-28,-22,11
1512180465,-0.0035,0.0121,0.0783,48.71,-104.31,927.92,-28,-22,11
1512180465,0.0081,-0.0023,0.0846,2.38,-45.17,972.05,-22,-10,13
1512180465,-0.0069,-0.0127,0.0779,29.72,-83.13,1044.98,-22,-10,13
1512180465,-0.0209,-0.0169,0.0723,49.13,-85.63,939.33,-22,-10,13
1512180465,-0.0236,0.0003,0.0703,56.27,-77.15,973.33,-22,-10,13
1512180465,-0.0277,0.0013,0.0684,49.01,-87.34,996.46,-17,-1,22
1512180465,-0.0015,-0.0045,0.0736,85.33,-27.65,1041.26,-17,-1,22
1512180465,-0.0220,-0.0174,0.0806,51.27,-81.42,1049.62,-17,-1,22
1512180465,-0.0385,0.0061,0.0827,141.78,-81.12,866.46,-17,-1,22
1512180465,-0.0115,0.0567,0.0824,156.13,-63.05,946.90,-17,-1,22
1512180465,-0.0699,0.0091,0.0823,132.93,-88.68,916.99,-5,3,10
1512180465,-0.0004,0.0145,0.0783,111.88,-85.27,956.54,-5,3,10
1512180465,-0.0302,0.0111,0.0760,53.77,-77.09,984.07,-5,3,10
1512180465,-0.0072,0.0160,0.0752,37.48,-60.36,998.23,-5,3,10
1512180465,-0.0044,0.0237,0.0767,-17.46,-53.96,1026.61,-15,-10,10
1512180465,-0.0104,0.0265,0.0742,60.30,-71.84,1000.92,-15,-10,10
1512180465,-0.0142,-0.0192,0.0760,26.12,-26.79,1024.29,-15,-10,10
1512180465,0.0040,-0.0100,0.0738,75.50,-79.71,933.11,-15,-10,10
1512180465,-0.0092,0.0108,0.0719,52.00,-64.51,938.90,-15,-10,10
1512180465,-0.0305,0.0180,0.0666,83.62,-94.91,1010.62,-10,-15,8
1512180465,-0.0423,0.0178,0.0672,104.31,-84.17,1003.91,-10,-15,8
1512180465,-0.0137,0.0326,0.0672,90.39,-93.75,1095.83,-10,-15,8
1512180465,-0.0316,0.0362,0.0676,85.39,-51.15,999.63,-10,-15,8
1512180466,-0.0011,0.0390,0.0791,19.90,-47.97,929.08,-10,-15,8
1512180466,-0.0373,0.0189,0.0779,-10.50,-87.83,954.41,-3,-22,5
1512180466,-0.0310,0.0286,0.0768,-1.89,-56.76,926.64,-3,-22,5
1512180466,-0.0478,0.0370,0.0763,41.38,-93.87,938.90,-3,-22,5
1512180466,0.0025,0.0542,0.0756,35.95,-48.83,997.92,-3,-22,5
1512180466,-0.0119,0.0376,0.0763,48.77,-54.87,966.92,0,5,-1
1512180466,-0.0302,0.0186,0.0732,74.10,-78.00,971.68,0,5,-1
1512180466,-0.0188,0.0254,0.0711,43.95,-88.07,944.64,0,5,-1
1512180466,-0.0084,0.0286,0.0722,38.94,-67.63,856.57,0,5,-1
1512180466,-0.0272,0.0108,0.0690,41.14,-109.13,903.63,0,5,-1
1512180466,-0.0433,-0.0056,0.0648,67.08,-80.63,971.13,12,-10,-10
1512180466,0.0161,0.0075,0.0662,-4.64,-61.34,1058.65,12,-10,-10
1512180466,-0.0177,0.0210,0.0618,22.28,-115.11,932.07,12,-10,-10
1512180466,0.0310,0.0467,0.0619,72.14,-40.59,881.41,12,-10,-10
1512180466,0.0105,0.0236,0.0554,61.34,-102.05,908.87,12,-10,-10
1512180466,-0.0181,-0.0004,0.0574,25.94,-45.59,951.11,3,8,-18
1512180466,0.0055,0.0198,0.0652,-5.55,-57.80,1002.01,3,8,-18
1512180466,0.0049,0.0266,0.0613,18.62,-30.94,1024.78,3,8,-18
1512180466,0.0254,0.0356,0.0603,39.25,-111.76,860.90,3,8,-18
1512180466,-0.0075,0.0029,0.0780,15.93,-30.64,998.17,8,-17,-3
1512180466,0.0161,0.0013,0.0555,20.14,-65.31,938.11,8,-17,-3
1512180466,0.0338,0.0056,0.0585,24.66,-97.90,1055.85,8,-17,-3
1512180466,0.0097,-0.0044,0.0530,41.81,-36.19,962.40,8,-17,-3
1512180466,0.0182,0.0032,0.0485,50.78,-84.11,997.19,8,-17,-3
1512180466,0.0220,0.0072,0.0364,72.63,-56.03,1001.40,1,-7,-16
1512180466,0.0324,0.0160,0.0354,54.02,-83.19,970.09,1,-7,-16
1512180466,0.0278,0.0200,0.0324,68.36,-71.17,938.90,1,-7,-16
1512180466,0.0161,0.0209,0.0352,63.60,-40.59,964.29,1,-7,-16
1512180466,0.0265,0.0361,0.0344,57.86,-77.03,975.83,1,-7,-16
1512180466,0.0478,0.0574,0.0372,64.45,40.22,947.14,-1,-3,-10
1512180466,0.0248,0.0401,0.0329,55.48,-58.23,983.03,-1,-3,-10
1512180466,0.0422,0.0354,0.0334,35.83,-40.95,937.56,-1,-3,-10
1512180466,0.0248,0.0397,0.0346,-0.73,-17.09,962.28,-1,-3,-10
1512180466,0.0264,0.0594,0.0232,-3.05,-45.59,942.14,-7,8,-11
1512180466,0.0075,0.0706,0.0146,31.07,-52.31,977.91,-7,8,-11
1512180466,0.0134,0.0566,0.0157,22.77,-57.98,923.95,-7,8,-11
1512180466,0.0144,0.0329,0.0156,14.83,-35.40,963.50,-7,8,-11
1512180467,0.0140,0.0214,0.0165,2.44,-63.05,952.03,-7,8,-11
1512180467,0.0273,0.0166,0.0193,18.62,-57.43,907.90,-10,-12,-11
1512180467,0.0189,0.0164,0.0198,26.86,-36.74,936.34,-10,-12,-11
1512180467,0.0333,0.0125,0.0157,6.53,-60.49,914.79,-10,-12,-11
1512180467,0.0407,0.0138,0.0150,-20.14,-24.60,994.75,-10,-12,-11
1512180467,0.0406,0.0172,0.0152,-27.89,-30.03,927.06,-10,-12,-11
1512180467,0.0326,0.0145,0.0065,-34.67,-43.27,943.79,-1,3,-10
1512180467,0.0390,0.0165,0.0045,7.02,-32.41,935.85,-1,3,-10
1512180467,0.0411,0.0141,0.0080,-17.52,-27.65,983.83,-1,3,-10
1512180467,0.0099,0.0158,0.0044,37.17,-59.45,988.83,-1,3,-10
1512180467,0.0238,0.0136,0.0099,-44.25,-17.82,954.04,3,-15,-15
1512180467,0.0241,0.0008,0.0060,-1.34,-46.94,931.15,3,-15,-15
1512180467,0.0366,-0.0064,0.0044,-46.20,-47.18,928.53,3,-15,-15
1512180467,0.0301,0.0112,0.0007,-10.56,-60.85,930.91,3,-15,-15
1512180467,0.0325,0.0188,-0.0021,-25.09,-36.32,913.21,3,-15,-15
1512180467,0.0409,0.0172,-0.0033,-17.94,-60.73,859.92,-7,-5,-22
1512180467,0.0485,0.0173,-0.0051,-18.43,-22.83,925.23,-7,-5,-22
1512180467,0.0300,0.0088,-0.0116,0.79,-79.65,928.65,-7,-5,-22
1512180467,0.0366,0.0069,-0.0119,-2.93,-39.25,953.06,-7,-5,-22
1512180467,0.0262,0.0000,-0.0119,-0.06,-68.91,976.07,-10,5,-8
1512180467,0.0380,-0.0081,-0.0048,-11.90,-23.19,944.46,-10,5,-8
1512180467,0.0366,-0.0072,-0.0081,-9.03,-59.57,935.42,-10,5,-8
1512180467,0.0577,0.0039,-0.0100,21.06,-30.21,926.76,-10,5,-8
1512180467,0.0312,-0.0011,-0.0136,29.11,-48.34,909.18,-10,5,-8
1512180467,0.0555,0.0052,-0.0145,-23.80,-27.53,918.09,-5,10,-6
1512180467,0.0362,-0.0119,-0.0210,16.42,-31.74,950.56,-5,10,-6
1512180467,0.0280,-0.0120,-0.0241,-19.84,-49.26,921.87,-5,10,-6
1512180467,0.0306,-0.0088,-0.0212,-0.49,-16.54,915.53,-5,10,-6
1512180467,0.0362,-0.0060,-0.0196,-16.78,-23.50,969.24,-5,10,-6
1512180467,0.0120,-0.0128,-0.0230,-1.46,-53.71,918.46,-5,-10,-6
1512180467,0.0130,-0.0073,-0.0230,13.55,-35.52,961.98,-5,-10,-6
1512180467,0.0220,-0.0170,-0.0242,-4.76,-23.25,966.86,-5,-10,-6
1512180467,0.0119,-0.0194,-0.0276,18.07,-26.92,927.19,-5,-10,-6
1512180467,0.0148,-0.0081,-0.0326,34.61,-43.03,952.70,1,7,-10
1512180467,0.0201,-0.0008,-0.0341,22.89,-26.67,990.54,1,7,-10
1512180467,0.0017,-0.0193,-0.0361,-2.26,-37.05,950.32,1,7,-10
1512180467,0.0368,-0.0099,-0.0364,-9.16,-24.29,947.94,1,7,-10
1512180467,0.0374,-0.0129,-0.0391,-54.93,-44.62,955.69,1,7,-10
1512180468,0.0113,-0.0286,-0.0415,-6.59,-5.55,932.13,-8,-3,-13
1512180468,0.0168,-0.0192,-0.0338,1.46,-49.62,952.88,-8,-3,-13
1512180468,0.0008,-0.0258,-0.0413,24.54,-39.86,959.84,-8,-3,-13
1512180468,-0.0017,-0.0248,-0.0446,-26.18,-47.30,975.16,-8,-3,-13
1512180468,0.0132,-0.0146,-0.0470,-15.08,-14.34,930.73,10,-1,8
1512180468,0.0001,-0.0196,-0.0525,-2.26,-58.96,938.17,10,-1,8
1512180468,0.0209,-0.0210,-0.0535,-6.84,-20.14,930.79,10,-1,8
1512180468,0.0069,-0.0341,-0.0558,-39.43,-11.60,912.29,10,-1,8
1512180468,0.0109,-0.0437,-0.0605,-44.68,-26.25,960.39,10,-1,8
1512180468,-0.0053,-0.0337,-0.0614,-31.56,-24.66,946.17,-28,-1,-1
1512180468,-0.0117,-0.0206,-0.0686,-25.15,-63.11,959.23,-28,-1,-1
1512180468,0.0146,-0.0210,-0.0734,-26.61,-32.65,937.13,-28,-1,-1
1512180468,0.0079,-0.0317,-0.0750,28.93,-30.82,967.29,-28,-1,-1
1512180468,0.0025,-0.0262,-0.0794,9.46,-48.22,976.01,-28,-1,-1
1512180468,0.0169,-0.0236,-0.0774,-2.87,-10.50,912.35,-17,1,-8
1512180468,-0.0142,-0.0306,-0.0878,16.97,-59.63,977.36,-17,1,-8
1512180468,-0.0009,-0.0260,-0.0884,-3.05,-55.66,981.32,-17,1,-8
1512180468,0.0007,-0.0261,-0.0876,1.40,-30.09,934.57,-17,1,-8
1512180468,0.0009,-0.0325,-0.0893,19.65,-27.95,965.76,-14,-12,-8
1512180468,-0.0020,-0.0383,-0.0931,9.03,-41.93,971.01,-14,-12,-8
1512180468,0.0092,-0.0385,-0.0924,-22.34,31.74,934.94,-14,-12,-8
1512180468,0.0076,-0.0288,-0.0928,3.78,-15.32,965.94,-14,-12,-8
1512180468,-0.0240,-0.0278,-0.0847,3.85,13.98,1035.83,-14,-12,-8
1512180468,-0.0248,-0.0045,-0.1061,32.23,-37.84,977.48,-14,1,18
1512180468,-0.0245,-0.0025,-0.1060,18.74,-3.60,1012.21,-14,1,18
1512180468,-0.0152,-0.0087,-0.1060,19.41,-1.46,984.62,-14,1,18
1512180468,-0.0012,-0.0174,-0.1059,-27.22,-7.20,941.77,-14,1,18
1512180468,-0.0244,-0.0237,-0.1079,-26.18,-3.66,953.80,-14,1,18
1512180468,-0.0178,-0.0200,-0.1136,-25.88,-34.12,972.60,-5,7,23
1512180468,-0.0244,-0.0246,-0.1185,-31.62,-12.21,991.15,-5,7,23
1512180468,-0.0130,-0.0220,-0.1237,-38.15,-30.52,890.93,-5,7,23
1512180468,-0.0117,-0.0374,-0.1289,-67.26,-35.22,882.32,-5,7,23
1512180468,-0.0256,-0.0481,-0.1314,-31.43,-27.65,935.91,0,1,32
1512180468,-0.0120,-0.0348,-0.1333,-61.22,-3.91,927.80,0,1,32
1512180468,-0.0004,-0.0241,-0.1345,-18.74,-15.56,1009.77,0,1,32
1512180468,-0.0134,-0.0127,-0.1349,61.34,-7.02,915.16,0,1,32
1512180468,-0.0264,-0.0169,-0.1393,40.22,-54.63,972.66,0,1,32
1512180468,-0.0105,-0.0297,-0.1392,-17.58,-41.08,938.72,17,8,22
1512180469,0.0023,-0.0284,-0.1366,-24.41,-1.22,973.82,17,8,22
1512180469,-0.0059,-0.0161,-0.1386,-5.80,-40.22,955.51,17,8,22
1512180469,-0.0148,-0.0040,-0.1385,-3.85,-64.39,950.38,17,8,22
1512180469,0.0019,0.0109,-0.1397,-15.69,-36.32,911.25,3,8,-1
1512180469,-0.0273,-0.0084,-0.1442,-24.84,-66.10,947.94,3,8,-1
1512180469,-0.0356,-0.0162,-0.1324,-76.29,28.26,964.42,3,8,-1
1512180469,-0.0241,-0.0181,-0.1441,-55.24,-16.54,968.57,3,8,-1
1512180469,-0.0277,-0.0136,-0.1533,-72.75,-17.40,1018.25,3,8,-1
1512180469,0.0109,0.0101,-0.1515,-58.59,32.84,982.67,-8,0,-3
1512180469,0.0189,0.0080,-0.1594,-18.68,-25.27,989.50,-8,0,-3
1512180469,0.0276,0.0047,-0.1637,-9.03,-0.55,931.88,-8,0,-3
1512180469,0.0075,0.0041,-0.1672,-41.02,-4.15,995.61,-8,0,-3
1512180469,0.0298,0.0117,-0.1679,-41.99,22.03,966.00,-8,0,-3
1512180469,0.0123,0.0201,-0.1694,-30.09,5.74,956.05,-5,-17,-13
1512180469,0.0281,0.0212,-0.1692,-62.81,15.26,963.62,-5,-17,-13
1512180469,0.0053,0.0174,-0.1743,-48.52,-11.47,927.80,-5,-17,-13
1512180469,-0.0165,0.0060,-0.1750,-57.56,-21.61,934.27,-5,-17,-13
1512180469,-0.0214,-0.0039,-0.1726,-24.78,7.69,894.96,-12,-7,-6
1512180469,-0.0352,-0.0117,-0.1790,-60.67,-13.12,915.89,-12,-7,-6
1512180469,-0.0346,0.0016,-0.1794,-89.42,21.55,971.56,-12,-7,-6
1512180469,-0.0334,0.0044,-0.1784,-37.23,66.96,1016.78,-12,-7,-6
1512180469,-0.0447,-0.0170,-0.1868,-55.60,-31.49,988.22,-12,-7,-6
1512180469,-0.0354,-0.0154,-0.1965,-67.02,25.70,954.59,-8,-14,3
1512180469,0.0101,0.0000,-0.1916,-70.13,25.88,986.45,-8,-14,3
1512180469,0.0107,-0.0132,-0.2012,-56.34,-18.74,924.93,-8,-14,3
1512180469,-0.0075,-0.0181,-0.1975,-30.70,26.49,935.67,-8,-14,3
1512180469,0.0033,-0.0068,-0.2001,-63.23,0.73,995.85,-8,-14,3
1512180469,0.0095,-0.0091,-0.1993,-28.75,37.41,966.25,-5,-28,3
1512180469,0.0076,-0.0016,-0.1991,-30.76,24.35,986.51,-5,-28,3
1512180469,0.0154,0.0107,-0.2057,-48.95,21.30,1018.62,-5,-28,3
1512180469,-0.0344,0.0023,-0.2115,-38.70,-10.99,901.86,-5,-28,3
1512180469,-0.0224,0.0075,-0.2165,-58.11,-3.30,987.49,-19,-31,-10
1512180469,-0.0350,0.0112,-0.2160,-54.32,27.65,968.32,-19,-31,-10
1512180469,0.0097,0.0192,-0.2081,-49.87,37.29,971.98,-19,-31,-10
1512180469,-0.0055,0.0069,-0.2129,-30.64,48.89,950.81,-19,-31,-10
1512180469,-0.0117,0.0020,-0.2156,-24.35,15.14,963.13,-19,-31,-10
1512180469,-0.0205,0.0028,-0.2202,-21.79,20.94,998.60,-19,-3,-13
1512180469,-0.0093,0.0269,-0.2156,-73.91,23.74,1016.48,-19,-3,-13
1512180470,-0.0252,0.0221,-0.2192,-27.59,4.33,978.76,-19,-3,-13
1512180470,0.0021,0.0146,-0.2143,-74.95,36.07,960.14,-19,-3,-13
1512180470,-0.0209,-0.0009,-0.2204,-50.17,26.06,1029.79,-19,-3,-13
1512180470,-0.0269,0.0185,-0.2194,-47.18,79.28,1001.77,-17,-15,-1
1512180470,-0.0213,0.0253,-0.2234,-67.69,35.10,1024.78,-17,-15,-1
1512180470,-0.0182,0.0282,-0.2252,-57.07,52.43,946.53,-17,-15,-1
1512180470,-0.0107,0.0182,-0.2178,-102.66,22.03,958.07,-17,-15,-1
1512180470,-0.0398,0.0164,-0.1977,-93.02,70.19,982.06,-24,-12,-15
1512180470,-0.0447,0.0200,-0.2282,-63.29,6.59,934.69,-24,-12,-15
1512180470,-0.0586,0.0079,-0.2296,-55.05,39.49,927.25,-24,-12,-15
1512180470,-0.0499,0.0168,-0.2242,-63.66,35.77,980.90,-24,-12,-15
1512180470,-0.0503,0.0005,-0.2314,-51.57,14.53,920.47,-24,-12,-15
1512180470,-0.0360,0.0088,-0.2346,-47.61,-5.19,946.84,-45,-29,-11
1512180470,-0.0679,0.0144,-0.2234,-84.17,67.93,953.67,-45,-29,-11
1512180470,-0.0205,0.0250,-0.2384,-10.50,34.55,1037.60,-45,-29,-11
1512180470,-0.0228,0.0051,-0.2352,-62.01,33.63,991.70,-45,-29,-11
1512180470,-0.0386,0.0130,-0.2358,-22.89,6.90,983.40,-56,-29,-5
1512180470,-0.0180,0.0453,-0.2360,9.64,49.26,870.48,-56,-29,-5
1512180470,-0.0011,0.0629,-0.2356,-56.64,30.82,943.18,-56,-29,-5
1512180470,-0.0316,0.0557,-0.2431,-27.65,39.86,932.31,-56,-29,-5
1512180470,-0.0249,0.0663,-0.2389,-66.04,51.88,1014.10,-56,-29,-5
1512180470,-0.0322,0.0607,-0.2409,-71.17,21.55,1028.32,-43,-35,-6
1512180470,0.0009,0.0531,-0.2336,-115.48,50.54,972.35,-43,-35,-6
1512180470,-0.0152,0.0465,-0.2386,-112.49,18.68,864.38,-43,-35,-6
1512180470,-0.0328,0.0157,-0.2418,-122.99,21.55,994.08,-43,-35,-6
1512180470,-0.0129,0.0174,-0.2372,-96.07,28.93,973.69,-43,-35,-6
1512180470,-0.0140,0.0200,-0.2427,-53.47,13.61,977.23,-43,-28,-3
1512180470,0.0011,0.0084,-0.2405,-70.50,29.54,937.32,-43,-28,-3
1512180470,-0.0241,-0.0051,-0.2435,-41.02,36.13,1012.39,-43,-28,-3
1512180470,-0.0264,-0.0142,-0.2423,-66.28,41.50,959.23,-43,-28,-3
1512180470,-0.0140,0.0103,-0.2414,-21.67,43.27,988.53,-52,-29,-11
1512180470,-0.0112,0.0117,-0.2425,-47.06,43.46,954.53,-52,-29,-11
1512180470,-0.0127,0.0039,-0.2417,-52.31,74.10,1013.06,-52,-29,-11
1512180470,-0.0085,-0.0107,-0.2390,-103.94,32.65,973.27,-52,-29,-11
1512180470,-0.0091,-0.0024,-0.2386,-70.56,49.26,925.17,-52,-29,-11
1512180470,-0.0302,0.0043,-0.2384,-76.17,42.66,966.80,-50,-28,-10
1512180470,-0.0063,0.0057,-0.2376,-88.44,44.98,954.16,-50,-28,-10
1512180471,0.0029,0.0028,-0.2366,-61.46,40.53,925.66,-50,-28,-10
1512180471,-0.0004,0.0165,-0.2349,-36.93,39.43,970.46,-50,-28,-10
1512180471,-0.0041,0.0213,-0.2333,-54.38,30.70,907.78,-59,-33,-8
1512180471,-0.0028,0.0174,-0.2305,-102.23,22.03,988.65,-59,-33,-8
1512180471,-0.0116,0.0072,-0.2326,-40.83,47.91,986.88,-59,-33,-8
1512180471,-0.0039,0.0064,-0.2300,-53.28,41.26,978.88,-59,-33,-8
1512180471,0.0012,0.0039,-0.2310,-120.24,36.62,994.63,-59,-33,-8
1512180471,-0.0027,0.0127,-0.2328,-77.03,18.92,961.98,-73,-29,-1
1512180471,-0.0107,0.0206,-0.2372,-56.64,49.32,905.88,-73,-29,-1
1512180471,0.0031,0.0336,-0.2381,-29.97,26.79,963.62,-73,-29,-1
1512180471,0.0177,0.0224,-0.2382,-44.31,25.88,969.24,-73,-29,-1
1512180471,0.0172,0.0172,-0.2366,-34.79,67.63,973.82,-73,-29,-1
1512180471,0.0109,0.0168,-0.2350,-52.12,0.43,1007.81,-80,-44,11
1512180471,0.0017,0.0049,-0.2301,-77.21,27.34,985.41,-80,-44,11
1512180471,0.0198,0.0025,-0.2202,-71.53,69.76,897.34,-80,-44,11
1512180471,-0.0055,0.0021,-0.2246,-63.23,30.58,943.05,-80,-44,11
1512180471,0.0035,0.0041,-0.2216,-51.03,56.09,998.54,-98,-37,-1
1512180471,-0.0035,-0.0021,-0.2189,-79.83,47.61,1039.37,-98,-37,-1
1512180471,0.0007,-0.0148,-0.2210,-48.52,64.82,961.36,-98,-37,-1
1512180471,0.0071,-0.0186,-0.2181,-106.63,28.93,988.16,-98,-37,-1
1512180471,0.0072,-0.0085,-0.2189,-91.61,21.67,952.51,-98,-37,-1
1512180471,0.0130,0.0015,-0.2148,-45.04,59.69,967.90,-86,-49,-16
1512180471,0.0033,-0.0003,-0.2176,-74.83,43.58,1003.54,-86,-49,-16
1512180471,0.0031,-0.0023,-0.2137,-63.17,55.30,984.50,-86,-49,-16
1512180471,0.0053,-0.0178,-0.2115,-99.73,60.18,953.86,-86,-49,-16
1512180471,0.0017,-0.0242,-0.2117,-83.25,13.92,996.40,-86,-49,-16
1512180471,-0.0001,-0.0123,-0.2099,-74.04,50.48,943.91,-93,-42,-16
1512180471,0.0233,0.0087,-0.2060,-63.29,26.12,915.65,-93,-42,-16
1512180471,-0.0103,0.0011,-0.2080,-35.89,27.47,1026.61,-93,-42,-16
1512180471,0.0008,0.0015,-0.2045,-10.74,53.83,987.79,-93,-42,-16
1512180471,-0.0013,0.0101,-0.2052,-50.35,74.40,977.54,-108,-40,-1
1512180471,-0.0146,0.0077,-0.2040,-41.69,18.80,987.85,-108,-40,-1
1512180471,0.0089,0.0092,-0.2004,-67.20,61.28,956.97,-108,-40,-1
1512180471,0.0301,0.0008,-0.1955,-104.37,60.67,978.94,-108,-40,-1
1512180471,0.0111,-0.0133,-0.1933,-68.12,57.43,939.94,-108,-40,-1
1512180471,-0.0005,-0.0128,-0.1884,-29.42,44.13,948.30,-96,-52,-13
1512180471,-0.0027,-0.0104,-0.1864,-46.14,37.72,947.57,-96,-52,-13
1512180471,-0.0186,-0.0035,-0.1908,-45.90,36.07,942.02,-96,-52,-13
1512180472,-0.0190,-0.0019,-0.1931,-17.46,26.18,977.84,-96,-52,-13
1512180472,-0.0229,-0.0077,-0.1957,-45.17,49.99,984.13,-114,-38,-10
1512180472,0.0011,-0.0039,-0.1892,-44.25,65.67,964.11,-114,-38,-10
1512180472,-0.0180,0.0048,-0.1900,-56.46,-7.57,969.42,-114,-38,-10
1512180472,-0.0356,0.0157,-0.1850,-25.63,47.61,923.65,-114,-38,-10
1512180472,-0.0109,0.0173,-0.1758,-50.84,23.86,934.94,-114,-38,-10
1512180472,-0.0297,-0.0048,-0.1719,-21.73,2.87,942.75,-117,-49,-3
1512180472,-0.0209,-0.0128,-0.1594,-3.42,45.35,1002.08,-117,-49,-3
1512180472,-0.0170,-0.0186,-0.1662,-56.27,-14.71,1015.75,-117,-49,-3
1512180472,-0.0210,-0.0080,-0.1686,-56.95,50.66,1042.11,-117,-49,-3
1512180472,-0.0166,-0.0033,-0.1710,-47.79,7.57,1017.70,-117,-49,-3
1512180472,0.0101,-0.0076,-0.1688,-31.56,-0.85,875.98,-122,-44,-11
1512180472,0.0149,-0.0308,-0.1646,-68.36,10.38,824.95,-122,-44,-11
1512180472,0.0079,-0.0599,-0.1648,-102.72,40.10,993.10,-122,-44,-11
1512180472,-0.0184,-0.0585,-0.1635,-77.82,55.66,1055.48,-122,-44,-11
1512180472,-0.0108,-0.0140,-0.1676,-38.33,31.68,1019.71,-124,-49,-10
1512180472,-0.0041,0.0202,-0.1667,25.57,22.95,979.06,-124,-49,-10
1512180472,0.0000,0.0092,-0.1651,59.75,19.35,939.33,-124,-49,-10
1512180472,-0.0076,-0.0109,-0.1550,43.15,-14.16,996.64,-124,-49,-10
1512180472,-0.0242,-0.0241,-0.1362,-45.17,28.02,1017.21,-124,-49,-10
1512180472,-0.0381,-0.0112,-0.1381,-52.06,43.09,992.13,-133,-44,-8
1512180472,-0.0334,0.0261,-0.1453,2.75,-18.37,989.50,-133,-44,-8
1512180472,0.0023,0.0376,-0.1330,-6.29,28.02,962.46,-133,-44,-8
1512180472,-0.0285,0.0161,-0.1356,8.36,-0.73,1003.91,-133,-44,-8
1512180472,-0.0310,-0.0023,-0.1337,-8.79,19.17,938.78,-133,-44,-8
1512180472,-0.0176,0.0149,-0.1254,-2.38,9.64,904.66,-138,-35,-6
1512180472,-0.0027,0.0178,-0.1200,-21.18,21.55,953.80,-138,-35,-6
1512180472,-0.0140,0.0044,-0.1115,-20.51,0.43,945.13,-138,-35,-6
1512180472,-0.0019,0.0069,-0.1017,27.95,5.31,953.43,-138,-35,-6
1512180472,-0.0238,0.0100,-0.0901,25.09,3.42,991.03,-137,-29,-1
1512180472,-0.0224,0.0081,-0.0844,36.68,-20.26,972.11,-137,-29,-1
1512180472,-0.0213,0.0092,-0.0715,82.15,-0.43,987.43,-137,-29,-1
1512180472,-0.0284,0.0170,-0.0662,63.05,-4.03,957.82,-137,-29,-1
1512180472,-0.0104,0.0261,-0.0545,55.05,-9.70,957.34,-137,-29,-1
1512180472,-0.0172,0.0174,-0.0449,39.25,3.17,976.01,-147,-26,-1
1512180472,0.0065,0.0152,-0.0329,58.23,-34.97,955.99,-147,-26,-1
1512180472,-0.0012,-0.0015,-0.0202,47.30,8.06,937.87,-147,-26,-1
1512180473,0.0105,0.0067,-0.0100,65.67,2.99,921.20,-147,-26,-1
1512180473,-0.0192,0.0048,-0.0064,64.94,-35.10,987.24,-142,-42,0
1512180473,-0.0033,0.0084,0.0071,69.15,12.39,919.98,-142,-42,0
1512180473,-0.0142,0.0144,0.0053,55.30,-3.78,1023.19,-142,-42,0
1512180473,-0.0013,0.0132,0.0099,66.28,-0.85,997.01,-142,-42,0
1512180473,0.0212,0.0225,0.0181,53.71,21.06,954.41,-142,-42,0
1512180473,0.0027,0.0194,0.0234,62.99,-23.38,1047.85,-142,-21,-13
1512180473,0.0081,0.0269,0.0294,63.90,-4.27,972.66,-142,-21,-13
1512180473,0.0000,0.0350,0.0362,65.73,-32.78,962.95,-142,-21,-13
1512180473,0.0005,0.0345,0.0426,73.12,-39.18,928.96,-142,-21,-13
1512180473,-0.0051,0.0220,0.0466,42.48,-39.31,897.58,-142,-21,-13
1512180473,-0.0250,0.0111,0.0498,43.09,-64.82,959.29,-138,-28,3
1512180473,-0.0325,0.0137,0.0535,24.35,-85.51,913.51,-138,-28,3
1512180473,-0.0332,0.0326,0.0530,22.58,-95.76,915.59,-138,-28,3
1512180473,-0.0277,0.0294,0.0542,44.37,-123.66,924.68,-138,-28,3
1512180473,-0.0229,0.0168,0.0565,7.69,-86.98,914.37,-130,-1,-1
1512180473,-0.0286,0.0116,0.0597,28.08,-103.15,953.74,-130,-1,-1
1512180473,-0.0040,0.0109,0.0658,-5.98,-89.42,976.14,-130,-1,-1
1512180473,-0.0097,0.0210,0.0711,23.62,-68.91,984.19,-130,-1,-1
1512180473,-0.0101,0.0065,0.0735,-9.28,-113.89,982.85,-130,-1,-1
1512180473,-0.0055,0.0013,0.0700,35.95,-72.88,980.04,-128,-31,3
1512180473,-0.0059,-0.0099,0.0670,36.87,-86.67,1001.65,-128,-31,3
1512180473,0.0021,-0.0115,0.0690,57.31,-103.45,942.14,-128,-31,3
1512180473,0.0115,-0.0040,0.0674,34.18,-73.91,952.33,-128,-31,3
1512180473,0.0083,-0.0112,0.0656,-5.55,-110.17,930.66,-128,-31,3
1512180473,0.0169,-0.0238,0.0723,36.07,-101.75,914.55,-135,-21,-3
1512180473,0.0246,-0.0222,0.0738,18.98,-105.04,908.57,-135,-21,-3
1512180473,0.0240,-0.0210,0.0827,25.15,-79.35,950.44,-135,-21,-3
1512180473,0.0257,-0.0160,0.0824,67.50,-98.88,910.22,-135,-21,-3
1512180473,0.0017,-0.0057,0.0848,45.23,-63.72,1025.02,-128,-31,6
1512180473,0.0146,0.0254,0.0864,58.41,-94.30,1049.99,-128,-31,6
1512180473,0.0065,0.0318,0.0864,54.93,-85.27,1033.75,-128,-31,6
1512180473,0.0317,0.0415,0.0876,42.60,-85.27,980.29,-128,-31,6
1512180473,0.0161,0.0306,0.0908,49.99,-70.80,974.98,-128,-31,6
1512180473,-0.0081,0.0214,0.0999,79.96,-47.00,979.06,-112,-15,11
1512180473,-0.0232,0.0324,0.1051,36.19,-86.49,969.30,-112,-15,11
1512180473,-0.0354,0.0411,0.1135,37.60,-52.19,972.29,-112,-15,11
1512180473,-0.0309,0.0430,0.1131,85.94,-58.23,963.38,-112,-15,11
1512180474,-0.0127,0.0298,0.1157,59.14,-67.50,932.07,-112,-15,11
1512180474,-0.0067,0.0064,0.1180,74.28,-4.03,916.38,-112,-22,5
1512180474,-0.0309,-0.0177,0.1139,51.15,-85.45,980.53,-112,-22,5
1512180474,-0.0169,-0.0268,0.1168,0.85,-16.42,1005.07,-112,-22,5
1512180474,-0.0130,0.0005,0.1149,52.80,-0.73,1011.23,-112,-22,5
1512180474,-0.0020,-0.0001,0.1201,36.25,-49.19,958.01,-117,-17,10
1512180474,-0.0005,-0.0064,0.1245,68.18,-20.45,963.20,-117,-17,10
1512180474,0.0092,-0.0233,0.1344,61.65,-40.59,937.13,-117,-17,10
1512180474,0.0233,-0.0280,0.1422,54.57,-38.21,908.51,-117,-17,10
1512180474,0.0198,-0.0188,0.1505,85.39,-19.47,884.09,-117,-17,10
1512180474,0.0075,-0.0174,0.1525,90.09,-52.73,1021.24,-119,-15,5
1512180474,-0.0024,-0.0160,0.1598,80.32,-20.51,938.48,-119,-15,5
1512180474,0.0089,-0.0072,0.1646,73.85,-34.55,964.23,-119,-15,5
1512180474,0.0108,-0.0060,0.1666,126.22,-14.28,895.45,-119,-15,5
1512180474,0.0107,0.0004,0.1730,140.01,-25.15,888.73,-119,-15,5
1512180474,0.0242,-0.0016,0.1766,98.75,-54.93,973.08,-107,-17,-6
1512180474,-0.0017,-0.0068,0.1812,126.28,-28.81,919.25,-107,-17,-6
1512180474,0.0134,0.0085,0.1904,93.63,-1.22,916.50,-107,-17,-6
1512180474,0.0142,0.0039,0.1997,74.89,-22.40,984.92,-107,-17,-6
1512180474,0.0087,0.0108,0.2048,122.62,-35.83,937.93,-105,-19,8
1512180474,0.0148,0.0048,0.2168,58.47,16.36,977.54,-105,-19,8
1512180474,0.0209,0.0055,0.2226,58.59,5.07,942.08,-105,-19,8
1512180474,0.0202,-0.0081,0.2308,85.33,43.95,918.21,-105,-19,8
1512180474,0.0112,-0.0144,0.2258,33.57,-0.12,1024.78,-105,-19,8
1512180474,0.0133,-0.0100,0.2649,106.57,-13.12,953.49,-98,-22,15
1512180474,0.0214,-0.0065,0.2350,123.05,-22.64,948.91,-98,-22,15
1512180474,0.0214,0.0007,0.2397,94.60,-7.45,988.65,-98,-22,15
1512180474,0.0047,0.0008,0.2425,141.05,-12.94,979.74,-98,-22,15
1512180474,0.0270,0.0024,0.2421,137.94,10.38,983.22,-80,-19,5
1512180474,0.0454,0.0222,0.2396,148.68,12.94,988.71,-80,-19,5
1512180474,0.0603,0.0252,0.2425,117.25,7.26,955.87,-80,-19,5
1512180474,0.0634,0.0352,0.2663,122.92,-8.61,967.59,-80,-19,5
1512180474,0.0422,0.0253,0.2687,96.74,-21.18,967.71,-80,-19,5
1512180474,0.0581,0.0313,0.3124,78.55,30.27,1001.59,-65,-3,-3
1512180474,0.0477,0.0165,0.2723,65.73,17.09,928.28,-65,-3,-3
1512180474,0.0266,0.0152,0.2639,40.95,-0.43,943.73,-65,-3,-3
1512180474,0.0422,0.0181,0.2662,94.18,11.05,890.93,-65,-3,-3
1512180474,0.0161,0.0073,0.2672,103.21,-13.12,914.12,-65,-3,-3
1512180475,0.0288,0.0024,0.2686,117.98,7.63,914.55,-63,15,-11
1512180475,0.0071,0.0044,0.2710,93.81,-12.15,947.94,-63,15,-11
1512180475,0.0169,0.0051,0.2726,82.09,11.60,1035.34,-63,15,-11
1512180475,0.0332,-0.0005,0.2811,79.83,-7.20,958.19,-63,15,-11
1512180475,0.0162,-0.0043,0.2759,54.57,1.53,987.92,-63,15,-11
1512180475,0.0129,-0.0190,0.2811,108.95,-5.43,938.60,-56,-12,-5
1512180475,0.0137,-0.0178,0.2846,93.81,-3.60,964.29,-56,-12,-5
1512180475,0.0061,-0.0178,0.2903,108.40,22.77,867.37,-56,-12,-5
1512180475,0.0093,-0.0161,0.2882,83.92,-6.04,1028.99,-56,-12,-5
1512180475,0.0165,-0.0274,0.2935,124.76,0.92,923.77,-42,5,-18
1512180475,0.0194,-0.0209,0.2928,117.68,-1.28,924.32,-42,5,-18
1512180475,0.0284,-0.0067,0.2971,123.54,22.28,907.41,-42,5,-18
1512180475,0.0237,0.0109,0.2903,167.60,-26.31,989.81,-42,5,-18
1512180475,0.0127,0.0119,0.2924,162.48,4.03,974.55,-42,5,-18
1512180475,0.0150,0.0158,0.2976,125.85,-3.17,956.97,-57,10,3
1512180475,0.0599,0.0246,0.3059,128.17,38.09,923.71,-57,10,3
1512180475,0.0246,0.0148,0.3052,120.30,-9.52,953.55,-57,10,3
1512180475,0.0599,0.0273,0.3152,76.54,12.51,977.42,-57,10,3
1512180475,0.0240,0.0292,0.3168,74.28,-16.85,961.91,-33,10,3
1512180475,0.0245,0.0338,0.3214,89.97,-38.70,988.46,-33,10,3
1512180475,0.0305,0.0224,0.3228,78.55,-32.04,997.99,-33,10,3
1512180475,0.0193,0.0225,0.3273,42.91,26.06,1031.37,-33,10,3
1512180475,0.0360,0.0361,0.3234,59.33,-1.34,985.90,-33,10,3
1512180475,0.0224,0.0289,0.3305,75.07,0.31,1010.07,-42,-8,5
1512180475,0.0208,0.0298,0.3385,56.52,19.17,1021.73,-42,-8,5
1512180475,0.0140,0.0117,0.3260,67.26,20.20,1012.63,-42,-8,5
1512180475,-0.0005,0.0132,0.3304,86.55,23.07,952.09,-42,-8,5
1512180475,0.0104,0.0273,0.3314,81.97,11.78,925.60,-21,12,1
1512180475,0.0132,0.0320,0.3396,85.57,-13.00,886.23,-21,12,1
1512180475,0.0097,0.0088,0.3397,88.68,-6.16,923.40,-21,12,1
1512180475,0.0081,0.0025,0.3401,83.50,33.69,977.29,-21,12,1
1512180475,-0.0397,0.0019,0.3322,102.17,-52.98,1086.06,-21,12,1
1512180475,-0.0342,0.0115,0.3330,95.40,-45.53,963.87,-15,21,6
1512180475,-0.0084,0.0423,0.3374,116.39,8.54,882.87,-15,21,6
1512180475,-0.0079,0.0579,0.3217,142.40,-74.40,948.85,-15,21,6
1512180475,0.0397,0.0687,0.3266,58.59,-54.99,806.70,-15,21,6
1512180475,0.0121,0.0333,0.3244,84.59,-59.39,1018.43,-15,21,6
1512180475,0.0842,0.0361,0.3301,46.51,-30.88,986.45,5,21,13
1512180476,0.0008,0.0084,0.3348,12.15,-18.62,915.28,5,21,13
1512180476,0.0232,0.0233,0.3366,39.06,-32.90,1022.28,5,21,13
1512180476,0.0293,0.0137,0.3336,67.32,-15.20,1005.49,5,21,13
1512180476,0.0201,0.0045,0.3341,79.96,-19.90,962.46,5,35,3
1512180476,0.0230,0.0198,0.3304,86.91,-19.04,1040.53,5,35,3
1512180476,-0.0056,-0.0035,0.3240,141.97,-51.94,1002.38,5,35,3
1512180476,0.0140,0.0045,0.3254,81.48,-11.47,964.23,5,35,3
1512180476,-0.0117,-0.0047,0.3278,108.09,-40.28,994.08,5,35,3
1512180476,0.0329,-0.0013,0.3341,67.75,-13.73,952.76,14,33,22
1512180476,0.0190,-0.0015,0.3405,128.85,36.93,881.35,14,33,22
1512180476,0.0226,-0.0085,0.3455,113.40,-9.03,997.92,14,33,22
1512180476,0.0040,-0.0129,0.3489,115.48,-5.00,953.12,14,33,22
1512180476,-0.0104,0.0112,0.3483,137.88,-34.61,992.86,14,33,22
1512180476,-0.0007,0.0065,0.3522,106.26,-33.87,939.82,15,35,10
1512180476,0.0164,0.0032,0.3586,153.63,29.36,876.71,15,35,10
1512180476,0.0202,0.0075,0.3622,122.92,-3.97,917.79,15,35,10
1512180476,0.0157,0.0169,0.3719,47.49,5.19,1038.27,15,35,10
1512180476,-0.0320,0.0260,0.3708,69.76,0.55,1001.40,22,38,20
1512180476,-0.0012,0.0517,0.3638,79.28,1.40,1063.66,22,38,20
1512180476,-0.0032,0.0543,0.3589,134.89,-37.11,974.79,22,38,20
1512180476,0.0232,0.0546,0.3661,96.31,50.42,923.28,22,38,20
1512180476,0.0237,0.0407,0.3700,160.34,13.67,881.96,22,38,20
1512180476,0.0353,0.0573,0.3827,72.20,10.56,1041.63,40,56,3
1512180476,-0.0268,0.0458,0.3642,90.94,-42.91,981.45,40,56,3
1512180476,-0.0065,0.0615,0.3609,130.49,-43.70,1049.56,40,56,3
1512180476,-0.0181,0.0634,0.3551,147.28,-44.86,967.77,40,56,3
1512180476,0.0177,0.0687,0.3627,130.49,34.00,945.98,40,56,3
1512180476,0.0320,0.0756,0.3563,92.96,3.30,914.79,47,66,16
1512180476,0.0230,0.0767,0.3566,49.01,-1.46,1004.33,47,66,16
1512180476,-0.0096,0.0563,0.3557,148.32,1.77,974.37,47,66,16
1512180476,-0.0256,0.0421,0.3615,128.30,-18.31,910.10,47,66,16
1512180476,0.0000,0.0574,0.3622,95.58,32.59,972.60,54,77,-6
1512180476,0.0310,0.0555,0.3703,94.79,32.96,1015.56,54,77,-6
1512180476,0.0390,0.0353,0.3720,46.75,4.52,992.07,54,77,-6
1512180476,0.0228,0.0443,0.3751,72.33,-1.83,824.83,54,77,-6
1512180476,0.0233,0.0485,0.3599,41.75,-51.70,911.68,54,77,-6
1512180476,-0.0142,0.0328,0.3587,42.72,-10.62,863.16,63,86,15
1512180476,-0.0224,0.0365,0.3535,130.31,16.54,878.66,63,86,15
1512180477,-0.0145,0.0298,0.3573,125.43,-16.60,903.99,63,86,15
1512180477,-0.0320,0.0188,0.3594,94.42,18.25,966.06,63,86,15
1512180477,-0.0479,0.0173,0.3663,101.32,-17.09,970.09,70,107,15
1512180477,0.0097,0.0443,0.3633,67.99,-1.04,998.66,70,107,15
1512180477,0.0329,0.0617,0.3692,57.19,4.15,1014.16,70,107,15
1512180477,0.0609,0.0607,0.3670,56.03,12.94,1061.89,70,107,15
1512180477,-0.0004,0.0378,0.3704,71.11,-19.47,913.70,70,107,15
1512180477,0.0281,0.0407,0.3706,48.89,24.17,893.80,59,107,8
1512180477,0.0446,0.0633,0.3626,-31.07,26.31,1042.60,59,107,8
1512180477,0.0278,0.0619,0.3567,37.17,-35.22,1082.52,59,107,8
1512180477,0.0123,0.0667,0.3542,31.74,-5.43,941.89,59,107,8
1512180477,0.0269,0.0687,0.3559,28.02,-22.52,934.14,59,107,8
1512180477,0.0178,0.0561,0.3485,64.09,-18.31,884.83,56,121,5
1512180477,0.0149,0.0525,0.3515,44.37,7.45,967.90,56,121,5
1512180477,0.0060,0.0398,0.3497,55.79,-49.38,968.63,56,121,5
1512180477,-0.0153,0.0204,0.3613,5.55,-2.08,832.09,56,121,5
1512180477,0.0162,0.0381,0.3574,16.97,-35.40,889.53,56,121,5
1512180477,0.0196,0.0344,0.3618,43.15,-28.69,965.58,75,126,13
1512180477,0.0076,0.0212,0.3609,42.05,-29.91,915.41,75,126,13
1512180477,0.0111,0.0198,0.3590,80.57,-31.98,914.00,75,126,13
1512180477,0.0079,0.0053,0.3567,73.61,0.67,908.63,75,126,13
1512180477,0.0185,0.0071,0.3511,62.01,-43.88,991.70,98,135,8
1512180477,0.0112,0.0225,0.3514,22.83,-1.71,935.97,98,135,8
1512180477,0.0192,0.0298,0.3494,30.70,-21.48,977.60,98,135,8
1512180477,0.0055,0.0302,0.3438,26.18,-38.27,995.42,98,135,8
1512180477,0.0023,0.0233,0.3478,-20.20,-15.75,1017.76,98,135,8
1512180477,0.0302,0.0099,0.3602,78.19,19.65,860.05,84,149,18
1512180477,0.0606,0.0222,0.3571,9.09,5.25,955.20,84,149,18
1512180477,0.0264,0.0246,0.3623,-24.29,48.58,1016.54,84,149,18
1512180477,0.0394,0.0119,0.3535,-42.97,2.14,968.99,84,149,18
1512180477,0.0196,-0.0069,0.3495,-64.94,41.63,994.87,84,149,18
1512180477,-0.0063,-0.0257,0.3445,-41.56,16.30,1019.59,96,162,13
1512180477,-0.0222,-0.0719,0.3396,-28.87,29.30,999.02,96,162,13
1512180477,-0.0486,-0.1015,0.3374,16.05,71.66,961.18,96,162,13
1512180477,-0.0652,-0.1260,0.3610,-68.66,19.71,1006.71,96,162,13
1512180477,-0.0947,-0.1515,0.3483,-19.53,39.18,1023.99,84,156,5
1512180477,-0.0992,-0.1574,0.3482,29.17,12.63,1011.17,84,156,5
1512180477,-0.1202,-0.1647,0.3473,44.37,12.21,1035.16,84,156,5
1512180478,-0.0768,-0.1433,0.3471,87.34,25.57,939.82,84,156,5
1512180478,-0.0984,-0.1241,0.3378,101.38,-37.72,926.45,84,156,5
1512180478,-0.0575,-0.1045,0.3558,30.52,28.50,942.20,96,169,10
1512180478,-0.0674,-0.0843,0.3611,129.82,15.81,887.70,96,169,10
1512180478,-0.0360,-0.0610,0.3318,119.26,-9.16,927.49,96,169,10
1512180478,-0.0578,-0.0617,0.3549,70.68,-3.23,1055.79,96,169,10
1512180478,-0.0340,-0.0453,0.3430,107.97,1.34,816.59,89,162,0
1512180478,-0.0317,-0.0316,0.3280,97.29,-48.77,876.10,89,162,0
1512180478,-0.0124,-0.0225,0.3298,98.75,-59.14,917.66,89,162,0
1512180478,0.0077,-0.0200,0.3338,66.65,-27.16,945.86,89,162,0
1512180478,0.0071,-0.0145,0.3308,123.72,-62.44,836.06,89,162,0
1512180478,0.0169,-0.0031,0.3305,51.27,-23.62,903.93,112,174,5
1512180478,0.0238,-0.0217,0.3265,63.05,-34.97,898.07,112,174,5
1512180478,0.0278,-0.0132,0.3178,53.53,-50.72,959.47,112,174,5
1512180478,0.0136,-0.0277,0.3172,10.80,-50.05,1022.46,112,174,5
1512180478,-0.0080,-0.0057,0.3107,49.62,-47.06,1014.83,112,174,5
1512180478,-0.0108,0.0217,0.3131,92.47,-36.56,916.93,100,183,-13
1512180478,-0.0049,0.0437,0.3115,78.19,-17.21,1025.94,100,183,-13
1512180478,-0.0197,0.0700,0.3064,147.40,35.28,1087.77,100,183,-13
1512180478,-0.0430,0.0870,0.3029,123.17,0.49,1048.34,100,183,-13
1512180478,-0.0658,0.1015,0.3023,117.61,14.40,962.46,119,174,-1
1512180478,-0.0772,0.1238,0.3116,118.77,16.60,904.85,119,174,-1
1512180478,-0.0712,0.1485,0.3135,103.03,-28.75,954.22,119,174,-1
1512180478,-0.0285,0.1706,0.3178,47.55,-15.56,1007.02,119,174,-1
1512180478,-0.0630,0.1619,0.3321,12.27,-2.56,1029.11,119,174,-1
1512180478,-0.0889,0.1411,0.3190,47.18,-51.15,883.42,119,202,-8
1512180478,-0.0684,0.1425,0.3174,-2.32,-85.63,916.08,119,202,-8
1512180478,-0.0751,0.1196,0.3163,-4.58,-103.82,935.79,119,202,-8
1512180478,-0.0754,0.0875,0.3113,-39.67,-95.52,984.01,119,202,-8
1512180478,-0.0374,0.0684,0.3139,-24.72,-94.48,910.03,119,202,-8
1512180478,-0.0443,0.0372,0.3153,-11.84,-98.14,878.85,114,218,-3
1512180478,-0.0387,0.0256,0.3165,-9.77,-123.17,842.22,114,218,-3
1512180478,-0.0111,0.0132,0.3226,-4.09,-70.74,889.83,114,218,-3
1512180478,-0.0280,-0.0071,0.3184,11.78,-139.77,969.73,114,218,-3
1512180478,-0.0410,-0.0181,0.3173,-0.55,-118.41,1038.76,128,218,3
1512180478,-0.0337,-0.0221,0.3200,-0.92,-129.27,1004.58,128,218,3
1512180478,-0.0329,-0.0399,0.3256,22.34,-137.76,1022.34,128,218,3
1512180479,-0.0272,-0.0471,0.3328,55.73,-114.14,992.07,128,218,3
1512180479,-0.0353,-0.0433,0.3388,10.19,-140.32,1019.84,128,218,3
1512180479,-0.0273,-0.0336,0.3419,47.67,-135.44,983.28,105,237,-22
1512180479,-0.0262,-0.0216,0.3416,72.88,-146.06,976.44,105,237,-22
1512180479,-0.0108,-0.0228,0.3515,49.01,-73.49,911.56,105,237,-22
1512180479,0.0092,-0.0281,0.3614,27.47,-90.58,972.35,105,237,-22
1512180479,-0.0142,-0.0578,0.3730,-7.45,-134.40,1085.75,103,236,6
1512180479,0.0117,-0.0679,0.3799,-0.73,-91.80,1004.15,103,236,6
1512180479,0.0121,-0.0842,0.3824,27.89,-141.36,936.40,103,236,6
1512180479,0.0309,-0.1087,0.3790,56.70,-134.95,919.56,103,236,6
1512180479,0.0225,-0.1205,0.3715,18.49,-166.32,968.20,103,236,6
1512180479,0.0097,-0.1310,0.3658,17.76,-161.62,984.56,114,250,-3
1512180479,0.0097,-0.1224,0.3567,38.45,-183.23,980.65,114,250,-3
1512180479,-0.0097,-0.1200,0.3565,86.43,-150.57,916.02,114,250,-3
1512180479,-0.0020,-0.1095,0.3647,66.04,-122.99,1001.40,114,250,-3
1512180479,0.0369,-0.1003,0.3747,59.39,-107.85,933.29,114,250,-3
1512180479,-0.0085,-0.0979,0.3790,110.29,-126.65,929.44,112,259,8
1512180479,0.0240,-0.0866,0.3864,47.91,-158.75,915.47,112,259,8
1512180479,0.0216,-0.0971,0.3892,21.79,-128.48,956.54,112,259,8
1512180479,0.0189,-0.0908,0.3912,66.53,-122.99,913.27,112,259,8
1512180479,0.0157,-0.0767,0.3866,53.10,-175.29,985.72,112,259,8
1512180479,-0.0104,-0.0711,0.3859,108.34,-154.24,964.84,101,262,11
1512180479,0.0264,-0.0325,0.3812,110.41,-109.19,934.20,101,262,11
1512180479,0.0414,-0.0040,0.3734,133.06,-186.52,1022.71,101,262,11
1512180479,0.0366,0.0104,0.3635,180.97,-111.94,1063.72,101,262,11
1512180479,0.0571,0.0310,0.3539,143.98,-181.76,1009.52,110,250,-6
1512180479,0.1092,0.0758,0.3447,145.45,-161.56,993.96,110,250,-6
1512180479,0.1298,0.0969,0.3412,85.88,-152.47,968.08,110,250,-6
1512180479,0.1250,0.1043,0.3412,72.20,-146.30,912.05,110,250,-6
1512180479,0.1346,0.1358,0.3453,58.96,-145.63,880.74,110,250,-6
1512180479,0.1285,0.1318,0.3529,66.83,-163.82,883.73,98,280,1
1512180479,0.1079,0.1158,0.3574,9.95,-151.31,903.26,98,280,1
1512180479,0.0886,0.1069,0.3625,59.45,-138.31,906.86,98,280,1
1512180479,0.0820,0.1041,0.3708,12.57,-158.87,942.93,98,280,1
1512180479,0.0635,0.0760,0.3715,35.34,-144.53,936.52,98,280,1
1512180479,0.0475,0.0609,0.3758,21.97,-139.22,909.42,87,283,5
1512180479,0.0414,0.0510,0.3798,15.14,-148.19,956.18,87,283,5
1512180479,0.0182,0.0309,0.3803,-11.84,-160.95,1007.26,87,283,5
1512180480,-0.0165,0.0129,0.3839,26.98,-145.14,926.64,87,283,5
1512180480,0.0017,0.0133,0.3878,-19.17,-179.44,944.64,77,304,15
1512180480,0.0133,0.0146,0.3920,13.67,-143.80,1004.03,77,304,15
1512180480,-0.0004,0.0024,0.3935,77.51,-158.33,935.79,77,304,15
1512180480,0.0091,0.0060,0.4020,81.30,-139.59,935.00,77,304,15
1512180480,0.0348,0.0083,0.4077,113.65,-145.63,883.48,77,304,15
1512180480,0.0253,0.0217,0.4055,126.28,-177.80,976.62,63,304,-5
1512180480,0.0364,0.0262,0.4133,100.71,-129.21,988.28,63,304,-5
1512180480,0.0088,0.0210,0.4116,107.48,-179.75,997.74,63,304,-5
1512180480,-0.0036,0.0249,0.4161,128.66,-148.99,1006.84,63,304,-5
1512180480,0.0256,0.0342,0.4220,66.83,-167.05,991.76,70,308,5
1512180480,0.0148,0.0270,0.4217,71.47,-159.00,984.19,70,308,5
1512180480,0.0277,0.0254,0.4244,82.03,-157.84,954.96,70,308,5
1512180480,0.0242,0.0273,0.4264,87.65,-142.15,913.27,70,308,5
1512180480,0.0221,0.0237,0.4258,62.50,-136.84,954.35,70,308,5
1512180480,0.0092,0.0192,0.4232,100.04,-153.32,963.93,56,333,-1
1512180480,-0.0083,0.0241,0.4229,91.37,-140.87,967.83,56,333,-1
1512180480,0.0064,0.0285,0.4242,86.30,-164.25,964.54,56,333,-1
1512180480,-0.0048,0.0284,0.4226,98.69,-148.74,1003.54,56,333,-1
1512180480,0.0220,0.0429,0.4260,93.08,-116.82,993.96,56,333,-1
1512180480,0.0266,0.0391,0.4304,113.53,-127.14,969.97,47,334,10
1512180480,0.0107,0.0466,0.4281,91.92,-143.92,959.23,47,334,10
1512180480,0.0149,0.0466,0.4270,93.51,-149.84,966.67,47,334,10
1512180480,0.0194,0.0394,0.4310,87.65,-141.60,886.54,47,334,10
1512180480,-0.0107,0.0186,0.4366,96.68,-154.66,916.44,42,350,11
1512180480,0.0220,0.0233,0.4389,99.43,-123.11,859.13,42,350,11
1512180480,0.0506,0.0374,0.4443,44.80,-135.86,925.72,42,350,11
1512180480,0.0256,0.0198,0.4373,48.22,-128.97,910.58,42,350,11
1512180480,0.0206,0.0157,0.4373,46.51,-163.64,991.70,42,350,11
1512180480,0.0000,-0.0081,0.4324,58.23,-197.39,909.42,28,354,-1
1512180480,0.0157,-0.0089,0.4310,46.81,-123.84,898.32,28,354,-1
1512180480,0.0193,-0.0104,0.4340,17.03,-151.06,985.84,28,354,-1
1512180480,0.0201,-0.0045,0.4242,-0.67,-171.87,1101.62,28,354,-1
1512180480,-0.0328,-0.0174,0.4178,74.83,-166.87,934.81,28,350,8
1512180480,-0.0273,-0.0354,0.4222,78.31,-200.68,915.95,28,350,8
1512180480,0.0004,-0.0270,0.4176,62.93,-95.83,927.06,28,350,8
1512180480,-0.0277,-0.0108,0.4132,126.95,-187.87,963.20,28,350,8
1512180480,-0.0296,-0.0144,0.4089,92.04,-168.33,862.06,28,350,8
1512180481,0.0166,0.0076,0.4104,72.57,-147.89,846.50,26,370,16
1512180481,0.0193,0.0168,0.4017,50.60,-154.97,950.07,26,370,16
1512180481,0.0184,0.0189,0.3965,27.71,-129.70,984.80,26,370,16
1512180481,0.0205,0.0224,0.3947,31.25,-153.38,932.07,26,370,16
1512180481,0.0197,0.0166,0.3888,38.39,-133.00,942.08,26,370,16
1512180481,0.0228,0.0213,0.3820,20.87,-136.11,955.69,21,371,5
1512180481,0.0241,0.0176,0.3750,16.60,-192.63,1037.84,21,371,5
1512180481,0.0317,0.0229,0.3669,52.86,-112.24,966.37,21,371,5
1512180481,0.0302,0.0301,0.3618,0.31,-136.72,1067.08,21,371,5
1512180481,0.0332,0.0226,0.3523,-10.07,-177.37,1019.84,-3,386,-1
1512180481,0.0503,0.0224,0.3579,42.48,-89.60,938.29,-3,386,-1
1512180481,0.0318,0.0173,0.3431,35.83,-106.32,1053.16,-3,386,-1
1512180481,0.0541,0.0374,0.3422,11.29,-115.54,993.23,-3,386,-1
1512180481,0.0049,0.0332,0.3350,35.89,-91.43,981.81,-3,386,-1
1512180481,0.0049,0.0270,0.3338,-3.97,-101.50,982.85,-5,377,6
1512180481,-0.0048,0.0196,0.3294,38.39,-64.03,941.96,-5,377,6
1512180481,-0.0029,0.0270,0.3234,4.09,-110.23,950.93,-5,377,6
1512180481,0.0031,0.0238,0.3159,-26.12,-88.93,1005.19,-5,377,6
1512180481,-0.0020,0.0123,0.3113,-16.05,-88.87,951.60,-5,377,6
1512180481,-0.0121,0.0080,0.3059,27.16,-134.03,924.38,-15,380,-10
1512180481,0.0177,0.0099,0.3033,39.06,-74.40,909.97,-15,380,-10
1512180481,0.0069,0.0080,0.2945,-9.70,-115.91,883.00,-15,380,-10
1512180481,0.0097,0.0092,0.2875,39.25,-120.36,948.43,-15,380,-10
1512180481,0.0305,0.0096,0.2843,7.51,-104.25,954.65,-33,391,-3
1512180481,0.0281,0.0039,0.2766,-13.85,-61.89,967.04,-33,391,-3
1512180481,0.0269,0.0130,0.2699,10.07,-76.66,1002.50,-33,391,-3
1512180481,0.0330,0.0250,0.2613,15.20,-53.22,948.30,-33,391,-3
1512180481,0.0300,0.0241,0.2553,4.33,-46.02,949.65,-33,391,-3
1512180481,0.0281,0.0252,0.2503,17.52,-49.62,956.79,-31,400,-8
1512180481,0.0241,0.0173,0.2467,-9.52,-68.91,1060.91,-31,400,-8
1512180481,0.0105,-0.0041,0.2490,-17.70,-63.48,983.40,-31,400,-8
1512180481,0.0113,0.0027,0.2458,-38.51,-68.91,1012.27,-31,400,-8
1512180481,0.0241,-0.0053,0.2461,11.41,-41.26,951.48,-43,394,-3
1512180481,0.0033,0.0053,0.2373,12.70,-69.82,948.43,-43,394,-3
1512180481,0.0129,-0.0055,0.2341,4.88,-48.16,942.81,-43,394,-3
1512180481,0.0262,-0.0103,0.2245,40.04,-85.14,953.31,-43,394,-3
1512180481,0.0426,-0.0206,0.2204,-19.41,-35.10,921.39,-43,394,-3
1512180481,0.0194,-0.0222,0.2111,-33.94,-26.98,959.17,-50,401,0
1512180482,0.0286,-0.0121,0.2080,-31.86,-65.06,987.79,-50,401,0
1512180482,0.0377,-0.0115,0.2087,-39.49,-19.90,952.33,-50,401,0
1512180482,0.0073,-0.0100,0.2020,-17.03,-26.49,996.40,-50,401,0
1512180482,0.0290,0.0141,0.1917,7.87,-37.54,991.27,-50,401,0
1512180482,0.0186,0.0198,0.1846,15.81,-8.30,1029.17,-38,400,-1
1512180482,0.0370,0.0312,0.1810,-19.96,20.69,1048.71,-38,400,-1
1512180482,0.0489,0.0272,0.1735,-17.15,-26.18,1015.62,-38,400,-1
1512180482,0.0201,0.0209,0.1637,-49.74,-4.64,926.27,-38,400,-1
1512180482,0.0443,0.0385,0.1601,-64.82,-28.44,960.08,-50,398,3
1512180482,0.0282,0.0281,0.1688,-51.39,-9.70,1008.24,-50,398,3
1512180482,0.0360,0.0366,0.1421,-44.19,-9.03,966.25,-50,398,3
1512180482,0.0148,0.0357,0.1288,-50.54,-32.29,985.05,-50,398,3
1512180482,0.0105,0.0421,0.1204,-23.13,-11.29,952.45,-50,398,3
1512180482,0.0354,0.0390,0.1104,-42.42,18.37,950.68,-63,407,-5
1512180482,0.0149,0.0285,0.0991,-75.38,3.72,944.95,-63,407,-5
1512180482,0.0072,0.0254,0.0927,-66.16,-13.18,953.12,-63,407,-5
1512180482,0.0269,0.0193,0.0892,-110.05,-10.19,916.63,-63,407,-5
1512180482,0.0290,0.0162,0.0874,-117.31,-29.66,984.07,-68,409,3
1512180482,0.0204,0.0081,0.0827,-91.13,-19.17,883.12,-68,409,3
1512180482,0.0249,0.0043,0.0790,-49.99,-27.59,974.43,-68,409,3
1512180482,0.0027,-0.0124,0.0731,-63.66,-30.46,955.08,-68,409,3
1512180482,0.0041,-0.0145,0.0718,-61.52,-30.21,955.32,-68,409,3
1512180482,-0.0064,-0.0146,0.0695,-29.24,-53.10,990.05,-72,405,-10
1512180482,0.0221,-0.0124,0.0730,-49.26,5.80,987.79,-72,405,-10
1512180482,0.0141,-0.0083,0.0694,-43.33,-1.46,925.05,-72,405,-10
1512180482,0.0127,-0.0087,0.0668,13.00,-25.33,935.49,-72,405,-10
1512180482,0.0222,-0.0053,0.0676,-37.05,-6.65,945.19,-72,405,-10
1512180482,0.0229,-0.0130,0.0659,-46.63,-7.81,917.30,-79,409,-6
1512180482,0.0027,-0.0099,0.0617,-28.63,-31.74,951.90,-79,409,-6
1512180482,0.0136,-0.0112,0.0655,-59.88,-33.33,968.81,-79,409,-6
1512180482,0.0141,-0.0130,0.0606,-40.53,-61.77,930.85,-79,409,-6
1512180482,0.0256,0.0020,0.0578,-38.27,-26.67,995.36,-79,401,-6
1512180482,0.0182,0.0052,0.0586,-18.43,-47.00,968.99,-79,401,-6
1512180482,-0.0028,-0.0008,0.0510,5.19,-59.81,969.91,-79,401,-6
1512180482,0.0134,0.0044,0.0506,-0.79,-13.98,998.78,-79,401,-6
1512180482,-0.0052,0.0008,0.0423,-20.51,-54.02,998.96,-79,401,-6
1512180482,0.0109,0.0029,0.0430,-29.48,-31.62,937.07,-79,409,0
1512180483,0.0146,0.0132,0.0425,-51.09,-22.16,956.79,-79,409,0
1512180483,0.0181,0.0125,0.0442,-31.01,-37.29,933.17,-79,409,0
1512180483,0.0080,0.0084,0.0413,-40.16,-49.32,930.73,-79,409,0
1512180483,0.0266,0.0000,0.0467,-55.36,-44.56,940.37,-79,409,0
1512180483,0.0048,0.0045,0.0434,-47.30,-52.43,943.36,-80,396,-5
1512180483,0.0386,0.0148,0.0419,-44.37,-55.05,903.38,-80,396,-5
1512180483,0.0205,0.0220,0.0414,-31.49,-53.47,1026.73,-80,396,-5
1512180483,0.0100,0.0041,0.0390,-27.89,-64.09,965.82,-80,396,-5
1512180483,0.0174,-0.0003,0.0377,-66.71,-40.77,931.76,-86,409,3
1512180483,0.0083,0.0045,0.0380,-90.21,-71.59,971.37,-86,409,3
1512180483,-0.0117,0.0025,0.0394,-84.05,-45.29,965.58,-86,409,3
1512180483,0.0047,0.0115,0.0446,-80.75,-64.51,916.02,-86,409,3
1512180483,-0.0035,0.0184,0.0410,-50.96,-58.65,970.64,-86,409,3
1512180483,-0.0116,0.0141,0.0373,-19.84,-102.72,937.74,-82,401,3
1512180483,-0.0003,0.0008,0.0380,-9.34,-70.68,918.95,-82,401,3
1512180483,-0.0051,-0.0057,0.0360,-39.92,-67.50,917.85,-82,401,3
1512180483,-0.0081,-0.0088,0.0403,-82.58,-55.05,990.17,-82,401,3
1512180483,-0.0133,-0.0044,0.0391,-78.67,-55.60,990.66,-79,416,0
1512180483,0.0031,0.0027,0.0399,-102.54,-65.25,1040.28,-79,416,0
1512180483,-0.0015,0.0061,0.0381,-65.86,-61.77,954.47,-79,416,0
1512180483,-0.0067,0.0060,0.0398,-90.64,-68.48,971.44,-79,416,0
1512180483,0.0099,0.0012,0.0399,-47.00,-50.72,922.12,-79,416,0
1512180483,0.0096,-0.0024,0.0372,-47.06,-69.46,981.26,-93,401,-3
1512180483,-0.0087,-0.0020,0.0376,-17.40,-62.32,986.51,-93,401,-3
1512180483,0.0108,0.0099,0.0378,-72.14,-80.63,972.17,-93,401,-3
1512180483,-0.0092,0.0039,0.0365,-54.93,-62.81,965.70,-93,401,-3
1512180483,-0.0003,0.0245,0.0362,3.17,-59.51,913.15,-93,401,-3
1512180483,-0.0075,0.0181,0.0353,-38.33,-129.15,989.44,-101,403,-1
1512180483,-0.0023,0.0039,0.0357,-3.85,-65.86,1001.65,-101,403,-1
1512180483,0.0060,0.0005,0.0394,-25.33,-77.70,956.30,-101,403,-1
1512180483,0.0012,-0.0104,0.0370,-27.22,-88.75,967.35,-101,403,-1
1512180483,0.0214,-0.0015,0.0370,-85.94,-61.40,941.59,-101,407,15
1512180483,0.0337,0.0089,0.0437,-45.78,-18.86,961.18,-101,407,15
1512180483,0.0181,0.0085,0.0330,-80.20,-70.92,942.57,-101,407,15
1512180483,0.0045,-0.0060,0.0305,-75.68,-105.35,971.68,-101,407,15
1512180483,-0.0201,0.0016,0.0274,-25.27,-72.02,920.41,-101,407,15
1512180483,-0.0040,0.0065,0.0313,-43.76,-80.63,968.14,-114,405,-6
1512180483,-0.0152,0.0037,0.0288,19.35,-57.19,926.27,-114,405,-6
1512180484,-0.0031,0.0004,0.0344,-43.52,-78.00,984.99,-114,405,-6
1512180484,0.0073,-0.0049,0.0383,-15.63,-35.95,934.75,-114,405,-6
1512180484,0.0189,-0.0009,0.0385,-79.22,-49.07,965.52,-114,405,-6
1512180484,0.0177,0.0040,0.0376,-51.76,-24.11,958.74,-101,407,-1
1512180484,0.0266,0.0108,0.0354,-32.10,-21.36,948.49,-101,407,-1
1512180484,0.0177,-0.0021,0.0292,-24.29,-75.32,977.23,-101,407,-1
1512180484,0.0134,-0.0116,0.0290,-7.87,-27.34,896.55,-101,407,-1
1512180484,-0.0024,-0.0044,0.0300,-30.82,-76.97,939.88,-105,403,1
1512180484,-0.0020,-0.0077,0.0269,-23.25,-64.15,964.84,-105,403,1
1512180484,-0.0089,0.0011,0.0320,-51.15,-50.35,996.40,-105,403,1
1512180484,-0.0035,-0.0101,0.0330,-38.21,-58.23,977.66,-105,403,1
1512180484,-0.0032,-0.0029,0.0329,-2.50,-28.93,939.45,-105,403,1
1512180484,0.0254,-0.0059,0.0341,-3.30,-43.52,977.54,-98,410,1
1512180484,0.0056,0.0003,0.0233,-0.49,-73.49,917.30,-98,410,1
1512180484,0.0188,0.0036,0.0240,-7.81,-42.97,944.89,-98,410,1
1512180484,0.0205,0.0075,0.0248,-18.92,-60.79,955.57,-98,410,1
1512180484,0.0237,0.0055,0.0212,-48.65,-63.66,919.43,-98,410,1
1512180484,0.0161,0.0068,0.0240,-51.94,-16.24,968.44,-96,398,3
1512180484,0.0190,0.0092,0.0228,-7.02,-80.20,872.38,-96,398,3
1512180484,-0.0001,-0.0013,0.0193,-15.20,-66.59,925.17,-96,398,3
1512180484,0.0101,0.0023,0.0158,-37.35,-63.42,948.67,-96,398,3
1512180484,0.0258,0.0019,0.0168,-53.65,-18.07,960.33,-112,414,-5
1512180484,0.0217,0.0044,0.0137,-34.36,-51.15,888.98,-112,414,-5
1512180484,0.0289,-0.0029,0.0156,-47.61,-16.36,930.73,-112,414,-5
1512180484,-0.0024,-0.0109,0.0113,-42.11,-53.10,1012.15,-112,414,-5
1512180484,-0.0065,-0.0101,0.0091,-40.22,-24.05,1026.67,-112,414,-5
1512180484,0.0031,-0.0023,0.0071,-35.28,-17.64,992.31,-108,410,1
1512180484,-0.0142,-0.0138,0.0016,-53.47,-84.78,1028.99,-108,410,1
1512180484,0.0053,-0.0069,0.0017,-73.06,-21.18,937.38,-108,410,1
1512180484,0.0087,-0.0079,0.0008,-74.04,-39.73,919.07,-108,410,1
1512180484,0.0324,-0.0013,0.0025,-28.08,-25.70,921.81,-108,407,11
1512180484,0.0165,0.0056,-0.0027,-71.17,15.14,1023.80,-108,407,11
1512180484,-0.0162,-0.0100,-0.0044,-56.27,-57.74,1017.27,-108,407,11
1512180484,0.0101,-0.0099,-0.0052,-44.19,-23.68,940.98,-108,407,11
1512180484,0.0214,-0.0087,-0.0029,-83.37,-21.61,893.68,-108,407,11
1512180484,0.0041,-0.0039,-0.0089,-89.42,-20.75,969.18,-101,393,1
1512180484,0.0337,0.0015,-0.0051,-79.65,23.62,1002.08,-101,393,1
1512180484,0.0153,0.0039,-0.0117,-77.33,-4.33,943.24,-101,393,1
1512180485,0.0153,-0.0049,-0.0144,-73.24,-37.35,921.02,-101,393,1
1512180485,0.0025,-0.0133,-0.0169,-66.28,-30.21,944.09,-101,393,1
1512180485,0.0309,0.0043,-0.0136,-53.04,11.29,901.67,-122,389,-1
1512180485,-0.0028,0.0031,-0.0257,-44.74,-72.33,1008.91,-122,389,-1
1512180485,-0.0061,0.0031,-0.0238,-41.44,-53.28,907.35,-122,389,-1
1512180485,-0.0069,0.0081,-0.0198,-7.26,-28.81,937.93,-122,389,-1
1512180485,-0.0237,-0.0101,-0.0234,19.29,-97.23,954.53,-112,396,5
1512180485,0.0149,-0.0176,-0.0180,-57.92,-22.77,941.35,-112,396,5
1512180485,0.0004,-0.0177,-0.0206,-42.60,-50.84,900.82,-112,396,5
1512180485,-0.0123,-0.0166,-0.0216,-60.97,-65.31,993.23,-112,396,5
1512180485,-0.0007,-0.0043,-0.0157,-29.05,12.33,940.67,-112,396,5
1512180485,0.0053,0.0100,-0.0222,-54.44,-31.43,934.27,-126,407,8
1512180485,0.0048,-0.0001,-0.0233,-16.17,-32.29,966.00,-126,407,8
1512180485,-0.0043,0.0020,-0.0216,-64.51,-32.53,872.01,-126,407,8
1512180485,0.0055,-0.0075,-0.0194,-88.62,-26.49,930.66,-126,407,8
1512180485,-0.0107,-0.0020,-0.0198,-95.76,-29.24,999.51,-126,407,8
1512180485,0.0218,-0.0056,-0.0173,-67.93,28.75,950.26,-115,414,5
1512180485,0.0308,0.0068,-0.0170,-63.05,-21.30,945.07,-115,414,5
1512180485,0.0021,0.0059,-0.0197,-75.68,-18.49,997.07,-115,414,5
1512180485,-0.0045,0.0071,-0.0270,-59.45,-18.74,950.44,-115,414,5
1512180485,-0.0035,0.0099,-0.0260,-55.18,-27.71,1028.20,-114,405,10
1512180485,-0.0228,0.0128,-0.0322,-77.70,-40.83,956.97,-114,405,10
1512180485,0.0039,0.0198,-0.0320,-39.43,-45.90,981.81,-114,405,10
1512180485,-0.0032,0.0132,-0.0369,-46.63,-15.75,938.96,-114,405,10
1512180485,0.0100,0.0049,-0.0333,-81.05,4.27,930.30,-114,405,10
1512180485,-0.0305,0.0025,-0.0373,-32.59,-28.69,940.61,-114,394,27
1512180485,-0.0276,-0.0092,-0.0378,-72.94,-39.79,962.22,-114,394,27
1512180485,-0.0266,-0.0112,-0.0426,-20.51,-41.93,973.75,-114,394,27
1512180485,-0.0113,-0.0012,-0.0390,-1.28,12.51,951.72,-114,394,27
1512180485,-0.0089,-0.0023,-0.0358,-24.66,-66.77,962.34,-105,393,15
1512180485,0.0009,-0.0123,-0.0354,16.42,10.86,925.72,-105,393,15
1512180485,0.0047,0.0049,-0.0346,-49.50,16.54,929.75,-105,393,15
1512180485,0.0017,0.0003,-0.0368,-17.46,-44.86,987.67,-105,393,15
1512180485,0.0009,0.0031,-0.0336,-23.32,1.77,912.17,-105,393,15
1512180485,-0.0087,-0.0004,-0.0348,-27.71,-46.63,987.43,-94,400,28
1512180485,-0.0041,-0.0011,-0.0338,-56.46,-4.15,980.47,-94,400,28
1512180485,-0.0145,0.0063,-0.0387,-28.81,-11.96,985.47,-94,400,28
1512180486,-0.0350,-0.0055,-0.0381,-41.32,-56.15,1071.84,-94,400,28
1512180486,-0.0137,0.0033,-0.0370,-61.10,-20.08,985.96,-94,400,28
1512180486,-0.0238,0.0051,-0.0324,-33.75,-38.51,1014.40,-107,426,20
1512180486,-0.0244,0.0057,-0.0454,-22.28,-31.13,997.07,-107,426,20
1512180486,-0.0152,-0.0004,-0.0409,-47.12,-34.91,943.18,-107,426,20
1512180486,-0.0346,-0.0091,-0.0473,-36.13,-60.06,935.61,-107,426,20
1512180486,-0.0241,-0.0035,-0.0368,-51.88,-5.25,906.25,-96,409,27
1512180486,-0.0340,-0.0028,-0.0385,-38.70,-22.64,981.69,-96,409,27
1512180486,-0.0085,0.0024,-0.0409,-29.42,-4.33,946.35,-96,409,27
1512180486,-0.0067,-0.0024,-0.0386,-87.28,-32.59,980.77,-96,409,27
1512180486,-0.0080,-0.0148,-0.0421,-55.97,-53.65,1005.62,-96,409,27
1512180486,-0.0009,-0.0088,-0.0362,-43.88,42.18,907.65,-87,400,1
1512180486,0.0079,0.0085,-0.0348,-34.36,-18.07,921.57,-87,400,1
1512180486,0.0165,0.0015,-0.0387,-20.08,27.16,928.65,-87,400,1
1512180486,-0.0068,0.0075,-0.0409,-9.09,16.48,983.70,-87,400,1
1512180486,0.0109,-0.0136,-0.0362,12.57,-0.49,970.89,-87,400,1
1512180486,0.0029,-0.0269,-0.0370,-33.20,-14.47,991.70,-86,401,3
1512180486,-0.0047,-0.0205,-0.0369,-90.09,-9.89,936.58,-86,401,3
1512180486,-0.0031,-0.0084,-0.0309,-78.92,-5.86,924.99,-86,401,3
1512180486,0.0152,0.0072,-0.0318,-68.30,-11.41,960.82,-86,401,3
1512180486,0.0115,0.0027,-0.0302,-69.27,16.36,906.25,-94,389,1
1512180486,-0.0293,-0.0104,-0.0373,-27.10,-34.61,1002.50,-94,389,1
1512180486,0.0182,0.0031,-0.0338,-21.61,19.53,918.95,-94,389,1
1512180486,-0.0177,0.0036,-0.0354,-34.79,-23.01,961.79,-94,389,1
1512180486,0.0270,0.0173,-0.0285,-61.52,0.92,946.66,-94,389,1
1512180486,0.0039,0.0288,-0.0280,-31.43,5.31,908.63,-108,414,1
1512180486,0.0076,0.0140,-0.0270,-48.10,13.98,940.43,-108,414,1
1512180486,0.0020,0.0173,-0.0265,-39.61,9.09,945.01,-108,414,1
1512180486,0.0036,0.0071,-0.0234,-77.94,39.37,919.86,-108,414,1
1512180486,-0.0037,0.0138,-0.0257,-99.85,-4.52,1031.31,-108,414,1
1512180486,-0.0027,-0.0040,-0.0237,-93.32,33.20,930.24,-101,403,5
1512180486,0.0186,0.0107,-0.0240,-77.64,-40.59,959.78,-101,403,5
1512180486,-0.0144,0.0137,-0.0292,-53.96,20.69,936.40,-101,403,5
1512180486,0.0016,0.0023,-0.0308,-32.41,-16.36,1020.75,-101,403,5
1512180486,0.0053,-0.0068,-0.0312,-32.78,0.31,1018.55,-94,403,11
1512180486,0.0113,0.0024,-0.0245,-34.24,69.40,1008.61,-94,403,11
1512180486,0.0137,0.0004,-0.0234,-32.35,10.19,1024.11,-94,403,11
1512180486,-0.0033,0.0013,-0.0208,-51.33,-12.57,937.07,-94,403,11
1512180487,0.0202,0.0031,-0.0142,1.65,40.89,890.93,-94,403,11
1512180487,-0.0048,-0.0023,-0.0173,-30.64,-2.87,1013.55,-94,407,11
1512180487,0.0025,-0.0031,-0.0103,-9.28,24.90,994.51,-94,407,11
1512180487,-0.0044,-0.0020,-0.0117,-36.07,38.21,997.50,-94,407,11
1512180487,-0.0009,-0.0095,-0.0057,-31.01,28.63,995.24,-94,407,11
1512180487,0.0053,-0.0056,-0.0129,16.17,11.29,975.22,-105,393,1
1512180487,-0.0033,-0.0104,-0.0099,-37.23,-1.10,992.49,-105,393,1
1512180487,0.0008,-0.0176,-0.0044,-53.59,19.17,939.39,-105,393,1
1512180487,-0.0027,-0.0206,-0.0079,-21.30,-8.61,977.78,-105,393,1
1512180487,0.0005,-0.0165,0.0011,-31.01,32.90,952.21,-105,393,1
1512180487,0.0105,-0.0156,0.0021,-35.52,26.61,947.94,-89,405,-10
1512180487,0.0282,-0.0081,0.0049,6.65,48.22,962.10,-89,405,-10
1512180487,-0.0113,-0.0127,-0.0021,8.36,-73.06,994.26,-89,405,-10
1512180487,-0.0044,-0.0064,0.0055,-36.32,30.58,1002.38,-89,405,-10
1512180487,-0.0173,-0.0013,0.0065,19.78,-27.34,974.85,-89,405,-10
1512180487,0.0100,0.0013,0.0076,22.64,12.76,973.88,-86,394,3
1512180487,-0.0004,0.0166,0.0140,-11.41,-12.57,938.84,-86,394,3
1512180487,0.0025,0.0053,0.0162,-60.73,-3.60,945.07,-86,394,3
1512180487,-0.0004,0.0123,0.0165,6.53,-15.50,929.20,-86,394,3
1512180487,0.0190,0.0096,0.0226,-43.15,53.41,938.78,-98,410,-1
1512180487,0.0089,0.0129,0.0201,-44.98,6.47,978.45,-98,410,-1
1512180487,0.0083,-0.0004,0.0213,-12.27,20.08,917.60,-98,410,-1
1512180487,0.0266,0.0133,0.0230,-28.87,3.23,911.38,-98,410,-1
1512180487,0.0068,-0.0029,0.0197,7.69,0.18,970.95,-98,410,-1
1512180487,-0.0115,0.0117,0.0205,-27.34,-9.70,960.39,-107,419,0
1512180487,0.0049,-0.0028,0.0230,-41.50,9.22,959.90,-107,419,0
1512180487,-0.0073,-0.0031,0.0220,-26.86,-33.69,1019.10,-107,419,0
1512180487,0.0005,0.0035,0.0241,20.45,-7.14,940.73,-107,419,0
1512180487,-0.0008,0.0144,0.0277,-6.35,-32.53,963.26,-107,419,0
1512180487,0.0039,0.0120,0.0316,-8.06,-3.85,955.44,-100,401,3
1512180487,-0.0083,0.0138,0.0330,23.44,-7.63,950.56,-100,401,3
1512180487,-0.0069,0.0128,0.0349,-8.67,-51.76,959.78,-100,401,3
1512180487,-0.0137,0.0168,0.0393,-41.38,16.05,956.30,-100,401,3
1512180487,0.0061,0.0206,0.0434,-44.98,-31.98,966.92,-100,401,3
1512180487,-0.0031,0.0213,0.0411,-44.74,18.68,973.14,-110,401,-3
1512180487,-0.0037,0.0095,0.0441,-39.98,-29.42,958.31,-110,401,-3
1512180487,-0.0154,0.0061,0.0430,-41.69,-31.62,961.55,-110,401,-3
1512180487,-0.0033,0.0091,0.0439,-9.46,-34.18,957.15,-110,401,-3
1512180488,-0.0021,0.0005,0.0466,-33.45,-28.44,962.83,-108,400,11
1512180488,-0.0125,-0.0065,0.0423,-6.23,-25.88,1004.33,-108,400,11
1512180488,0.0068,-0.0101,0.0466,14.47,-45.29,899.66,-108,400,11
1512180488,0.0037,-0.0091,0.0513,1.59,-37.17,919.13,-108,400,11
1512180488,0.0113,-0.0145,0.0537,-9.22,-51.76,957.70,-108,400,11
1512180488,-0.0130,-0.0105,0.0518,-29.66,-57.62,1026.31,-114,394,0
1512180488,0.0036,-0.0039,0.0537,-14.16,-64.21,1001.28,-114,394,0
1512180488,0.0068,0.0003,0.0530,42.05,-52.49,947.75,-114,394,0
1512180488,0.0123,-0.0063,0.0585,5.80,-52.43,946.84,-114,394,0
1512180488,0.0326,-0.0073,0.0625,-5.68,-54.69,949.52,-100,401,10
1512180488,0.0077,-0.0157,0.0654,37.05,-55.18,933.41,-100,401,10
1512180488,0.0164,-0.0146,0.0662,28.38,-48.77,980.96,-100,401,10
1512180488,0.0230,-0.0044,0.0683,16.60,-41.02,966.86,-100,401,10
1512180488,0.0197,0.0130,0.0679,23.13,-47.06,977.17,-100,401,10
1512180488,0.0246,0.0040,0.0684,26.92,-60.30,881.65,-112,396,15
1512180488,0.0011,0.0013,0.0688,41.56,-51.39,947.14,-112,396,15
1512180488,0.0216,-0.0016,0.0747,14.16,-35.58,926.82,-112,396,15
1512180488,0.0071,-0.0123,0.0792,17.09,-54.63,941.83,-112,396,15
1512180488,0.0152,-0.0009,0.0798,50.66,-71.47,919.49,-112,396,15
1512180488,0.0188,0.0041,0.0855,-7.32,-24.05,882.20,-115,410,1
1512180488,0.0237,-0.0001,0.0850,-16.72,-43.58,975.10,-115,410,1
1512180488,0.0085,-0.0016,0.0830,-0.55,-43.09,1041.02,-115,410,1
1512180488,0.0007,0.0128,0.0834,-20.08,-59.51,977.91,-115,410,1
1512180488,0.0045,0.0173,0.0787,-3.54,-96.44,975.16,-115,403,8
1512180488,0.0123,0.0168,0.0856,-1.59,-49.99,955.81,-115,403,8
1512180488,0.0100,0.0241,0.0871,16.05,-60.36,906.13,-115,403,8
1512180488,-0.0023,0.0268,0.0931,48.58,-67.93,958.50,-115,403,8
1512180488,0.0258,0.0176,0.0960,-33.94,-38.88,947.88,-115,403,8
1512180488,-0.0075,0.0194,0.0976,-3.78,-55.11,1025.21,-126,410,15
1512180488,-0.0079,0.0330,0.0984,23.74,-48.52,1037.84,-126,410,15
1512180488,-0.0142,0.0466,0.1004,-49.19,-78.86,957.58,-126,410,15
1512180488,-0.0170,0.0333,0.1039,-37.48,-41.75,941.04,-126,410,15
1512180488,0.0133,0.0268,0.1068,-34.91,-46.51,928.59,-126,410,15
1512180488,-0.0064,0.0237,0.1063,-55.60,-67.63,933.96,-112,407,8
1512180488,0.0047,0.0188,0.1060,-35.46,-25.39,928.83,-112,407,8
1512180488,-0.0105,0.0145,0.1029,-13.18,-86.85,944.03,-112,407,8
1512180488,0.0033,0.0149,0.1049,-7.14,-67.38,957.76,-112,407,8
1512180488,-0.0051,0.0048,0.1083,-4.76,-78.80,956.79,-117,416,3
1512180489,-0.0071,-0.0107,0.1107,14.59,-83.86,945.62,-117,416,3
1512180489,-0.0154,-0.0221,0.1131,-34.30,-64.45,942.57,-117,416,3
1512180489,-0.0194,-0.0258,0.1172,-13.55,-104.43,925.96,-117,416,3
1512180489,-0.0031,-0.0313,0.1221,-25.51,-76.90,910.28,-117,416,3
1512180489,0.0088,-0.0280,0.1265,-31.19,-55.48,951.23,-130,400,1
1512180489,-0.0008,-0.0253,0.1304,4.39,-55.79,1004.27,-130,400,1
1512180489,0.0228,-0.0202,0.1313,28.93,-71.53,954.41,-130,400,1
1512180489,-0.0053,-0.0142,0.1290,45.84,-102.78,984.80,-130,400,1
1512180489,-0.0072,-0.0182,0.1324,45.96,-52.43,1028.44,-122,403,5
1512180489,0.0129,-0.0105,0.1374,59.33,-77.45,987.24,-122,403,5
1512180489,-0.0141,-0.0168,0.1414,57.92,-97.41,1032.17,-122,403,5
1512180489,-0.0025,-0.0103,0.1490,28.50,-80.99,976.62,-122,403,5
1512180489,0.0209,0.0017,0.1562,32.90,-40.71,990.05,-122,403,5
1512180489,0.0028,0.0035,0.1605,46.39,-47.49,991.70,-142,416,6
1512180489,0.0073,0.0129,0.1621,53.04,-61.83,933.17,-142,416,6
1512180489,0.0108,0.0146,0.1674,56.34,-49.44,926.27,-142,416,6
1512180489,0.0088,0.0087,0.1678,77.70,-64.76,958.86,-142,416,6
1512180489,-0.0172,0.0019,0.1691,87.40,-80.63,974.37,-142,416,6
1512180489,0.0015,-0.0161,0.1806,42.97,-89.42,968.14,-138,409,6
1512180489,-0.0116,-0.0120,0.1800,60.06,-69.34,1011.54,-138,409,6
1512180489,-0.0020,-0.0057,0.1847,45.35,-79.22,950.81,-138,409,6
1512180489,0.0007,-0.0017,0.1917,36.87,-37.35,962.22,-138,409,6
1512180489,0.0177,0.0068,0.1915,67.14,-18.37,974.30,-145,401,6
1512180489,0.0156,0.0138,0.1899,65.25,-41.02,949.10,-145,401,6
1512180489,-0.0039,0.0117,0.1852,51.57,-58.29,978.88,-145,401,6
1512180489,0.0087,0.0154,0.1892,80.02,-63.23,912.90,-145,401,6
1512180489,0.0116,0.0144,0.1911,62.01,-96.13,913.64,-145,401,6
1512180489,0.0109,0.0164,0.1953,72.63,-107.97,909.97,-145,391,16
1512180489,0.0055,0.0300,0.1973,69.64,-106.93,950.93,-145,391,16
1512180489,0.0170,0.0425,0.2016,41.87,-84.11,924.56,-145,391,16
1512180489,0.0092,0.0394,0.2028,44.37,-76.35,911.68,-145,391,16
1512180489,0.0153,0.0383,0.2061,28.93,-78.31,919.98,-145,391,16
1512180489,-0.0041,0.0300,0.2069,25.70,-100.34,907.90,-156,405,-6
1512180489,0.0063,0.0142,0.2088,26.86,-78.37,914.79,-156,405,-6
1512180489,0.0025,0.0158,0.2117,27.04,-68.05,971.31,-156,405,-6
1512180489,0.0137,0.0180,0.2136,36.93,-68.24,937.93,-156,405,-6
1512180489,0.0085,0.0172,0.2096,33.63,-87.46,974.24,-161,396,8
1512180489,-0.0113,0.0080,0.2093,51.70,-78.55,997.86,-161,396,8
1512180490,-0.0113,0.0003,0.2060,23.93,-83.56,961.73,-161,396,8
1512180490,0.0148,0.0084,0.2083,64.15,-54.50,971.80,-161,396,8
1512180490,0.0088,0.0249,0.2076,59.39,-76.42,960.69,-161,396,8
1512180490,0.0150,0.0389,0.2044,88.93,-118.10,983.76,-170,409,3
1512180490,-0.0020,0.0336,0.2063,57.74,-116.33,1021.85,-170,409,3
1512180490,0.0044,0.0185,0.2099,42.60,-118.59,970.58,-170,409,3
1512180490,0.0200,0.0112,0.2144,-12.51,-56.40,929.93,-170,409,3
1512180490,0.0138,0.0111,0.2176,28.08,-83.13,952.39,-170,409,3
1512180490,0.0234,0.0032,0.2184,-4.76,-88.13,1014.95,-166,398,0
1512180490,-0.0047,0.0230,0.2151,24.05,-75.44,947.33,-166,398,0
1512180490,0.0136,0.0324,0.2156,41.63,-104.55,903.26,-166,398,0
1512180490,-0.0140,0.0041,0.2141,20.02,-80.02,997.19,-166,398,0
1512180490,-0.0093,-0.0081,0.2157,92.29,-102.42,916.87,-179,421,22
1512180490,-0.0071,-0.0068,0.2143,38.94,-70.92,972.17,-179,421,22
1512180490,0.0286,0.0119,0.2178,54.93,-50.84,920.17,-179,421,22
1512180490,0.0519,0.0044,0.2188,28.44,-81.24,964.36,-179,421,22
1512180490,0.0281,-0.0120,0.2238,60.49,-78.31,904.85,-179,421,22
1512180490,0.0368,-0.0166,0.2278,55.30,-76.11,971.98,-193,417,8
1512180490,0.0244,-0.0180,0.2237,54.14,-106.26,1002.38,-193,417,8
1512180490,0.0264,-0.0027,0.2218,37.11,-69.09,1007.14,-193,417,8
1512180490,0.0438,-0.0020,0.2252,101.81,-71.41,918.82,-193,417,8
1512180490,0.0302,0.0081,0.2216,97.23,-83.68,938.23,-193,400,11
1512180490,0.0166,0.0087,0.2241,78.12,-79.83,963.01,-193,400,11
1512180490,0.0280,0.0005,0.2262,43.95,-81.42,1034.06,-193,400,11
1512180490,0.0300,0.0061,0.2266,41.32,-45.29,973.51,-193,400,11
1512180490,0.0230,0.0097,0.2261,70.07,-58.11,941.83,-193,400,11
1512180490,0.0256,0.0051,0.2265,60.67,-56.21,1000.18,-200,382,-1
1512180490,0.0117,0.0064,0.2286,94.18,-71.96,964.97,-200,382,-1
1512180490,0.0157,-0.0045,0.2304,50.66,-71.59,1022.52,-200,382,-1
1512180490,0.0181,-0.0095,0.2316,74.46,-87.52,979.25,-200,382,-1
1512180490,0.0232,-0.0056,0.2325,57.37,-50.29,905.03,-200,382,-1
1512180490,-0.0008,0.0041,0.2314,121.40,-103.82,928.83,-205,394,-3
1512180490,0.0261,0.0172,0.2324,40.04,-42.66,943.05,-205,394,-3
1512180490,-0.0071,0.0174,0.2281,45.10,-87.34,951.48,-205,394,-3
1512180490,-0.0019,0.0184,0.2274,75.32,-90.39,1002.50,-205,394,-3
1512180490,-0.0087,0.0076,0.2305,69.21,-56.58,962.77,-205,394,-3
1512180490,0.0027,-0.0013,0.2349,-39.86,-68.24,993.41,-223,398,3
1512180490,0.0124,-0.0071,0.2346,-16.36,-57.13,975.34,-223,398,3
1512180491,0.0130,-0.0025,0.2328,0.18,-70.80,972.72,-223,398,3
1512180491,0.0055,-0.0052,0.2344,14.65,-85.57,945.07,-223,398,3
1512180491,0.0057,0.0115,0.2322,69.40,-68.48,880.55,-214,389,8
1512180491,-0.0132,0.0225,0.2264,90.94,-71.29,964.84,-214,389,8
1512180491,-0.0258,0.0237,0.2221,90.21,-84.72,978.82,-214,389,8
1512180491,-0.0292,0.0161,0.2161,75.07,-73.73,937.13,-214,389,8
1512180491,-0.0047,0.0270,0.2184,54.44,-29.11,938.42,-214,389,8
1512180491,-0.0172,0.0324,0.2157,17.40,-69.76,979.86,-214,396,15
1512180491,-0.0028,0.0342,0.2204,32.90,-34.79,913.94,-214,396,15
1512180491,-0.0216,0.0292,0.2161,34.97,-40.47,986.82,-214,396,15
1512180491,0.0009,0.0186,0.2133,62.19,-60.00,979.19,-214,396,15
1512180491,0.0095,0.0169,0.2112,62.07,-58.35,926.94,-214,396,15
1512180491,-0.0004,0.0077,0.2125,45.35,-53.65,968.20,-230,391,6
1512180491,0.0230,0.0104,0.2143,36.56,-18.37,936.83,-230,391,6
1512180491,0.0045,0.0121,0.2117,65.31,-36.68,978.52,-230,391,6
1512180491,0.0068,0.0128,0.2079,49.80,-47.30,975.28,-230,391,6
1512180491,0.0127,0.0099,0.2056,52.37,-21.30,975.95,-217,389,1
1512180491,0.0009,0.0059,0.2032,49.26,-35.10,984.31,-217,389,1
1512180491,-0.0013,0.0040,0.2000,21.61,-66.53,1075.87,-217,389,1
1512180491,0.0149,0.0196,0.2004,4.27,-24.54,1019.71,-217,389,1
1512180491,0.0087,0.0072,0.2024,0.79,31.01,976.38,-217,389,1
1512180491,0.0391,0.0100,0.2033,-11.29,1.71,1023.38,-223,373,10
1512180491,0.0083,-0.0083,0.2044,1.77,-11.47,968.99,-223,373,10
1512180491,-0.0064,-0.0097,0.2024,54.75,-28.75,950.74,-223,373,10
1512180491,0.0157,-0.0063,0.2003,55.91,-34.30,960.69,-223,373,10
1512180491,0.0103,-0.0028,0.1936,64.09,-18.80,987.73,-238,354,1
1512180491,0.0087,0.0021,0.1892,73.06,-20.26,924.68,-238,354,1
1512180491,0.0108,0.0028,0.1878,61.40,-15.14,977.66,-238,354,1
1512180491,0.0087,0.0095,0.1823,85.45,-33.45,925.72,-238,354,1
1512180491,0.0089,0.0115,0.1827,76.84,-34.00,958.37,-238,354,1
1512180491,0.0350,0.0274,0.1832,79.96,9.09,939.94,-251,359,16
1512180491,0.0111,0.0249,0.1807,42.85,-49.56,956.48,-251,359,16
1512180491,-0.0100,0.0246,0.1767,56.03,-12.27,951.05,-251,359,16
1512180491,-0.0140,0.0161,0.1782,53.47,-32.47,969.24,-251,359,16
1512180491,-0.0181,-0.0001,0.1794,58.17,-57.86,915.04,-251,359,16
1512180491,-0.0080,0.0052,0.1775,92.90,-13.73,912.78,-237,363,6
1512180491,0.0020,0.0120,0.1759,66.10,-10.38,977.48,-237,363,6
1512180492,0.0081,0.0137,0.1754,14.10,-10.68,1025.82,-237,363,6
1512180492,0.0020,0.0220,0.1698,40.83,-5.31,982.67,-237,363,6
1512180492,0.0008,0.0037,0.1708,16.78,-24.17,948.49,-251,363,3
1512180492,0.0035,0.0007,0.1676,37.90,-34.06,897.95,-251,363,3
1512180492,-0.0040,-0.0012,0.1648,17.27,-27.28,895.08,-251,363,3
1512180492,0.0003,0.0079,0.1607,51.94,-40.10,912.54,-251,363,3
1512180492,-0.0027,0.0065,0.1582,31.13,-26.06,937.01,-251,363,3
1512180492,-0.0016,0.0047,0.1538,20.57,-35.71,976.99,-238,354,-1
1512180492,-0.0092,0.0089,0.1491,18.31,-32.04,979.31,-238,354,-1
1512180492,-0.0056,0.0115,0.1475,5.00,-7.02,964.48,-238,354,-1
1512180492,0.0216,0.0176,0.1455,25.45,13.85,954.10,-238,354,-1
1512180492,0.0019,0.0213,0.1389,23.62,-11.60,978.39,-238,354,-1
1512180492,0.0047,0.0224,0.1341,31.80,-62.19,963.20,-244,363,-16
1512180492,0.0004,0.0055,0.1325,41.44,-22.03,896.91,-244,363,-16
1512180492,0.0047,0.0031,0.1330,24.05,-21.30,925.96,-244,363,-16
1512180492,-0.0084,-0.0021,0.1305,7.39,-50.48,952.15,-244,363,-16
1512180492,0.0080,0.0119,0.1264,32.96,-30.82,935.12,-274,361,11
1512180492,-0.0197,0.0065,0.1253,19.10,-37.96,970.40,-274,361,11
1512180492,0.0013,0.0087,0.1224,39.67,-45.47,936.77,-274,361,11
1512180492,-0.0029,0.0029,0.1232,36.99,-16.72,889.89,-274,361,11
1512180492,0.0109,0.0001,0.1224,27.59,-3.72,965.58,-274,361,11
1512180492,0.0156,0.0013,0.1189,53.65,-21.85,920.23,-242,357,-1
1512180492,0.0269,-0.0023,0.1185,11.17,6.96,962.10,-242,357,-1
1512180492,0.0037,0.0029,0.1128,23.01,-48.58,974.24,-242,357,-1
1512180492,0.0297,0.0097,0.1146,14.10,-32.59,933.78,-242,357,-1
1512180492,0.0190,0.0123,0.1137,55.54,-35.95,927.43,-268,356,3
1512180492,0.0084,0.0109,0.1111,33.87,-20.63,977.48,-268,356,3
1512180492,0.0150,0.0142,0.1084,10.13,23.56,962.83,-268,356,3
1512180492,0.0236,0.0229,0.1056,-1.77,2.08,1011.29,-268,356,3
1512180492,0.0136,0.0160,0.1075,9.22,8.36,981.69,-268,356,3
1512180492,0.0264,0.0157,0.1057,-14.53,35.52,967.41,-256,354,-1
1512180492,0.0083,0.0037,0.1015,12.45,-15.01,920.47,-256,354,-1
1512180492,0.0056,-0.0041,0.1007,-8.24,-19.47,944.34,-256,354,-1
1512180492,-0.0076,-0.0065,0.0985,8.30,-23.68,955.63,-256,354,-1
1512180492,0.0011,-0.0071,0.0985,-21.91,-4.76,946.23,-256,354,-1
1512180492,0.0115,-0.0007,0.0972,20.45,-21.61,1002.08,-267,347,11
1512180492,0.0060,-0.0025,0.0932,2.56,-26.67,932.80,-267,347,11
1512180492,0.0276,0.0029,0.0941,8.12,-8.73,977.29,-267,347,11
1512180493,0.0214,-0.0016,0.0913,31.56,16.91,937.62,-267,347,11
1512180493,0.0288,-0.0091,0.0952,11.78,12.39,923.95,-263,340,-1
1512180493,0.0266,-0.0107,0.0956,13.24,-0.12,969.79,-263,340,-1
1512180493,-0.0129,-0.0105,0.0956,2.69,12.33,986.15,-263,340,-1
1512180493,0.0032,-0.0009,0.0896,53.89,4.21,946.72,-263,340,-1
1512180493,0.0095,0.0033,0.0859,12.39,-12.15,978.21,-263,340,-1
1512180493,-0.0152,-0.0045,0.0830,14.04,-21.48,931.15,-267,343,5
1512180493,-0.0031,-0.0142,0.0850,-13.12,-25.45,921.26,-267,343,5
1512180493,-0.0224,-0.0091,0.0832,37.84,-12.39,907.65,-267,343,5
1512180493,-0.0043,-0.0068,0.0854,-21.79,-4.94,981.81,-267,343,5
1512180493,-0.0053,-0.0059,0.0816,-10.07,-31.92,985.66,-267,343,5
1512180493,0.0032,0.0016,0.0842,2.81,3.42,940.43,-272,342,3
1512180493,0.0059,0.0111,0.0807,11.90,-14.65,959.29,-272,342,3
1512180493,0.0027,-0.0009,0.0784,-15.26,-2.20,994.75,-272,342,3
1512180493,0.0119,-0.0049,0.0747,39.25,0.79,936.58,-272,342,3
1512180493,0.0048,-0.0056,0.0695,-2.69,28.32,963.32,-261,331,0
1512180493,-0.0021,-0.0083,0.0654,5.37,-36.56,989.81,-261,331,0
1512180493,0.0027,-0.0107,0.0650,-21.18,3.05,932.37,-261,331,0
1512180493,0.0141,0.0035,0.0674,-7.39,1.95,962.52,-261,331,0
1512180493,0.0084,0.0265,0.0650,63.42,-35.64,905.82,-261,331,0
1512180493,-0.0032,0.0256,0.0655,17.21,-12.45,934.57,-254,338,3
1512180493,0.0064,0.0087,0.0664,8.97,-33.39,947.27,-254,338,3
1512180493,0.0103,0.0004,0.0687,-17.64,-14.89,933.41,-254,338,3
1512180493,0.0124,-0.0013,0.0696,-14.40,7.93,921.75,-254,338,3
1512180493,0.0067,0.0029,0.0610,-29.24,15.20,893.80,-254,338,3
1512180493,-0.0008,0.0007,0.0578,-31.25,-9.52,960.27,-272,324,-3
1512180493,-0.0156,-0.0072,0.0531,-31.01,1.46,1021.91,-272,324,-3
1512180493,-0.0216,-0.0189,0.0471,-31.98,-7.69,997.07,-272,324,-3
1512180493,-0.0095,-0.0234,0.0483,-4.46,-4.52,981.08,-272,324,-3
1512180493,-0.0013,-0.0242,0.0521,13.92,-19.41,906.37,-275,331,-16
1512180493,0.0032,-0.0250,0.0495,4.88,-16.24,915.16,-275,331,-16
1512180493,-0.0134,-0.0248,0.0506,42.85,-33.51,904.42,-275,331,-16
1512180493,-0.0140,-0.0209,0.0473,27.28,-36.93,936.10,-275,331,-16
1512180493,0.0039,-0.0116,0.0490,22.71,-21.12,862.18,-275,331,-16
1512180493,-0.0008,-0.0125,0.0502,9.52,-4.64,931.88,-272,327,-13
1512180493,-0.0033,-0.0189,0.0473,-6.10,-44.19,955.26,-272,327,-13
1512180493,-0.0060,-0.0236,0.0509,-7.63,-51.70,965.94,-272,327,-13
1512180493,0.0088,-0.0178,0.0554,-23.74,8.36,969.18,-272,327,-13
1512180494,0.0113,-0.0043,0.0513,19.10,-29.85,953.06,-263,336,-1
1512180494,-0.0029,-0.0148,0.0463,17.94,-18.49,967.41,-263,336,-1
1512180494,-0.0138,-0.0089,0.0482,51.15,-37.05,961.18,-263,336,-1
1512180494,-0.0257,-0.0160,0.0433,-6.59,-46.51,973.21,-263,336,-1
1512180494,-0.0088,-0.0044,0.0441,10.44,-54.44,987.79,-263,336,-1
1512180494,-0.0107,-0.0084,0.0470,1.77,-42.97,973.51,-270,326,5
1512180494,-0.0015,-0.0117,0.0474,26.73,-97.53,946.17,-270,326,5
1512180494,-0.0015,-0.0056,0.0465,44.98,-5.07,955.08,-270,326,5
1512180494,-0.0125,0.0232,0.0431,47.97,-38.51,937.56,-270,326,5
1512180494,-0.0228,0.0132,0.0350,24.29,-101.99,922.49,-270,326,5
1512180494,-0.0265,0.0238,0.0344,42.18,-45.41,906.13,-274,315,-5
1512180494,-0.0290,0.0265,0.0353,48.34,-63.84,942.63,-274,315,-5
1512180494,-0.0061,0.0095,0.0399,-12.33,-49.87,962.59,-274,315,-5
1512180494,-0.0021,-0.0027,0.0463,-4.46,-17.58,923.89,-274,315,-5
1512180494,0.0076,-0.0068,0.0475,-64.45,-51.82,971.86,-279,327,10
1512180494,0.0100,-0.0015,0.0499,-53.77,-31.92,1006.90,-279,327,10
1512180494,0.0134,0.0048,0.0455,-19.84,-14.77,990.48,-279,327,10
1512180494,0.0321,-0.0015,0.0455,7.08,-57.07,944.58,-279,327,10
1512180494,0.0153,-0.0285,0.0401,11.41,-55.73,946.47,-279,327,10
1512180494,0.0142,-0.0338,0.0393,17.27,-12.15,978.33,-277,315,5
1512180494,0.0165,-0.0342,0.0389,-14.89,-65.86,931.70,-277,315,5
1512180494,0.0035,-0.0233,0.0360,21.73,-86.12,956.12,-277,315,5
1512180494,0.0133,-0.0064,0.0425,22.58,-36.99,895.32,-277,315,5
1512180494,0.0099,-0.0099,0.0419,40.10,-75.13,959.29,-277,315,5
1512180494,-0.0015,-0.0005,0.0433,67.20,-51.70,923.46,-272,313,0
1512180494,0.0105,-0.0003,0.0445,31.62,-35.58,928.65,-272,313,0
1512180494,0.0120,-0.0083,0.0463,26.49,-25.45,952.94,-272,313,0
1512180494,0.0200,0.0012,0.0485,40.10,-20.63,983.58,-272,313,0
1512180494,0.0162,0.0056,0.0454,-6.47,-39.12,985.17,-272,313,10
1512180494,0.0193,0.0170,0.0411,10.86,-59.45,975.59,-272,313,10
1512180494,0.0156,0.0201,0.0385,17.21,-27.10,950.81,-272,313,10
1512180494,0.0249,0.0338,0.0376,25.27,-50.05,927.86,-272,313,10
1512180494,0.0100,0.0301,0.0357,34.97,-55.97,924.07,-272,313,10
1512180494,0.0125,0.0186,0.0350,42.72,-55.24,942.50,-284,308,5
1512180494,0.0117,0.0127,0.0390,22.34,-31.07,945.98,-284,308,5
1512180494,0.0269,0.0140,0.0446,-29.24,-31.68,1009.95,-284,308,5
1512180494,0.0115,0.0104,0.0431,-16.60,-20.75,986.57,-284,308,5
1512180494,0.0053,0.0164,0.0426,23.32,-60.97,967.90,-284,308,5
1512180495,0.0028,0.0095,0.0421,34.55,-73.43,950.87,-270,319,8
1512180495,0.0276,0.0127,0.0461,22.03,-9.77,886.78,-270,319,8
1512180495,0.0165,0.0134,0.0403,31.37,-52.98,949.77,-270,319,8
1512180495,0.0145,0.0056,0.0419,25.15,-82.34,950.93,-270,319,8
1512180495,0.0083,0.0055,0.0437,3.36,-40.22,937.32,-282,310,-3
1512180495,0.0063,0.0177,0.0445,14.40,-35.28,986.27,-282,310,-3
1512180495,0.0221,0.0266,0.0442,21.85,-30.21,968.99,-282,310,-3
1512180495,-0.0073,0.0166,0.0410,22.64,-51.45,959.96,-282,310,-3
1512180495,-0.0023,0.0067,0.0390,0.12,-48.52,953.06,-282,310,-3
1512180495,0.0088,0.0113,0.0418,5.37,-29.48,979.19,-268,320,0
1512180495,0.0019,0.0140,0.0427,-20.39,-36.62,971.68,-268,320,0
1512180495,-0.0015,0.0184,0.0445,-10.25,-27.28,977.36,-268,320,0
1512180495,-0.0025,0.0137,0.0401,-8.36,-56.03,968.81,-268,320,0
1512180495,-0.0075,0.0016,0.0405,2.69,-48.10,975.59,-268,320,0
1512180495,-0.0069,-0.0076,0.0403,-25.63,-10.13,1028.75,-295,312,-1
1512180495,0.0040,-0.0136,0.0417,-28.75,-4.82,1000.61,-295,312,-1
1512180495,0.0089,0.0005,0.0433,-37.05,-13.00,957.15,-295,312,-1
1512180495,0.0128,0.0161,0.0459,52.12,-14.53,960.88,-295,312,-1
1512180495,-0.0075,0.0252,0.0438,46.88,-51.09,971.13,-284,308,-5
1512180495,0.0141,0.0278,0.0461,26.86,-59.69,918.46,-284,308,-5
1512180495,0.0099,0.0157,0.0493,37.29,-44.13,960.33,-284,308,-5
1512180495,0.0250,0.0181,0.0494,23.74,-44.68,920.17,-284,308,-5
1512180495,0.0064,0.0181,0.0531,26.67,-19.53,894.04,-284,308,-5
1512180495,0.0258,0.0475,0.0531,-3.48,-2.75,933.11,-282,313,10
1512180495,0.0158,0.0595,0.0509,29.97,-23.68,961.36,-282,313,10
1512180495,-0.0056,0.0537,0.0471,42.05,-42.85,1005.31,-282,313,10
1512180495,-0.0008,0.0479,0.0502,26.79,-14.95,974.98,-282,313,10
1512180495,-0.0095,0.0285,0.0539,2.32,23.86,962.71,-282,313,10
1512180495,-0.0248,0.0129,0.0497,-17.27,-6.41,967.41,-279,303,-13
1512180495,0.0105,0.0142,0.0549,8.61,24.23,897.95,-279,303,-13
1512180495,-0.0260,0.0178,0.0517,0.18,-39.37,945.62,-279,303,-13
1512180495,-0.0027,0.0198,0.0541,27.89,-45.47,910.46,-279,303,-13
1512180495,-0.0061,0.0292,0.0566,38.39,-16.91,934.14,-303,313,3
1512180495,0.0099,0.0278,0.0585,41.02,-27.34,915.47,-303,313,3
1512180495,0.0198,0.0256,0.0609,25.70,-26.98,940.25,-303,313,3
1512180495,0.0157,0.0212,0.0634,22.22,-16.54,967.04,-303,313,3
1512180495,0.0202,0.0166,0.0708,49.99,-13.24,953.25,-303,313,3
1512180495,0.0676,0.0406,0.0746,26.86,-17.88,942.50,-305,322,-8
1512180496,0.0627,0.0334,0.0791,44.43,-8.48,921.81,-305,322,-8
1512180496,0.0688,0.0136,0.0842,7.87,-7.87,922.30,-305,322,-8
1512180496,0.0493,-0.0023,0.0812,35.71,-12.08,953.37,-305,322,-8
1512180496,0.0390,-0.0120,0.0858,33.45,-25.94,986.51,-311,299,-6
1512180496,0.0322,-0.0272,0.0932,25.27,-14.95,952.58,-311,299,-6
1512180496,0.0270,-0.0292,0.0943,-9.70,8.97,1003.11,-311,299,-6
1512180496,0.0125,-0.0170,0.0928,21.00,3.54,1049.74,-311,299,-6
1512180496,0.0262,-0.0045,0.0955,47.97,19.04,959.96,-311,299,-6
1512180496,0.0085,0.0005,0.0955,48.22,-56.58,976.32,-326,297,-5
1512180496,0.0071,0.0005,0.1004,97.96,-8.36,884.03,-326,297,-5
1512180496,-0.0109,-0.0081,0.1108,108.03,-39.67,908.20,-326,297,-5
1512180496,0.0125,0.0121,0.1177,120.12,7.02,919.13,-326,297,-5
1512180496,0.0020,0.0210,0.1201,89.72,1.40,991.58,-326,297,-5
1512180496,0.0182,0.0369,0.1262,90.03,-20.63,970.58,-314,306,0
1512180496,0.0176,0.0376,0.1322,88.99,-2.87,989.62,-314,306,0
1512180496,0.0324,0.0298,0.1348,55.11,-29.91,1003.78,-314,306,0
1512180496,0.0253,0.0262,0.1393,93.26,-8.97,932.43,-314,306,0
1512180496,0.0040,0.0045,0.1435,88.26,-17.88,892.21,-318,289,-16
1512180496,0.0425,0.0130,0.1439,57.31,17.76,902.34,-318,289,-16
1512180496,0.0184,0.0272,0.1481,60.79,-8.00,944.89,-318,289,-16
1512180496,0.0288,0.0393,0.1573,48.89,2.32,877.81,-318,289,-16
1512180496,0.0212,0.0249,0.1554,51.76,1.34,939.09,-318,289,-16
1512180496,0.0158,0.0176,0.1599,39.00,7.57,981.93,-325,296,0
1512180496,0.0226,0.0198,0.1615,15.99,11.72,945.31,-325,296,0
1512180496,-0.0133,0.0120,0.1633,48.28,9.95,957.89,-325,296,0
1512180496,-0.0144,0.0194,0.1617,37.23,-29.85,907.90,-325,296,0
1512180496,-0.0149,0.0286,0.1630,45.47,43.27,819.15,-325,296,0
1512180496,-0.0049,0.0413,0.1671,65.49,-4.09,949.40,-323,283,-8
1512180496,-0.0132,0.0190,0.1766,37.66,12.88,947.02,-323,283,-8
1512180496,-0.0083,0.0067,0.1726,53.89,8.00,911.25,-323,283,-8
1512180496,-0.0166,0.0095,0.1719,22.09,-8.42,1014.28,-323,283,-8
1512180496,-0.0031,0.0140,0.1772,58.11,-20.20,973.21,-316,280,-25
1512180496,-0.0161,0.0108,0.1688,78.25,-29.85,955.57,-316,280,-25
1512180496,-0.0123,0.0104,0.1695,53.47,-15.93,1018.31,-316,280,-25
1512180496,0.0057,0.0087,0.1671,56.95,-14.53,990.48,-316,280,-25
1512180496,0.0067,0.0166,0.1635,74.71,-26.06,963.13,-316,280,-25
1512180496,0.0120,0.0252,0.1606,56.70,17.21,968.63,-328,271,-10
1512180497,0.0115,0.0285,0.1623,98.08,-34.06,939.45,-328,271,-10
1512180497,0.0178,0.0334,0.1698,60.36,20.45,950.01,-328,271,-10
1512180497,-0.0040,0.0220,0.1698,38.57,-3.72,984.31,-328,271,-10
1512180497,-0.0049,0.0185,0.1696,67.14,-9.28,948.12,-328,271,-10
1512180497,0.0045,0.0234,0.1772,46.88,-19.04,923.58,-302,273,-25
1512180497,0.0019,0.0265,0.1772,49.50,-5.00,1000.49,-302,273,-25
1512180497,0.0039,0.0302,0.1792,63.42,-3.23,978.33,-302,273,-25
1512180497,0.0097,0.0365,0.1804,34.85,-8.97,947.88,-302,273,-25
1512180497,-0.0040,0.0348,0.1794,55.66,-17.33,1007.63,-330,259,-8
1512180497,0.0210,0.0467,0.1808,44.68,24.35,892.94,-330,259,-8
1512180497,0.0332,0.0366,0.1858,4.70,13.31,947.88,-330,259,-8
1512180497,0.0008,0.0169,0.1858,63.78,-23.19,950.26,-330,259,-8
1512180497,-0.0109,0.0052,0.1875,27.22,34.91,920.35,-330,259,-8
1512180497,-0.0276,-0.0027,0.1923,-2.38,-1.46,1017.94,-318,267,-13
1512180497,-0.0320,-0.0165,0.1948,49.80,13.06,975.22,-318,267,-13
1512180497,-0.0362,-0.0233,0.2001,98.75,17.70,1019.04,-318,267,-13
1512180497,-0.0277,-0.0514,0.2044,36.93,-37.54,992.07,-318,267,-13
1512180497,-0.0182,-0.0445,0.2111,38.21,56.21,860.90,-316,245,-18
1512180497,-0.0186,-0.0373,0.2103,52.67,-4.33,964.78,-316,245,-18
1512180497,-0.0095,-0.0336,0.2061,59.45,-36.80,915.41,-316,245,-18
1512180497,0.0004,-0.0116,0.2100,98.94,13.92,871.46,-316,245,-18
1512180497,0.0264,-0.0028,0.2168,133.06,-0.92,990.23,-316,245,-18
1512180497,0.0180,0.0047,0.2158,111.57,-28.38,953.25,-328,253,-3
1512180497,0.0137,0.0091,0.2121,118.04,-17.27,875.85,-328,253,-3
1512180497,-0.0089,0.0015,0.2133,95.40,-33.02,890.99,-328,253,-3
1512180497,-0.0020,0.0001,0.2121,124.27,-13.12,959.53,-328,253,-3
1512180497,0.0121,0.0164,0.2178,89.11,5.37,924.44,-328,253,-3
1512180497,0.0092,0.0142,0.2238,53.41,7.02,1061.04,-326,230,-8
1512180497,-0.0011,0.0133,0.2217,121.40,-20.75,926.70,-326,230,-8
1512180497,0.0233,0.0048,0.2245,61.28,22.83,964.84,-326,230,-8
1512180497,0.0186,0.0185,0.2256,84.84,15.81,965.45,-326,230,-8
1512180497,-0.0029,0.0269,0.2230,139.40,1.65,962.28,-325,232,-16
1512180497,0.0252,0.0201,0.2234,53.28,0.12,974.18,-325,232,-16
1512180497,0.0009,0.0261,0.2249,48.10,34.55,995.73,-325,232,-16
1512180497,0.0116,0.0216,0.2210,85.21,-18.25,988.77,-325,232,-16
1512180497,0.0044,0.0310,0.2284,44.86,11.17,910.46,-325,232,-16
1512180497,-0.0065,0.0252,0.2292,19.71,33.51,1064.21,-314,239,-10
1512180497,-0.0153,0.0225,0.2451,59.20,16.60,1048.16,-314,239,-10
1512180498,-0.0236,0.0113,0.2402,29.42,47.36,1044.13,-314,239,-10
1512180498,-0.0292,-0.0001,0.2400,49.99,13.24,990.17,-314,239,-10
1512180498,-0.0093,-0.0129,0.2445,62.99,33.08,957.82,-314,239,-10
1512180498,-0.0264,-0.0150,0.2425,66.28,25.51,918.95,-330,223,-22
1512180498,-0.0109,-0.0081,0.2445,76.84,39.55,914.12,-330,223,-22
1512180498,-0.0128,-0.0089,0.2396,64.94,23.93,955.44,-330,223,-22
1512180498,-0.0087,-0.0172,0.2365,41.38,7.93,969.48,-330,223,-22
1512180498,-0.0197,-0.0242,0.2407,38.02,37.66,973.94,-325,222,-6
1512180498,-0.0280,-0.0256,0.2377,51.33,3.54,987.00,-325,222,-6
1512180498,-0.0284,-0.0324,0.2414,68.79,19.96,923.83,-325,222,-6
1512180498,-0.0226,-0.0318,0.2429,78.49,2.14,870.42,-325,222,-6
1512180498,-0.0184,-0.0140,0.2474,82.89,-13.79,927.98,-325,222,-6
1512180498,-0.0333,-0.0096,0.2402,117.13,-16.48,908.57,-321,211,-10
1512180498,-0.0260,-0.0087,0.2411,104.74,0.67,974.00,-321,211,-10
1512180498,-0.0204,-0.0068,0.2374,132.14,-33.02,885.62,-321,211,-10
1512180498,-0.0370,-0.0076,0.2394,114.26,-13.06,887.76,-321,211,-10
1512180498,-0.0132,0.0021,0.2410,76.17,28.56,910.22,-309,199,-25
1512180498,-0.0290,-0.0044,0.2386,87.16,-26.79,942.32,-309,199,-25
1512180498,-0.0352,0.0020,0.2431,47.00,-21.24,997.01,-309,199,-25
1512180498,-0.0261,0.0246,0.2421,123.78,-29.85,973.45,-309,199,-25
1512180498,-0.0181,0.0125,0.2396,84.78,-19.29,1003.78,-309,199,-25
1512180498,0.0068,0.0113,0.2388,107.18,-19.10,969.06,-326,202,-15
1512180498,-0.0055,-0.0017,0.2406,117.37,4.09,882.20,-326,202,-15
1512180498,0.0120,0.0232,0.2392,108.83,-52.00,977.17,-326,202,-15
1512180498,-0.0031,0.0361,0.2362,105.65,6.16,974.85,-326,202,-15
1512180498,0.0245,0.0425,0.2368,100.10,-34.97,963.56,-326,202,-15
1512180498,0.0345,0.0405,0.2396,70.07,-7.69,977.17,-305,195,-18
1512180498,0.0498,0.0337,0.2463,31.74,36.74,982.67,-305,195,-18
1512180498,0.0651,0.0405,0.2442,29.85,2.93,1013.67,-305,195,-18
1512180498,0.0265,0.0426,0.2357,22.83,-32.90,982.79,-305,195,-18
1512180498,0.0272,0.0471,0.2406,0.43,7.57,928.96,-312,178,-15
1512180498,0.0362,0.0501,0.2404,48.83,-15.38,916.08,-312,178,-15
1512180498,0.0310,0.0302,0.2401,36.56,-25.02,967.47,-312,178,-15
1512180498,0.0053,0.0241,0.2388,42.54,-26.49,955.99,-312,178,-15
1512180498,0.0248,0.0124,0.2405,60.55,-18.19,987.49,-312,178,-15
1512180498,0.0365,0.0181,0.2415,81.54,-19.84,981.99,-325,179,6
1512180498,0.0442,0.0194,0.2425,53.53,9.40,990.42,-325,179,6
1512180498,0.0603,0.0281,0.2433,62.68,-16.24,965.70,-325,179,6
1512180499,0.0260,0.0225,0.2352,67.93,-32.04,940.55,-325,179,6
1512180499,0.0288,0.0120,0.2441,69.27,-36.13,930.91,-325,179,6
1512180499,0.0257,0.0173,0.2426,109.07,-60.36,887.02,-319,171,-22
1512180499,0.0486,0.0277,0.2419,77.39,-36.13,898.80,-319,171,-22
1512180499,0.0284,0.0317,0.2390,95.52,-71.29,967.29,-319,171,-22
1512180499,0.0186,0.0265,0.2415,67.08,-73.06,941.10,-319,171,-22
1512180499,0.0213,0.0260,0.2462,13.92,-44.13,957.15,-319,174,-11
1512180499,0.0178,0.0281,0.2426,37.05,-52.37,988.77,-319,174,-11
1512180499,0.0032,0.0268,0.2455,47.55,-61.71,981.57,-319,174,-11
1512180499,0.0184,0.0245,0.2446,16.66,-53.96,956.97,-319,174,-11
1512180499,0.0200,0.0174,0.2457,55.24,-34.18,995.73,-319,174,-11
1512180499,0.0043,0.0117,0.2459,10.68,-42.11,930.48,-319,181,-8
1512180499,0.0321,0.0079,0.2495,8.79,-33.20,922.12,-319,181,-8
1512180499,0.0330,0.0085,0.2490,43.58,-7.32,860.90,-319,181,-8
1512180499,0.0593,0.0184,0.2481,60.49,-43.52,969.54,-319,181,-8
1512180499,0.0559,0.0190,0.2473,52.80,-48.10,905.09,-314,169,-6
1512180499,0.0134,0.0237,0.2400,61.28,-29.05,994.57,-314,169,-6
1512180499,0.0071,0.0240,0.2402,74.58,-71.17,979.86,-314,169,-6
1512180499,0.0024,0.0138,0.2427,45.59,-70.37,1033.94,-314,169,-6
1512180499,0.0265,0.0229,0.2482,61.89,-35.64,974.67,-314,169,-6
1512180499,0.0391,0.0222,0.2485,43.46,-28.75,927.43,-316,156,-15
1512180499,0.0238,0.0344,0.2473,46.08,-38.02,927.49,-316,156,-15
1512180499,0.0373,0.0217,0.2513,40.10,-64.33,913.82,-316,156,-15
1512180499,0.0522,0.0105,0.2503,27.53,-65.25,988.22,-316,156,-15
1512180499,0.0301,0.0061,0.2529,24.29,-47.24,944.52,-316,156,-15
1512180499,0.0470,0.0178,0.2543,62.56,-25.94,893.74,-316,142,-1
1512180499,0.0473,0.0217,0.2506,120.79,-52.49,946.11,-316,142,-1
1512180499,0.0594,0.0225,0.2491,49.68,-19.17,964.97,-316,142,-1
1512180499,0.0112,0.0043,0.2455,44.07,-51.27,972.53,-316,142,-1
1512180499,0.0170,0.0124,0.2479,11.41,-16.05,1032.10,-312,153,-5
1512180499,-0.0180,-0.0012,0.2426,69.15,-45.47,999.82,-312,153,-5
1512180499,-0.0232,0.0011,0.2474,96.50,-46.88,953.61,-312,153,-5
1512180499,0.0130,0.0104,0.2477,47.97,-48.40,906.07,-312,153,-5
1512180499,0.0075,0.0278,0.2486,59.02,-39.00,984.62,-312,153,-5
1512180499,0.0148,0.0228,0.2493,62.87,-30.21,929.38,-295,135,5
1512180499,0.0290,0.0237,0.2523,30.64,-70.62,945.31,-295,135,5
1512180499,0.0201,0.0153,0.2557,53.41,-24.11,945.98,-295,135,5
1512180500,0.0016,0.0250,0.2555,51.21,-55.30,906.56,-295,135,5
1512180500,0.0244,0.0332,0.2549,128.97,-55.97,877.32,-295,135,5
1512180500,0.0158,0.0441,0.2551,130.31,-27.04,923.16,-302,135,-22
1512180500,0.0269,0.0485,0.2581,112.18,-54.38,1003.05,-302,135,-22
1512180500,-0.0033,0.0446,0.2531,121.03,-40.59,984.01,-302,135,-22
1512180500,0.0053,0.0411,0.2550,116.64,-66.41,972.11,-302,135,-22
1512180500,-0.0217,0.0282,0.2526,120.00,-66.35,904.42,-300,126,-20
1512180500,0.0037,0.0372,0.2594,110.90,-51.21,946.66,-300,126,-20
1512180500,-0.0216,0.0180,0.2590,115.17,-70.31,931.64,-300,126,-20
1512180500,-0.0208,0.0077,0.2597,90.70,-56.21,947.08,-300,126,-20
1512180500,0.0021,0.0304,0.2587,76.42,-35.22,995.18,-300,126,-20
1512180500,-0.0214,0.0366,0.2551,87.34,-54.44,938.60,-307,119,-16
1512180500,-0.0204,0.0298,0.2543,89.42,-39.98,964.66,-307,119,-16
1512180500,-0.0162,0.0210,0.2605,88.93,-84.66,892.40,-307,119,-16
1512180500,-0.0471,0.0000,0.2611,139.77,-73.24,877.20,-307,119,-16
1512180500,-0.0487,0.0044,0.2718,104.98,-42.97,908.51,-295,111,-5
1512180500,-0.0413,0.0033,0.2755,168.64,-69.70,890.50,-295,111,-5
1512180500,-0.0095,0.0326,0.2755,182.37,-33.51,905.33,-295,111,-5
1512180500,-0.0208,0.0346,0.2756,122.13,-84.53,924.01,-295,111,-5
1512180500,-0.0129,0.0348,0.2791,83.98,-36.50,994.38,-295,111,-5
1512180500,-0.0108,0.0406,0.2794,115.97,-78.06,942.20,-298,114,-18
1512180500,0.0137,0.0342,0.2888,63.48,-33.39,939.88,-298,114,-18
1512180500,0.0104,0.0389,0.2863,136.23,-39.18,957.21,-298,114,-18
1512180500,0.0154,0.0357,0.2872,123.66,-63.29,1045.04,-298,114,-18
1512180500,-0.0240,0.0268,0.2917,116.52,-41.50,896.55,-298,114,-18
1512180500,-0.0056,0.0067,0.2957,80.81,-45.72,1019.35,-288,114,-18
1512180500,0.0016,0.0041,0.2952,68.91,-28.50,998.72,-288,114,-18
1512180500,0.0213,0.0012,0.3080,79.22,14.59,849.12,-288,114,-18
1512180500,0.0111,0.0064,0.3048,45.47,-53.71,950.99,-288,114,-18
1512180500,0.0176,0.0061,0.3053,103.33,-2.08,914.67,-274,96,5
1512180500,0.0481,0.0248,0.3125,53.22,-37.17,1020.69,-274,96,5
1512180500,0.0123,0.0153,0.3131,138.06,2.38,947.81,-274,96,5
1512180500,-0.0044,0.0230,0.3139,182.92,-18.31,922.30,-274,96,5
1512180500,0.0208,0.0224,0.3205,131.41,-23.99,939.45,-274,96,5
1512180500,0.0378,0.0265,0.3206,126.34,-21.30,971.01,-288,79,-32
1512180500,0.0324,0.0097,0.3294,77.27,-43.70,994.93,-288,79,-32
1512180500,0.0230,0.0148,0.3316,87.04,-5.31,982.36,-288,79,-32
1512180500,0.0093,0.0244,0.3364,131.90,-10.80,947.88,-288,79,-32
1512180501,0.0276,0.0286,0.3332,150.39,15.93,916.32,-288,79,-32
1512180501,0.0089,0.0150,0.3314,133.73,15.32,969.60,-270,79,-18
1512180501,-0.0029,0.0004,0.3308,143.19,-7.32,916.93,-270,79,-18
1512180501,0.0133,0.0186,0.3364,95.64,-1.46,1043.58,-270,79,-18
1512180501,0.0164,0.0318,0.3417,158.14,28.69,899.29,-270,79,-18
1512180501,0.0356,0.0273,0.3478,120.54,43.03,970.76,-272,88,-23
1512180501,0.0226,0.0164,0.3522,158.45,-1.83,971.98,-272,88,-23
1512180501,0.0031,0.0003,0.3614,125.06,36.19,926.09,-272,88,-23
1512180501,0.0188,-0.0035,0.3626,146.00,19.65,951.72,-272,88,-23
1512180501,0.0202,0.0072,0.3635,123.23,12.76,939.64,-272,88,-23
1512180501,0.0083,0.0182,0.3806,176.64,13.49,941.96,-274,61,-15
1512180501,-0.0059,0.0096,0.3787,160.40,-26.98,802.25,-274,61,-15
1512180501,-0.0136,0.0096,0.4473,144.29,29.60,1035.46,-274,61,-15
1512180501,-0.0128,0.0097,0.4217,139.34,43.33,968.32,-274,61,-15
1512180501,0.0072,0.0144,0.3691,144.04,27.65,927.00,-274,61,-15
1512180501,0.0178,0.0289,0.3678,110.96,-22.95,1018.13,-256,54,-25
1512180501,-0.0237,0.0079,0.3778,145.51,30.33,874.88,-256,54,-25
1512180501,0.0258,0.0176,0.3779,125.37,41.69,947.63,-256,54,-25
1512180501,0.0204,0.0193,0.3736,122.31,-15.69,1006.77,-256,54,-25
1512180501,-0.0076,0.0007,0.3782,97.96,28.99,1005.43,-240,49,-16
1512180501,0.0176,-0.0013,0.3835,107.36,38.51,921.02,-240,49,-16
1512180501,0.0202,0.0087,0.3795,127.62,9.83,986.39,-240,49,-16
1512180501,0.0193,0.0059,0.3820,75.81,69.76,896.79,-240,49,-16
1512180501,0.0378,-0.0057,0.3807,90.82,12.51,926.03,-240,49,-16
1512180501,0.0707,0.0029,0.3827,67.81,82.15,983.03,-231,54,-15
1512180501,0.0318,0.0007,0.3751,46.14,19.65,961.18,-231,54,-15
1512180501,0.0368,0.0033,0.3810,81.48,61.89,946.41,-231,54,-15
1512180501,0.0534,0.0318,0.3746,112.61,51.88,1025.76,-231,54,-15
1512180501,0.0144,0.0182,0.3764,153.38,-3.48,1018.92,-231,54,-15
1512180501,0.0329,0.0105,0.3788,77.94,41.99,991.39,-224,44,-22
1512180501,0.0321,0.0097,0.3672,128.48,33.33,1017.46,-224,44,-22
1512180501,0.0419,-0.0005,0.3707,127.75,28.99,979.86,-224,44,-22
1512180501,0.0483,0.0162,0.3763,47.36,49.13,941.65,-224,44,-22
1512180501,0.0610,0.0237,0.3852,73.61,46.81,985.41,-223,31,-30
1512180501,0.0265,0.0111,0.3795,192.44,40.04,898.68,-223,31,-30
1512180501,0.0290,0.0061,0.3802,143.07,11.54,1063.35,-223,31,-30
1512180501,0.0220,0.0233,0.3779,145.69,38.76,1025.51,-223,31,-30
1512180501,0.0394,-0.0045,0.4004,122.74,21.18,1156.74,-223,31,-30
1512180502,0.0302,0.0044,0.3979,125.55,31.37,830.38,-212,31,-23
1512180502,0.0566,0.0240,0.3728,125.98,34.06,1009.52,-212,31,-23
1512180502,-0.0003,-0.0130,0.3955,171.87,2.26,940.49,-212,31,-23
1512180502,0.0047,-0.0233,0.3878,165.10,13.85,780.33,-212,31,-23
1512180502,0.0301,0.0015,0.3716,158.26,-31.43,856.63,-212,31,-23
1512180502,0.0871,0.0314,0.3858,74.46,63.84,969.42,-193,37,-22
1512180502,0.0280,0.0348,0.3634,176.64,3.05,912.29,-193,37,-22
1512180502,0.0184,0.0349,0.3767,209.72,-26.67,960.27,-193,37,-22
1512180502,-0.0246,0.0020,0.3682,179.81,43.76,973.39,-193,37,-22
1512180502,0.0016,0.0073,0.3739,162.11,36.80,977.72,-184,28,-44
1512180502,0.0158,0.0218,0.3678,158.45,4.76,1018.49,-184,28,-44
1512180502,0.0181,0.0356,0.3699,109.25,8.30,1000.37,-184,28,-44
1512180502,-0.0280,0.0178,0.3646,166.08,-29.91,892.76,-184,28,-44
1512180502,0.0134,0.0304,0.3764,168.64,34.30,852.84,-184,28,-44
1512180502,0.0301,0.0245,0.3771,129.82,25.15,846.31,-193,19,-18
1512180502,0.0389,0.0242,0.3720,136.47,24.96,908.08,-193,19,-18
1512180502,0.0317,0.0190,0.3782,77.03,38.88,935.73,-193,19,-18
1512180502,0.0092,0.0236,0.3800,141.30,19.41,954.83,-193,19,-18
1512180502,-0.0180,0.0088,0.3766,148.50,-9.16,898.74,-177,21,-27
1512180502,-0.0047,-0.0001,0.3868,143.80,23.44,912.60,-177,21,-27
1512180502,0.0245,0.0003,0.3908,105.90,30.33,988.04,-177,21,-27
1512180502,0.0158,0.0067,0.3984,145.45,6.65,928.04,-177,21,-27
1512180502,0.0178,0.0276,0.3859,165.53,2.20,966.25,-177,21,-27
1512180502,0.0573,0.0261,0.3852,119.81,7.81,932.19,-149,17,-10
1512180502,0.0340,-0.0047,0.3880,100.77,23.56,1004.94,-149,17,-10
1512180502,0.0190,-0.0145,0.3819,106.81,6.10,968.63,-149,17,-10
1512180502,0.0103,-0.0117,0.3827,81.85,39.37,918.58,-149,17,-10
1512180502,0.0103,-0.0071,0.3831,127.01,12.82,964.42,-149,17,-10
1512180502,0.0188,-0.0130,0.3880,85.69,32.17,907.90,-144,19,-25
1512180502,0.0258,-0.0081,0.3863,101.44,25.88,937.32,-144,19,-25
1512180502,0.0240,-0.0173,0.4023,74.04,24.78,1035.83,-144,19,-25
1512180502,-0.0374,-0.0296,0.4033,146.24,34.42,979.61,-144,19,-25
1512180502,-0.0138,-0.0197,0.3823,153.81,33.81,965.82,-124,3,-30
1512180502,0.0145,-0.0093,0.3878,155.82,38.70,951.35,-124,3,-30
1512180502,0.0146,0.0095,0.3787,167.66,46.20,990.66,-124,3,-30
1512180502,0.0344,0.0276,0.3703,161.87,-14.47,997.80,-124,3,-30
1512180502,-0.0029,0.0206,0.3714,130.74,44.25,860.66,-124,3,-30
1512180502,0.0156,0.0124,0.3764,93.81,24.48,970.21,-122,22,-25
1512180503,0.0522,0.0140,0.3947,99.91,47.42,1050.11,-122,22,-25
1512180503,0.0391,0.0201,0.3794,91.98,55.97,983.83,-122,22,-25
1512180503,0.0619,0.0320,0.3728,82.89,29.42,955.87,-122,22,-25
1512180503,0.0272,0.0113,0.3883,97.05,35.77,1000.12,-122,22,-25
1512180503,0.0069,0.0095,0.3763,77.33,7.57,1046.63,-112,12,-35
1512180503,-0.0178,0.0128,0.3850,118.84,39.37,877.32,-112,12,-35
1512180503,0.0142,0.0208,0.3768,107.79,52.98,915.53,-112,12,-35
1512180503,-0.0277,0.0019,0.3567,127.01,-34.73,930.54,-112,12,-35
1512180503,0.0161,0.0431,0.3585,102.54,43.09,916.38,-101,15,-42
1512180503,0.0130,0.0602,0.3563,144.04,18.55,937.56,-101,15,-42
1512180503,0.0383,0.0546,0.3549,188.05,-38.09,932.98,-101,15,-42
1512180503,0.0533,0.0423,0.3566,74.58,3.78,929.75,-101,15,-42
1512180503,0.0563,0.0329,0.3586,98.75,34.12,961.98,-101,15,-42
1512180503,0.0549,0.0362,0.3621,117.61,-15.44,900.27,-87,15,-25
1512180503,0.0691,0.0344,0.3607,63.84,30.70,904.72,-87,15,-25
1512180503,0.0487,0.0253,0.3735,47.30,18.49,940.55,-87,15,-25
1512180503,0.0578,0.0174,0.3525,118.29,-20.08,942.87,-87,15,-25
1512180503,0.0252,-0.0052,0.3582,42.24,-12.02,793.03,-87,15,-25
1512180503,0.0715,0.0134,0.3461,70.50,-13.67,878.97,-79,10,-33
1512180503,0.0447,0.0111,0.3571,99.67,29.60,942.20,-79,10,-33
1512180503,0.0138,-0.0234,0.3550,78.31,5.25,914.86,-79,10,-33
1512180503,0.0437,-0.0099,0.3491,62.44,-2.38,912.72,-79,10,-33
1512180503,0.0581,-0.0365,0.3610,59.20,65.00,1104.86,-86,17,-37
1512180503,0.0198,-0.0410,0.3446,94.73,-0.06,1005.37,-86,17,-37
1512180503,0.0316,-0.0324,0.3473,106.75,-4.82,882.32,-86,17,-37
1512180503,0.0309,-0.0150,0.3450,164.43,47.49,843.02,-86,17,-37
1512180503,0.0296,0.0035,0.3337,138.31,33.51,1008.97,-86,17,-37
1512180503,0.0442,0.0250,0.3775,133.67,58.90,1028.02,-61,14,-30
1512180503,0.0268,0.0454,0.3629,155.82,68.24,1003.97,-61,14,-30
1512180503,0.0254,0.0819,0.3931,152.65,65.86,1069.40,-61,14,-30
1512180503,0.0117,0.0928,0.3622,162.23,49.87,953.12,-61,14,-30
1512180503,0.0124,0.0579,0.3619,109.56,44.43,1031.74,-49,12,-42
1512180503,-0.0136,0.0035,0.3944,63.23,44.62,953.25,-49,12,-42
1512180503,-0.0149,-0.0204,0.3598,38.94,52.06,890.32,-49,12,-42
1512180503,-0.0045,-0.0218,0.3404,14.71,-23.68,881.16,-49,12,-42
1512180503,0.0233,-0.0286,0.3366,-0.37,-12.82,845.21,-49,12,-42
1512180503,0.0386,-0.0270,0.3281,28.50,-7.20,909.24,-57,38,-27
1512180503,0.0425,-0.0398,0.3132,122.74,-17.33,923.34,-57,38,-27
1512180504,0.0407,-0.0435,0.2989,95.83,-21.48,908.08,-57,38,-27
1512180504,0.0541,-0.0526,0.2929,76.84,-10.68,959.23,-57,38,-27
1512180504,0.0261,-0.0461,0.2920,98.39,-27.89,962.10,-57,38,-27
1512180504,0.0443,-0.0413,0.2979,110.60,-17.46,974.30,-45,40,-28
1512180504,0.0188,-0.0535,0.3072,137.57,67.08,991.46,-45,40,-28
1512180504,0.0274,-0.0633,0.3385,146.24,24.72,1010.25,-45,40,-28
1512180504,0.0281,-0.0597,0.3148,101.99,13.24,1001.28,-45,40,-28
1512180504,0.0206,-0.0671,0.3137,69.82,33.08,1016.97,-33,42,-37
1512180504,0.0405,-0.0395,0.3024,79.71,-15.32,992.92,-33,42,-37
1512180504,0.0292,-0.0162,0.2991,57.92,13.92,1011.66,-33,42,-37
1512180504,-0.0089,-0.0145,0.2847,133.97,-2.75,897.09,-33,42,-37
1512180504,0.0073,-0.0095,0.2795,143.31,-10.80,923.10,-33,42,-37
1512180504,0.0072,0.0048,0.2746,141.36,-6.65,825.01,-8,38,-23
1512180504,0.0270,0.0225,0.2690,129.58,-13.43,918.95,-8,38,-23
1512180504,0.0258,0.0228,0.2704,168.70,-11.54,916.20,-8,38,-23
1512180504,-0.0077,0.0008,0.2716,103.58,-48.34,903.63,-8,38,-23
1512180504,0.0415,0.0076,0.2795,58.47,-21.61,977.17,-7,37,-32
1512180504,0.0365,0.0076,0.2867,48.40,31.31,969.85,-7,37,-32
1512180504,0.0196,0.0083,0.2804,98.88,-43.21,925.96,-7,37,-32
1512180504,0.0372,0.0280,0.2779,99.85,-11.35,949.89,-7,37,-32
1512180504,-0.0047,0.0146,0.2724,110.84,-17.64,947.02,-7,37,-32
1512180504,-0.0003,0.0081,0.2674,117.68,-50.29,957.21,-14,33,-38
1512180504,0.0047,0.0057,0.2668,68.24,-10.99,942.38,-14,33,-38
1512180504,0.0241,0.0161,0.2653,74.22,-9.58,961.43,-14,33,-38
1512180504,0.0182,0.0188,0.2586,108.46,-26.61,983.64,-14,33,-38
1512180504,0.0047,0.0309,0.2549,127.38,-60.24,960.88,-14,33,-38
1512180504,0.0252,0.0342,0.2511,108.22,-39.18,938.96,7,37,-42
1512180504,0.0130,0.0297,0.2483,127.44,-33.02,1024.78,7,37,-42
1512180504,0.0224,0.0318,0.2423,126.83,13.00,1082.34,7,37,-42
1512180504,0.0345,0.0305,0.2362,119.51,-22.34,1136.60,7,37,-42
1512180504,0.0497,0.0469,0.2272,125.55,-6.23,1012.33,21,54,-38
1512180504,0.0850,0.0756,0.2285,92.53,-85.51,1034.18,21,54,-38
1512180504,0.0764,0.0646,0.2341,97.11,-82.70,894.23,21,54,-38
1512180504,0.0655,0.0514,0.2352,79.59,-8.00,942.93,21,54,-38
1512180504,0.0575,0.0350,0.2312,68.18,-109.74,912.11,21,54,-38
1512180504,0.0338,0.0248,0.2382,51.39,-50.42,828.55,19,52,-27
1512180504,-0.0212,-0.0037,0.2471,-36.38,-104.00,841.80,19,52,-27
1512180505,-0.0016,0.0079,0.2513,1.40,-86.24,948.36,19,52,-27
1512180505,-0.0095,0.0021,0.2577,34.67,-60.73,922.67,19,52,-27
1512180505,-0.0341,-0.0257,0.2497,65.73,-66.22,916.99,19,52,-27
1512180505,-0.0077,-0.0361,0.2457,126.46,-69.82,1021.73,10,75,-38
1512180505,-0.0630,-0.0621,0.2353,128.23,-106.02,921.39,10,75,-38
1512180505,-0.0001,-0.0410,0.2353,117.31,-50.35,923.22,10,75,-38
1512180505,-0.0206,-0.0391,0.2282,102.60,-70.13,990.36,10,75,-38
1512180505,0.0136,-0.0374,0.2308,122.44,-64.09,957.95,26,45,-33
1512180505,0.0001,-0.0358,0.2290,120.73,-101.75,935.24,26,45,-33
1512180505,0.0166,-0.0366,0.2276,92.29,-62.07,1056.15,26,45,-33
1512180505,0.0025,-0.0326,0.2257,91.31,-93.81,978.27,26,45,-33
1512180505,-0.0238,-0.0310,0.2186,120.91,-97.29,1014.89,26,45,-33
1512180505,-0.0308,-0.0200,0.2176,114.01,-59.88,1009.70,35,51,-35
1512180505,-0.0463,-0.0204,0.2135,127.26,-119.93,983.15,35,51,-35
1512180505,-0.0201,-0.0009,0.2133,143.07,-65.49,981.51,35,51,-35
1512180505,-0.0037,0.0079,0.2116,128.66,-61.16,939.82,35,51,-35
1512180505,0.0220,0.0057,0.2124,120.48,-50.35,998.23,26,56,-57
1512180505,0.0387,-0.0015,0.2104,111.21,-78.19,1011.23,26,56,-57
1512180505,0.0113,-0.0245,0.2161,78.55,-113.46,942.38,26,56,-57
1512180505,0.0265,-0.0059,0.2164,81.85,-48.16,843.81,26,56,-57
1512180505,0.0546,0.0253,0.2135,78.98,-59.94,911.99,26,56,-57
1512180505,-0.0059,-0.0019,0.1989,118.96,-97.47,960.82,43,66,-47
1512180505,-0.0056,-0.0130,0.1947,141.91,-105.77,932.98,43,66,-47
1512180505,0.0137,0.0035,0.1929,97.05,-65.37,989.69,43,66,-47
1512180505,-0.0055,0.0061,0.1894,119.75,-104.43,932.37,43,66,-47
1512180505,0.0245,0.0318,0.1874,143.43,-63.42,933.47,43,66,-47
1512180505,0.0100,0.0161,0.1875,96.44,-61.77,968.08,52,68,-38
1512180505,0.0333,0.0024,0.1828,44.07,-111.02,1061.65,52,68,-38
1512180505,-0.0373,-0.0009,0.1811,106.26,-59.51,884.89,52,68,-38
1512180505,-0.0134,0.0306,0.1779,76.84,-113.40,1004.33,52,68,-38
1512180505,-0.0104,0.0233,0.1726,99.24,-59.81,945.25,66,68,-42
