time_unix,rotate_x,rotate_y,rotate_z,acc_x,acc_y,acc_z,mag_x,mag_y,mag_z
1512180817,0.0196,0.0039,-0.0004,-35.40,-32.78,1012.08,3,-15,-5
1512180817,-0.0048,0.0001,-0.0023,-39.67,-28.75,1004.70,3,-15,-5
1512180817,-0.0329,-0.0004,-0.0027,-33.08,-50.29,980.71,3,-15,-5
1512180817,-0.0041,-0.0011,-0.0013,-35.22,-46.94,991.21,5,-3,-20
1512180817,0.0166,0.0052,-0.0011,-44.07,-24.84,1017.58,5,-3,-20
1512180817,-0.0165,-0.0007,-0.0019,-36.13,-39.12,1005.74,5,-3,-20
1512180817,-0.0188,-0.0043,-0.0036,-28.14,-44.43,980.83,5,-3,-20
1512180817,0.0206,0.0053,0.0000,-45.72,-34.73,1012.27,-8,3,-3
1512180817,-0.0053,0.0013,-0.0019,-37.41,-27.71,1022.28,-8,3,-3
1512180817,-0.0072,-0.0020,-0.0020,-35.28,-48.22,987.12,-8,3,-3
1512180817,0.0154,0.0024,-0.0021,-42.72,-43.21,999.51,-8,3,-3
1512180817,0.0213,0.0055,-0.0013,-37.60,-29.91,1030.27,-8,3,-3
1512180817,-0.0033,0.0015,-0.0032,-36.44,-27.10,1005.31,-7,5,1
1512180817,-0.0016,0.0020,-0.0007,-37.41,-51.82,982.73,-7,5,1
1512180817,0.0288,0.0057,0.0001,-37.17,-35.03,1022.77,-7,5,1
1512180817,0.0140,0.0049,-0.0012,-45.90,-26.18,1016.91,-7,5,1
1512180817,-0.0224,0.0007,-0.0005,-32.53,-52.12,972.29,-7,5,1
1512180817,0.0100,0.0003,-0.0023,-35.77,-44.56,994.26,1,0,3
1512180817,0.0216,0.0040,0.0005,-46.75,-35.46,1008.18,1,0,3
1512180817,-0.0245,-0.0003,-0.0024,-33.81,-44.43,995.48,1,0,3
1512180817,-0.0134,-0.0029,-0.0016,-33.63,-51.45,988.16,1,0,3
1512180817,0.0096,0.0019,0.0017,-40.83,-43.70,997.01,-8,-10,3
1512180817,0.0214,0.0057,-0.0009,-38.57,-32.41,1025.82,-8,-10,3
1512180817,-0.0011,0.0005,0.0003,-39.98,-27.16,1003.48,-8,-10,3
1512180817,-0.0039,0.0031,-0.0001,-44.07,-52.73,982.24,-8,-10,3
1512180817,0.0289,0.0061,-0.0017,-37.29,-28.08,1026.79,-8,-10,3
1512180817,0.0130,0.0033,-0.0012,-48.03,-27.71,1023.38,7,-19,-5
1512180817,-0.0229,-0.0009,-0.0031,-33.45,-33.08,1006.04,7,-19,-5
1512180818,0.0021,0.0003,-0.0016,-32.53,-52.73,989.62,7,-19,-5
1512180818,0.0233,0.0064,-0.0031,-40.77,-37.48,1005.07,7,-19,-5
1512180818,0.0132,0.0048,-0.0024,-31.98,-36.44,1024.54,7,-19,-5
1512180818,-0.0173,-0.0033,-0.0017,-27.77,-45.84,984.62,1,3,3
1512180818,0.0101,0.0048,-0.0009,-45.59,-48.52,996.15,1,3,3
1512180818,0.0269,0.0063,-0.0019,-41.26,-29.54,1029.54,1,3,3
1512180818,0.0088,0.0036,-0.0023,-42.97,-26.12,1010.38,1,3,3
1512180818,-0.0258,0.0005,-0.0027,-38.39,-57.62,970.89,3,1,1
1512180818,0.0117,0.0012,-0.0013,-34.36,-46.14,990.72,3,1,1
1512180818,0.0346,0.0068,0.0004,-46.33,-28.87,1009.34,3,1,1
1512180818,0.0174,0.0079,-0.0003,-41.56,-20.08,1035.16,3,1,1
1512180818,-0.0262,-0.0053,-0.0023,-35.03,-52.12,976.56,3,1,1
1512180818,0.0019,0.0012,-0.0009,-43.95,-57.07,971.13,-10,-8,1
1512180818,0.0309,0.0068,0.0005,-41.14,-31.80,1030.27,-10,-8,1
1512180818,0.0218,0.0048,-0.0019,-45.84,-22.46,1031.80,-10,-8,1
1512180818,-0.0314,-0.0013,-0.0017,-46.14,-67.57,958.86,-10,-8,1
1512180818,0.0161,0.0008,-0.0001,-54.99,-55.66,997.13,-10,-8,1
1512180818,0.0083,0.0039,0.0003,-64.88,-51.21,1015.56,-1,-7,0
1512180818,-0.0190,0.0011,-0.0004,-77.58,-78.12,1000.85,-1,-7,0
1512180818,-0.0003,0.0023,0.0000,-72.69,-72.94,1016.66,-1,-7,0
1512180818,0.0045,0.0048,0.0005,-83.50,-74.10,1015.56,-1,-7,0
1512180818,-0.0065,0.0052,-0.0004,-79.90,-74.22,1014.71,-3,1,-8
1512180818,-0.0033,0.0003,0.0009,-57.50,-82.09,980.96,-3,1,-8
1512180818,0.0249,0.0068,0.0007,-84.72,-83.19,1004.21,-3,1,-8
1512180818,0.0487,0.0072,0.0011,-77.21,-57.31,1059.39,-3,1,-8
1512180818,-0.0342,-0.0037,-0.0021,-72.57,-67.02,990.91,-3,1,-8
1512180818,-0.0455,-0.0037,-0.0017,-76.54,-96.31,960.51,1,-3,13
1512180818,0.0001,-0.0013,-0.0008,-66.65,-81.97,973.82,1,-3,13
1512180818,0.0234,0.0016,-0.0004,-77.76,-50.42,1027.47,1,-3,13
1512180818,-0.0218,0.0005,0.0005,-77.64,-83.86,1011.66,1,-3,13
1512180818,-0.0100,-0.0043,-0.0005,-64.88,-80.44,1000.43,1,-3,13
1512180818,0.0272,0.0065,0.0012,-82.89,-64.21,1018.49,-21,5,11
1512180818,-0.0075,0.0013,0.0001,-81.05,-71.53,1026.79,-21,5,11
1512180818,-0.0209,-0.0025,-0.0023,-67.57,-66.53,991.21,-21,5,11
1512180818,0.0161,0.0041,-0.0012,-83.01,-82.58,996.58,-21,5,11
1512180818,0.0083,0.0009,-0.0007,-76.11,-61.22,1031.92,5,0,10
1512180818,-0.0103,-0.0023,-0.0009,-73.12,-59.39,999.27,5,0,10
1512180818,0.0132,0.0007,0.0000,-88.01,-87.04,1005.00,5,0,10
1512180819,0.0276,0.0031,-0.0003,-73.18,-61.58,1042.72,5,0,10
1512180819,0.0028,0.0011,-0.0017,-68.73,-61.46,1008.30,5,0,10
1512180819,-0.0116,-0.0027,0.0009,-85.57,-97.35,977.11,1,7,0
1512180819,0.0113,0.0016,0.0008,-67.63,-72.63,1013.12,1,7,0
1512180819,0.0099,0.0035,0.0015,-69.95,-73.00,996.22,1,7,0
1512180819,0.0057,0.0000,0.0016,-91.49,-89.54,997.13,1,7,0
1512180819,0.0148,0.0025,-0.0001,-76.29,-66.41,1017.88,-14,1,1
1512180819,0.0091,0.0029,0.0017,-74.77,-67.14,1008.06,-14,1,1
1512180819,-0.0007,-0.0005,0.0016,-100.65,-90.94,994.02,-14,1,1
1512180819,0.0092,0.0061,0.0007,-80.14,-66.35,1016.97,-14,1,1
1512180819,0.0093,0.0047,-0.0005,-73.61,-70.50,1013.67,-14,1,1
1512180819,-0.0064,0.0000,-0.0016,-91.74,-96.31,985.23,-22,-10,-3
1512180819,-0.0045,0.0021,-0.0035,-76.97,-71.78,1006.41,-22,-10,-3
1512180819,0.0041,0.0037,-0.0045,-74.58,-77.09,999.63,-22,-10,-3
1512180819,0.0053,0.0028,-0.0063,-97.05,-85.45,995.06,-22,-10,-3
1512180819,0.0076,0.0057,-0.0057,-81.54,-64.15,1015.99,-8,0,10
1512180819,0.0125,0.0051,-0.0073,-83.31,-58.23,1015.81,-8,0,10
1512180819,-0.0024,0.0008,-0.0076,-98.94,-86.67,994.57,-8,0,10
1512180819,0.0037,0.0061,-0.0084,-81.60,-69.09,1016.85,-8,0,10
1512180819,0.0047,0.0027,-0.0101,-83.68,-74.10,1012.94,-8,0,10
1512180819,-0.0149,0.0013,-0.0116,-88.38,-85.14,978.82,3,15,8
1512180819,0.0049,0.0020,-0.0117,-86.55,-58.59,1015.69,3,15,8
1512180819,0.0150,0.0011,-0.0149,-82.52,-64.51,1016.60,3,15,8
1512180819,-0.0024,0.0032,-0.0172,-93.44,-72.02,986.57,3,15,8
1512180819,-0.0033,0.0005,-0.0194,-83.86,-66.83,1031.98,3,15,8
1512180819,-0.0088,-0.0017,-0.0202,-84.41,-60.61,1009.34,-3,8,5
1512180819,-0.0262,0.0025,-0.0226,-92.47,-90.39,962.28,-3,8,5
1512180819,0.0160,0.0080,-0.0230,-77.39,-57.86,1015.08,-3,8,5
1512180819,-0.0015,-0.0019,-0.0230,-87.59,-63.42,1015.01,-3,8,5
1512180819,-0.0281,-0.0019,-0.0249,-98.14,-91.13,972.29,-10,-5,8
1512180819,-0.0021,0.0012,-0.0260,-94.24,-71.78,1008.42,-10,-5,8
1512180819,0.0068,-0.0012,-0.0297,-88.07,-69.40,1013.55,-10,-5,8
1512180819,0.0013,0.0015,-0.0325,-104.55,-87.28,972.66,-10,-5,8
1512180819,0.0129,0.0044,-0.0350,-92.41,-59.94,1021.24,-10,-5,8
1512180819,0.0256,0.0021,-0.0357,-92.41,-62.74,1016.30,-1,-7,23
1512180819,0.0080,0.0024,-0.0397,-107.79,-73.12,985.41,-1,-7,23
1512180819,-0.0091,0.0023,-0.0402,-99.30,-67.20,1015.20,-1,-7,23
1512180820,0.0083,0.0031,-0.0406,-91.49,-61.46,1050.54,-1,-7,23
1512180820,0.0083,-0.0021,-0.0423,-91.92,-67.14,1022.46,-1,-7,23
1512180820,-0.0481,-0.0039,-0.0430,-110.35,-87.59,969.97,0,-1,18
1512180820,-0.0127,0.0023,-0.0449,-106.87,-56.40,1031.80,0,-1,18
1512180820,0.0003,-0.0011,-0.0447,-94.79,-74.46,993.10,0,-1,18
1512180820,0.0229,0.0047,-0.0485,-112.98,-74.40,970.89,0,-1,18
1512180820,-0.0264,0.0000,-0.0522,-109.44,-89.11,984.50,0,1,22
1512180820,0.0084,0.0025,-0.0539,-109.44,-65.86,1045.84,0,1,22
1512180820,0.0234,-0.0019,-0.0587,-100.40,-74.10,1021.48,0,1,22
1512180820,0.0059,-0.0045,-0.0599,-119.14,-88.99,953.06,0,1,22
1512180820,-0.0192,-0.0012,-0.0650,-122.86,-101.56,968.87,0,1,22
1512180820,0.0132,-0.0011,-0.0667,-125.73,-65.19,1045.23,-14,-15,11
1512180820,0.0218,0.0016,-0.0663,-130.55,-67.81,1058.41,-14,-15,11
1512180820,0.0208,0.0003,-0.0695,-111.88,-80.08,1027.34,-14,-15,11
1512180820,-0.0132,-0.0044,-0.0708,-115.84,-117.43,939.27,-14,-15,11
1512180820,-0.0435,-0.0039,-0.0739,-124.33,-131.53,887.51,-14,-15,11
1512180820,-0.0244,0.0007,-0.0758,-130.25,-111.82,938.72,-15,-14,6
1512180820,-0.0053,0.0007,-0.0768,-155.21,-94.67,1034.67,-15,-14,6
1512180820,0.0610,0.0011,-0.0774,-160.77,-58.90,1100.10,-15,-14,6
1512180820,0.0818,0.0092,-0.0783,-133.85,-84.35,1054.44,-15,-14,6
1512180820,0.0618,0.0004,-0.0822,-136.17,-82.34,1080.14,-10,-8,8
1512180820,0.0533,0.0061,-0.0830,-116.46,-102.29,1067.26,-10,-8,8
1512180820,0.0172,0.0023,-0.0879,-120.79,-123.84,983.22,-10,-8,8
1512180820,-0.0261,0.0028,-0.0925,-137.39,-126.46,948.06,-10,-8,8
1512180820,-0.0031,0.0132,-0.0969,-97.78,-120.00,974.73,-10,-8,8
1512180820,-0.0226,0.0053,-0.0940,-142.33,-92.90,970.03,-21,-1,8
1512180820,-0.0455,-0.0003,-0.0901,-139.28,-63.66,993.29,-21,-1,8
1512180820,-0.0257,-0.0178,-0.0860,-136.66,-77.45,1000.67,-21,-1,8
1512180820,-0.0366,-0.0184,-0.0886,-146.97,-95.76,995.85,-21,-1,8
1512180820,-0.0409,-0.0198,-0.0887,-129.52,-79.47,972.60,-21,-1,8
1512180820,-0.0300,-0.0262,-0.0949,-136.78,-87.95,968.38,-22,-3,6
1512180820,-0.0161,-0.0236,-0.0977,-137.76,-68.85,987.43,-22,-3,6
1512180820,-0.0093,-0.0252,-0.1044,-155.33,-62.56,1013.06,-22,-3,6
1512180820,-0.0816,-0.0226,-0.1021,-155.52,-79.71,937.93,-22,-3,6
1512180820,-0.1065,-0.0276,-0.1060,-149.23,-79.16,963.75,-19,-3,13
1512180820,-0.0786,-0.0282,-0.1072,-161.32,-59.81,1012.70,-19,-3,13
1512180820,-0.0365,-0.0225,-0.1080,-157.10,-67.26,1033.69,-19,-3,13
1512180820,0.0009,-0.0238,-0.1095,-151.00,-51.51,1071.35,-19,-3,13
1512180821,0.0265,-0.0140,-0.1099,-133.06,-56.76,1090.33,-19,-3,13
1512180821,0.0047,-0.0134,-0.1115,-155.33,-38.27,1120.97,-22,-10,10
1512180821,0.0317,-0.0001,-0.1095,-110.96,-47.30,1136.23,-22,-10,10
1512180821,0.0205,0.0056,-0.1105,-92.90,-83.19,1045.78,-22,-10,10
1512180821,0.0334,0.0068,-0.1140,-93.93,-87.95,1061.46,-22,-10,10
1512180821,0.0454,0.0188,-0.1127,-91.61,-101.01,1041.75,-10,-26,15
1512180821,0.0053,0.0041,-0.1131,-96.01,-114.14,934.08,-10,-26,15
1512180821,-0.0469,-0.0016,-0.1148,-113.28,-109.13,919.62,-10,-26,15
1512180821,-0.0141,0.0055,-0.1153,-102.84,-82.70,950.81,-10,-26,15
1512180821,-0.0305,0.0133,-0.1161,-118.04,-102.36,917.11,-10,-26,15
1512180821,-0.0354,0.0150,-0.1218,-124.76,-73.00,974.12,-8,-14,3
1512180821,-0.0549,0.0069,-0.1242,-122.07,-101.56,930.85,-8,-14,3
1512180821,-0.0635,0.0012,-0.1262,-144.71,-67.87,986.63,-8,-14,3
1512180821,0.0286,0.0004,-0.1214,-126.40,-7.93,1076.17,-8,-14,3
1512180821,0.0621,-0.0059,-0.1246,-142.46,-42.66,1075.93,-8,-14,3
1512180821,0.0278,-0.0068,-0.1254,-120.73,-45.59,997.25,-26,-7,20
1512180821,0.0072,-0.0071,-0.1273,-128.97,-69.27,985.41,-26,-7,20
1512180821,-0.0060,-0.0017,-0.1264,-92.10,-59.20,966.00,-26,-7,20
1512180821,-0.0252,-0.0065,-0.1269,-95.09,-42.72,984.50,-26,-7,20
1512180821,-0.0221,-0.0088,-0.1248,-96.74,-16.72,1039.61,-7,-33,8
1512180821,0.0563,-0.0013,-0.1268,-92.22,-5.62,1109.74,-7,-33,8
1512180821,0.0648,0.0031,-0.1266,-65.19,-34.55,1035.77,-7,-33,8
1512180821,-0.0349,-0.0120,-0.1224,-67.08,-60.12,866.52,-7,-33,8
1512180821,-0.1292,-0.0218,-0.1269,-72.81,-93.81,827.39,-7,-33,8
1512180821,-0.0541,-0.0095,-0.1241,-81.24,-66.77,855.41,-14,-22,8
1512180821,-0.0802,-0.0023,-0.1238,-76.90,-68.12,935.36,-14,-22,8
1512180821,-0.0224,-0.0119,-0.1201,-118.04,-41.50,995.73,-14,-22,8
1512180821,0.0204,-0.0064,-0.1237,-99.06,-37.35,973.51,-14,-22,8
1512180821,0.1602,0.0225,-0.1180,-103.33,-14.10,1103.64,-35,-26,11
1512180821,0.1538,0.0246,-0.1204,-85.75,-38.70,1060.97,-35,-26,11
1512180821,0.0498,0.0068,-0.1244,-78.25,-49.38,987.98,-35,-26,11
1512180821,-0.0381,-0.0104,-0.1206,-93.32,-54.02,908.14,-35,-26,11
1512180821,-0.0799,-0.0063,-0.1226,-75.32,-81.91,873.96,-35,-26,11
1512180821,-0.0650,0.0020,-0.1289,-62.62,-78.00,982.36,-26,-14,6
1512180821,-0.0350,0.0052,-0.1284,-71.90,-68.91,967.22,-26,-14,6
1512180821,-0.0181,0.0105,-0.1261,-54.32,-38.27,964.66,-26,-14,6
1512180821,0.0003,0.0045,-0.1226,-77.70,-33.81,998.41,-26,-14,6
1512180821,-0.0356,-0.0073,-0.1181,-27.47,-13.49,958.25,-26,-14,6
1512180822,-0.0633,-0.0286,-0.1124,-103.82,-44.13,1006.53,-28,-22,22
1512180822,-0.0413,-0.0321,-0.1095,-82.82,-24.84,1015.50,-28,-22,22
1512180822,-0.0394,-0.0218,-0.1036,-81.60,-18.86,1032.29,-28,-22,22
1512180822,-0.0003,-0.0310,-0.0996,-68.66,-19.78,1061.77,-28,-22,22
1512180822,-0.0272,-0.0442,-0.1019,-82.34,17.52,1111.94,-24,-19,18
1512180822,0.0193,-0.0387,-0.0952,-110.29,22.71,1074.95,-24,-19,18
1512180822,-0.0599,-0.0529,-0.1020,-52.98,-12.08,1088.01,-24,-19,18
1512180822,-0.0606,-0.0399,-0.1000,-32.41,16.42,1047.30,-24,-19,18
1512180822,-0.1405,-0.0418,-0.1037,-61.34,-81.85,983.22,-24,-19,18
1512180822,-0.1955,-0.0558,-0.1027,-0.55,-51.82,878.66,-28,-40,15
1512180822,-0.1286,-0.0410,-0.0956,-32.65,-37.17,1058.53,-28,-40,15
1512180822,-0.0533,-0.0264,-0.0871,-26.86,-26.92,1032.04,-28,-40,15
1512180822,-0.0353,-0.0160,-0.0895,-36.32,-90.27,1047.18,-28,-40,15
1512180822,-0.0293,-0.0100,-0.0839,-14.04,-38.09,984.86,-28,-40,15
1512180822,0.0146,-0.0060,-0.0876,-57.07,-94.60,1043.03,-12,-31,6
1512180822,0.0047,-0.0012,-0.0791,-23.86,-80.20,925.66,-12,-31,6
1512180822,0.0262,0.0160,-0.0795,-31.74,-34.24,982.79,-12,-31,6
1512180822,0.0169,0.0096,-0.0783,-67.38,-33.57,1029.97,-12,-31,6
1512180822,0.0546,0.0121,-0.0687,-55.24,-7.51,1083.74,-28,-40,11
1512180822,-0.0656,-0.0004,-0.0667,-65.98,-21.24,1015.99,-28,-40,11
1512180822,-0.0198,-0.0001,-0.0621,-60.61,-37.29,1006.65,-28,-40,11
1512180822,-0.0475,0.0012,-0.0614,-26.49,-75.38,934.63,-28,-40,11
1512180822,-0.0258,0.0045,-0.0571,-29.17,-63.78,921.81,-28,-40,11
1512180822,0.0162,0.0048,-0.0527,-15.69,-64.21,967.22,-29,-38,3
1512180822,0.0302,0.0045,-0.0534,0.06,-84.11,943.24,-29,-38,3
1512180822,0.0495,0.0133,-0.0485,-17.76,-77.33,1018.19,-29,-38,3
1512180822,0.0591,0.0182,-0.0397,-40.34,-32.71,1035.64,-29,-38,3
1512180822,-0.0044,0.0192,-0.0374,-35.71,-35.46,1060.18,-29,-38,3
1512180822,0.0245,0.0202,-0.0345,-53.22,-52.37,1038.33,-24,-22,8
1512180822,-0.0912,0.0166,-0.0358,-23.99,-69.46,870.73,-24,-22,8
1512180822,-0.0414,0.0047,-0.0282,-78.31,-111.27,948.91,-24,-22,8
1512180822,-0.0708,-0.0213,-0.0312,-8.85,-66.96,848.57,-24,-22,8
1512180822,-0.0157,-0.0111,-0.0200,-27.47,-36.56,914.25,-29,-38,10
1512180822,-0.0329,-0.0244,-0.0202,-81.12,-65.12,926.03,-29,-38,10
1512180822,0.0029,-0.0196,-0.0193,2.38,-25.39,946.78,-29,-38,10
1512180822,0.0308,-0.0087,-0.0120,-39.43,-51.21,1021.00,-29,-38,10
1512180822,0.0150,-0.0244,-0.0117,-46.14,-66.77,1023.07,-29,-38,10
1512180822,0.0075,-0.0278,-0.0052,-20.75,-62.13,1038.70,-22,-38,20
1512180823,0.0429,-0.0322,-0.0056,-54.32,-47.55,1111.94,-22,-38,20
1512180823,0.0503,-0.0324,-0.0023,-44.49,-65.25,1054.63,-22,-38,20
1512180823,0.0048,-0.0349,0.0067,-44.80,-62.56,1057.68,-22,-38,20
1512180823,-0.0415,-0.0473,0.0083,-69.09,-46.69,1035.89,-31,-40,15
1512180823,-0.0839,-0.0497,0.0165,-7.57,-20.63,975.46,-31,-40,15
1512180823,0.0027,-0.0466,0.0202,-59.39,-33.39,1128.48,-31,-40,15
1512180823,0.0093,-0.0598,0.0181,-40.16,-14.34,1088.87,-31,-40,15
1512180823,0.0037,-0.0523,0.0192,-40.47,-30.82,1073.91,-31,-40,15
1512180823,0.0314,-0.0621,0.0202,-82.28,-39.49,1139.28,-8,-38,-3
1512180823,-0.0523,-0.0629,0.0212,-7.39,-29.36,990.23,-8,-38,-3
1512180823,-0.0402,-0.0710,0.0242,-47.49,-36.87,1042.48,-8,-38,-3
1512180823,-0.0049,-0.0613,0.0212,4.46,-41.08,1017.21,-8,-38,-3
1512180823,0.0100,-0.0394,0.0300,23.25,-52.12,1059.08,-8,-38,-3
1512180823,0.0198,-0.0410,0.0205,28.38,-105.77,1039.25,-14,-51,-1
1512180823,-0.0409,-0.0387,0.0289,60.18,-80.57,979.49,-14,-51,-1
1512180823,-0.0443,-0.0270,0.0230,32.10,-135.74,973.75,-14,-51,-1
1512180823,0.0173,0.0028,0.0294,38.09,-89.54,1010.74,-14,-51,-1
1512180823,-0.0134,0.0036,0.0261,21.85,-64.70,992.74,-24,-47,-5
1512180823,0.0189,0.0232,0.0253,3.05,-72.14,1004.52,-24,-47,-5
1512180823,0.0232,0.0248,0.0286,-20.63,-46.14,1077.58,-24,-47,-5
1512180823,0.0794,0.0174,0.0328,-29.66,-11.11,1075.81,-24,-47,-5
1512180823,0.0265,0.0177,0.0293,-16.78,-59.14,928.59,-24,-47,-5
1512180823,0.0376,0.0176,0.0301,-17.58,-36.56,929.99,-14,-40,5
1512180823,0.0282,0.0146,0.0306,-38.45,-15.99,991.03,-14,-40,5
1512180823,0.0497,0.0024,0.0269,-50.84,-59.33,993.41,-14,-40,5
1512180823,0.0146,0.0033,0.0205,53.22,-68.36,965.39,-14,-40,5
1512180823,0.0125,0.0193,0.0225,-11.35,-102.84,961.49,-14,-40,5
1512180823,0.0372,0.0161,0.0245,88.56,-54.50,1032.78,0,-47,11
1512180823,0.0446,0.0426,0.0209,51.70,-41.02,1083.92,0,-47,11
1512180823,0.1236,0.0501,0.0205,-17.58,-117.37,1167.66,0,-47,11
1512180823,-0.0487,0.0522,0.0312,38.57,-101.38,890.44,0,-47,11
1512180823,-0.1477,0.0237,0.0241,-68.05,-100.95,943.66,-14,-44,-5
1512180823,-0.1541,-0.0063,0.0224,-35.71,-133.24,787.05,-14,-44,-5
1512180823,-0.1356,-0.0056,0.0276,-71.59,-58.17,865.60,-14,-44,-5
1512180823,-0.0081,-0.0109,0.0278,-76.97,-46.63,977.54,-14,-44,-5
1512180823,0.0142,-0.0004,0.0354,-99.67,-32.71,954.77,-14,-44,-5
1512180823,-0.0378,-0.0205,0.0348,-59.75,-98.45,961.73,-10,-47,-1
1512180824,-0.0391,-0.0269,0.0354,-12.57,-77.82,1007.45,-10,-47,-1
1512180824,-0.0214,-0.0370,0.0344,32.04,-145.69,998.47,-10,-47,-1
1512180824,-0.0076,-0.0390,0.0387,5.37,-122.92,930.60,-10,-47,-1
1512180824,0.0047,-0.0429,0.0356,19.04,-130.74,999.69,-28,-33,-5
1512180824,0.0164,-0.0394,0.0417,-9.16,-125.55,1011.72,-28,-33,-5
1512180824,0.0702,-0.0233,0.0509,-17.94,-87.89,958.80,-28,-33,-5
1512180824,-0.0100,-0.0318,0.0491,-27.10,-136.90,911.50,-28,-33,-5
1512180824,-0.0308,-0.0302,0.0535,-35.22,-80.38,1008.36,-28,-33,-5
1512180824,-0.0498,-0.0454,0.0605,-55.05,-55.91,1088.99,-10,-44,-15
1512180824,-0.0684,-0.0690,0.0642,-50.66,-79.04,1083.44,-10,-44,-15
1512180824,-0.0586,-0.0800,0.0626,-24.60,-89.72,1029.42,-10,-44,-15
1512180824,-0.0394,-0.0747,0.0650,-52.25,-129.64,964.17,-10,-44,-15
1512180824,-0.0562,-0.0658,0.0591,2.56,-149.72,868.16,-10,-44,-15
1512180824,-0.0515,-0.0542,0.0583,15.32,-151.00,975.16,-12,-35,0
1512180824,0.0032,-0.0525,0.0529,-5.68,-130.31,1067.63,-12,-35,0
1512180824,-0.0181,-0.0483,0.0485,44.07,-174.62,1029.66,-12,-35,0
1512180824,-0.0100,-0.0506,0.0529,7.14,-121.03,1017.94,-12,-35,0
1512180824,-0.0071,-0.0469,0.0557,9.83,-119.63,1044.13,-17,-51,-1
1512180824,0.0162,-0.0302,0.0577,22.03,-144.65,1023.93,-17,-51,-1
1512180824,0.0222,-0.0137,0.0578,29.79,-136.78,1032.90,-17,-51,-1
1512180824,0.0268,-0.0043,0.0586,8.12,-133.24,1026.31,-17,-51,-1
1512180824,0.0658,-0.0084,0.0558,26.92,-118.23,1052.67,-17,-51,-1
1512180824,0.0772,-0.0154,0.0574,-13.37,-111.33,1061.22,-7,-44,-5
1512180824,0.0593,-0.0108,0.0679,-23.74,-69.34,1007.87,-7,-44,-5
1512180824,0.0328,-0.0077,0.0678,-31.37,-59.20,1072.27,-7,-44,-5
1512180824,0.0393,0.0068,0.0720,-45.04,-44.80,1078.80,-7,-44,-5
1512180824,0.0180,0.0152,0.0683,-47.67,-58.41,1053.22,-7,-44,-5
1512180824,0.0870,0.0344,0.0802,-6.47,40.59,1177.00,0,-44,-5
1512180824,-0.0336,0.0040,0.0610,42.36,-45.59,1143.92,0,-44,-5
1512180824,0.0206,0.0104,0.0491,-83.68,-64.33,1074.10,0,-44,-5
1512180824,0.1023,0.0242,-0.0178,0.00,-193.12,1070.19,0,-44,-5
1512180824,0.1162,0.0531,0.1541,2.75,-65.19,1010.56,0,-44,8
1512180824,0.0237,-0.0092,0.1827,-83.92,-162.23,955.38,0,-44,8
1512180824,0.0180,0.0116,0.2008,-33.20,-125.06,814.51,0,-44,8
1512180824,-0.0342,-0.0092,0.3190,-40.71,-93.02,1007.02,0,-44,8
1512180824,-0.0369,0.0052,0.2511,-62.32,-79.16,895.45,0,-44,8
1512180824,-0.0515,0.0129,0.1609,-51.70,-125.43,1000.67,8,-3,-3
1512180824,-0.3099,0.0479,0.1732,-63.42,-136.60,899.05,8,-3,-3
1512180825,-0.5975,0.0438,0.2692,-15.93,-103.33,1111.39,8,-3,-3
1512180825,0.1539,-0.0111,0.3190,-17.64,-125.24,991.27,8,-3,-3
1512180825,-0.0610,0.0224,0.3699,-21.18,-144.29,987.92,73,61,-35
1512180825,-0.1535,0.0350,0.4104,-30.21,-145.26,930.36,73,61,-35
1512180825,0.2547,-0.0212,0.5105,-16.66,-151.37,1087.16,73,61,-35
1512180825,0.0329,-0.0001,0.4273,33.20,-181.03,1100.83,73,61,-35
1512180825,-0.0487,0.0032,0.3972,14.65,-155.15,1024.29,73,61,-35
1512180825,-0.0688,0.0084,0.3325,-0.24,-146.00,1102.78,161,188,-130
1512180825,-0.1690,0.0474,0.2631,15.75,-144.10,1075.87,161,188,-130
1512180825,-0.2684,0.0988,0.2486,-3.85,-169.37,967.47,161,188,-130
1512180825,0.0429,-0.0079,0.2268,-7.63,-183.90,1073.12,161,188,-130
1512180825,-0.0134,0.0200,0.2658,-41.44,-156.74,905.33,161,188,-130
1512180825,-0.0256,0.0700,0.3466,5.55,-174.32,1184.39,180,264,-213
1512180825,0.2342,0.1426,0.4795,-77.64,-109.44,1151.92,180,264,-213
1512180825,1.7480,1.4762,0.6968,-37.05,-114.50,1245.54,180,264,-213
1512180825,1.0055,0.5198,0.7995,-35.03,-130.80,1728.15,180,264,-213
1512180825,-0.2555,-0.7306,0.2846,-243.59,-325.99,142.33,263,379,-380
1512180825,-0.9224,0.1569,0.0391,165.04,-346.80,1341.43,263,379,-380
1512180825,-0.4535,0.1716,-0.2132,-110.66,22.03,738.10,263,379,-380
1512180825,-0.2650,0.0878,-0.0459,-53.28,-131.04,1300.11,263,379,-380
1512180825,-0.0241,-0.0538,-0.0406,-34.97,-74.83,887.57,263,379,-380
1512180825,0.1258,0.0391,0.0739,-42.79,-106.81,1233.64,275,433,-423
1512180825,-0.0594,0.0385,0.0742,-122.31,-95.52,1010.74,275,433,-423
1512180825,-0.0716,-0.0290,0.0804,-63.42,-84.47,1062.13,275,433,-423
1512180825,-0.0141,-0.0403,0.1045,-177.86,-126.40,1026.86,275,433,-423
1512180825,-0.0005,0.0710,0.0823,-117.49,-94.30,905.09,275,433,-423
1512180825,0.0606,-0.1087,0.1012,27.10,-125.79,1091.92,289,423,-406
1512180825,0.1398,0.2200,0.1109,-181.95,-163.39,1078.43,289,423,-406
1512180825,-0.0993,-0.1599,0.0767,-36.19,-126.53,967.22,289,423,-406
1512180825,-0.0023,-0.1445,0.1075,-100.40,-147.95,1001.22,289,423,-406
1512180825,0.0878,0.1441,0.0975,-133.24,-169.43,987.12,295,417,-421
1512180825,-0.0057,-0.0349,0.0816,47.18,-155.64,1034.18,295,417,-421
1512180825,0.0202,-0.0292,0.0940,-40.59,-204.41,1073.06,295,417,-421
1512180825,-0.0254,0.1115,0.0899,-58.04,-199.52,949.16,295,417,-421
1512180825,-0.0361,-0.0417,0.0863,-42.48,-132.02,994.87,295,417,-421
1512180825,0.0200,0.0320,0.0874,-66.96,-199.52,939.45,298,435,-418
1512180825,-0.0113,0.1454,0.0959,-72.94,-128.23,1019.53,298,435,-418
1512180825,-0.1055,-0.0349,0.1001,-111.82,-141.85,1015.99,298,435,-418
1512180826,-0.0434,0.0668,0.0989,-100.40,-128.66,1052.92,298,435,-418
1512180826,-0.0117,0.0290,0.0949,-76.66,-122.25,1032.65,275,458,-429
1512180826,0.0349,-0.0413,0.1000,-79.71,-163.33,1037.17,275,458,-429
1512180826,0.0280,0.0787,0.0864,-33.94,-182.01,918.58,275,458,-429
1512180826,0.0389,0.0715,0.0883,1.89,-159.06,1113.95,275,458,-429
1512180826,0.0088,-0.0182,0.0886,-43.64,-187.62,946.59,275,458,-429
1512180826,0.0081,0.0724,0.0969,-95.15,-131.96,946.23,272,458,-419
1512180826,0.0973,0.0893,0.0913,-44.92,-113.28,1036.74,272,458,-419
1512180826,0.0960,-0.0419,0.0996,-97.96,-109.31,1065.06,272,458,-419
1512180826,0.1150,0.0711,0.1003,-133.06,-119.63,912.90,272,458,-419
1512180826,0.0595,0.0120,0.0985,-75.56,-97.96,1094.36,272,458,-419
1512180826,0.1193,-0.0265,0.1068,-113.83,-119.51,1021.55,268,447,-406
1512180826,0.1079,0.0559,0.1063,-128.85,-94.91,979.49,268,447,-406
1512180826,0.0089,-0.0009,0.1003,-76.11,-107.06,1040.34,268,447,-406
1512180826,-0.0357,-0.0401,0.0989,-87.95,-96.13,1032.59,268,447,-406
1512180826,-0.0041,0.0664,0.1003,-107.06,-115.30,1045.35,275,458,-409
1512180826,-0.0743,-0.0727,0.0972,-20.26,-133.79,1049.56,275,458,-409
1512180826,-0.0264,0.0790,0.0900,-80.38,-192.08,999.51,275,458,-409
1512180826,-0.0332,-0.0129,0.0943,-55.24,-149.35,1020.75,275,458,-409
1512180826,-0.1180,0.0667,0.0913,9.22,-226.93,1089.48,275,458,-409
1512180826,-0.0614,0.0320,0.0985,-165.41,-119.93,1005.62,293,458,-413
1512180826,0.0852,-0.1037,0.1065,-79.65,-109.01,884.34,293,458,-413
1512180826,0.1324,0.3055,0.0941,-62.87,-138.24,1174.80,293,458,-413
1512180826,0.1486,-0.1172,0.0997,-67.81,-123.54,966.31,293,458,-413
1512180826,0.1573,-0.0194,0.1019,-82.34,-124.39,1061.04,293,458,-413
1512180826,0.1296,0.1274,0.0957,-60.79,-92.41,1068.05,295,470,-421
1512180826,-0.0041,-0.1280,0.0968,-80.51,-124.51,1047.55,295,470,-421
1512180826,0.0875,0.1189,0.0920,-120.00,-87.71,1012.51,295,470,-421
1512180826,-0.0575,-0.0184,0.1043,-82.40,-85.82,1137.33,295,470,-421
1512180826,-0.0719,-0.0345,0.0956,-62.68,-158.26,978.88,298,467,-404
1512180826,0.0137,0.0238,0.1007,-99.24,-138.18,1124.88,298,467,-404
1512180826,-0.0120,0.0586,0.0912,-57.07,-163.33,1036.13,298,467,-404
1512180826,-0.0332,-0.0063,0.0863,-48.89,-156.19,1018.25,298,467,-404
1512180826,0.0626,0.0646,0.0895,-54.08,-174.62,1066.96,298,467,-404
1512180826,-0.0100,0.0402,0.0939,-101.68,-128.60,1030.09,307,483,-409
1512180826,-0.0278,0.0061,0.0957,-105.35,-163.33,1009.83,307,483,-409
1512180826,-0.0017,0.0786,0.0931,-113.28,-148.25,954.47,307,483,-409
1512180827,0.0208,0.0471,0.0964,-123.05,-99.12,1042.48,307,483,-409
1512180827,-0.0614,-0.0116,0.0948,-53.47,-157.29,949.77,298,467,-424
1512180827,0.0136,0.1193,0.0956,-82.95,-106.75,1054.93,298,467,-424
1512180827,0.0341,0.0575,0.0929,-101.44,-99.49,1003.66,298,467,-424
1512180827,-0.0742,0.0008,0.0852,-94.97,-127.93,981.45,298,467,-424
1512180827,-0.0004,0.0897,0.0916,-102.60,-126.89,1052.06,298,467,-424
1512180827,-0.0390,0.0344,0.0819,-71.29,-131.84,970.76,303,486,-416
1512180827,-0.0466,-0.0390,0.0856,-61.71,-171.26,1006.10,303,486,-416
1512180827,0.0036,0.0791,0.0839,-107.48,-144.96,871.34,303,486,-416
1512180827,-0.0350,-0.0423,0.0859,-54.75,-112.30,1117.13,303,486,-416
1512180827,-0.0565,0.0666,0.0780,-205.63,-193.60,974.85,303,486,-416
1512180827,-0.0834,-0.1194,0.0811,-89.23,-145.08,826.35,288,488,-441
1512180827,-0.0491,0.1097,0.0863,-152.71,-209.84,991.46,288,488,-441
1512180827,-0.1204,0.0543,0.0832,-124.45,-166.02,937.19,288,488,-441
1512180827,-0.1933,-0.0593,0.0763,-84.90,-178.41,984.68,288,488,-441
1512180827,0.0324,0.0997,0.0726,-120.73,-158.20,1045.65,291,484,-438
1512180827,-0.0418,0.0300,0.0723,-119.81,-142.09,977.72,291,484,-438
1512180827,-0.0390,-0.0886,0.0667,-58.65,-108.70,911.38,291,484,-438
1512180827,-0.0009,0.0253,0.0704,-149.29,-168.21,1018.13,291,484,-438
1512180827,0.0153,0.0321,0.0638,-54.44,-79.04,1003.60,291,484,-438
1512180827,0.0567,-0.1140,0.0676,-136.96,-70.98,1112.79,298,481,-441
1512180827,0.1808,0.1293,0.0535,-106.20,-97.53,1008.18,298,481,-441
1512180827,0.0361,-0.0734,0.0514,-80.02,-102.11,1047.00,298,481,-441
1512180827,0.0648,-0.0361,0.0526,-119.57,-147.89,1104.80,298,481,-441
1512180827,0.0310,0.0373,0.0418,-60.73,-131.71,913.02,298,481,-441
1512180827,0.0146,-0.0397,0.0494,-142.76,-123.11,1091.74,293,468,-440
1512180827,0.0277,-0.0277,0.0453,-110.78,-142.09,932.01,293,468,-440
1512180827,0.0153,0.1004,0.0426,-107.42,-143.37,1080.02,293,468,-440
1512180827,-0.0370,-0.0643,0.0430,-80.02,-162.90,1008.36,293,468,-440
1512180827,0.0451,0.0903,0.0374,-42.66,-89.90,1071.78,303,468,-440
1512180827,-0.0103,-0.0469,0.0406,-123.72,-112.00,1076.48,303,468,-440
1512180827,0.0088,0.0281,0.0289,-105.83,-90.70,918.70,303,468,-440
1512180827,0.0526,-0.0121,0.0293,-76.35,-63.17,1020.75,303,468,-440
1512180827,0.0779,0.0531,0.0260,-120.24,-86.30,926.88,303,468,-440
1512180827,0.0103,0.0233,0.0196,-121.52,-89.78,954.28,295,484,-438
1512180827,0.0177,-0.0297,0.0232,-135.68,-82.95,1042.72,295,484,-438
1512180827,0.0937,0.0427,0.0228,-109.99,-63.66,962.28,295,484,-438
1512180827,0.0202,-0.0394,0.0205,-123.17,-92.90,952.76,295,484,-438
1512180828,0.0569,0.0216,0.0242,-130.92,-91.00,942.57,295,484,-438
1512180828,-0.0004,-0.0293,0.0212,-132.63,-119.26,995.67,295,481,-431
1512180828,0.0206,-0.0019,0.0189,-90.09,-117.31,1002.99,295,481,-431
1512180828,-0.0044,-0.0036,0.0142,-106.57,-105.53,958.07,295,481,-431
1512180828,-0.0012,0.0039,0.0117,-138.31,-116.82,935.00,295,481,-431
1512180828,0.0270,-0.0298,0.0109,-146.85,-64.82,1032.17,300,475,-433
1512180828,0.0634,0.0383,0.0061,-153.93,-85.82,1005.92,300,475,-433
1512180828,0.0072,-0.0635,0.0101,-68.97,-108.76,1000.00,300,475,-433
1512180828,0.0382,0.0941,0.0071,-146.55,-75.38,985.53,300,475,-433
1512180828,-0.0222,-0.0401,0.0060,-149.23,-63.48,999.63,300,475,-433
1512180828,0.0272,-0.0125,0.0037,-95.95,-67.87,1053.16,295,477,-438
1512180828,0.0405,0.0157,0.0039,-147.83,-90.70,987.18,295,477,-438
1512180828,-0.0240,-0.0494,-0.0057,-104.55,-91.55,933.84,295,477,-438
1512180828,0.0346,-0.0048,-0.0117,-118.47,-107.54,1059.75,295,477,-438
1512180828,-0.0543,-0.0185,-0.0079,-131.35,-87.22,1032.96,289,472,-436
1512180828,-0.0036,-0.0305,-0.0145,-100.22,-45.72,941.35,289,472,-436
1512180828,0.0486,0.0125,-0.0142,-136.23,-80.32,1096.98,289,472,-436
1512180828,0.0365,-0.0268,-0.0185,-126.22,-60.61,927.43,289,472,-436
1512180828,0.0204,-0.0643,-0.0138,-104.43,-49.01,1070.68,289,472,-436
1512180828,0.0746,-0.0188,-0.0129,-135.19,-66.96,1030.21,300,461,-443
1512180828,0.0011,-0.0398,-0.0174,-107.91,-71.41,960.75,300,461,-443
1512180828,0.0357,-0.0613,-0.0130,-101.81,-89.48,1002.50,300,461,-443
1512180828,0.0731,-0.0109,-0.0198,-127.32,-61.40,997.07,300,461,-443
1512180828,0.0218,-0.0574,-0.0270,-87.71,-55.05,951.54,300,461,-443
1512180828,0.0348,-0.0250,-0.0322,-122.25,-51.57,1022.58,295,467,-428
1512180828,0.1162,-0.0262,-0.0226,-129.58,-28.81,981.20,295,467,-428
1512180828,0.0977,-0.0575,-0.0286,-113.59,-48.10,1006.77,295,467,-428
1512180828,0.1523,-0.0181,-0.0269,-123.60,-37.96,1021.67,295,467,-428
1512180828,0.0823,-0.0184,-0.0348,-123.60,-32.17,952.82,295,474,-421
1512180828,0.0678,-0.0675,-0.0293,-105.65,-26.92,1063.78,295,474,-421
1512180828,0.0830,0.0222,-0.0366,-83.13,-47.30,1016.85,295,474,-421
1512180828,0.0407,-0.0340,-0.0405,-86.30,-78.12,1050.42,295,474,-421
1512180828,0.0113,-0.0454,-0.0395,-104.13,-50.48,1023.13,295,474,-421
1512180828,0.0290,0.0021,-0.0505,-72.45,-51.82,1004.21,284,470,-435
1512180828,-0.0366,-0.0581,-0.0409,-103.45,-86.91,1039.98,284,470,-435
1512180828,0.0338,-0.0032,-0.0498,-97.47,-38.02,942.32,284,470,-435
1512180828,0.0437,-0.0300,-0.0462,-95.64,-36.38,1086.43,284,470,-435
1512180828,-0.0337,-0.0450,-0.0450,-122.62,-48.77,1002.69,298,456,-424
1512180829,0.0188,0.0085,-0.0451,-111.76,-10.25,1023.80,298,456,-424
1512180829,0.0746,-0.0557,-0.0455,-91.06,-33.51,1033.75,298,456,-424
1512180829,0.0133,-0.0201,-0.0623,-106.63,-52.43,934.39,298,456,-424
1512180829,0.0908,-0.0302,-0.0486,-135.56,-35.95,1082.58,298,456,-424
1512180829,0.0698,-0.0260,-0.0522,-141.85,-25.88,917.42,288,460,-431
1512180829,0.0258,-0.0518,-0.0510,-92.41,-27.77,1057.98,288,460,-431
1512180829,0.0870,-0.0557,-0.0513,-109.74,-47.55,1052.12,288,460,-431
1512180829,0.0491,-0.0156,-0.0561,-82.09,-75.44,975.40,288,460,-431
1512180829,0.0517,-0.0260,-0.0577,-118.90,-68.73,1029.66,288,460,-431
1512180829,0.0252,-0.0542,-0.0585,-119.14,-49.74,971.62,279,461,-419
1512180829,0.0411,0.0450,-0.0646,-121.83,-60.36,1097.05,279,461,-419
1512180829,0.0180,-0.0638,-0.0586,-111.08,-38.27,1003.23,279,461,-419
1512180829,0.0071,-0.0192,-0.0594,-145.39,-36.68,1058.59,279,461,-419
1512180829,0.0015,-0.0390,-0.0607,-142.03,2.69,1027.71,282,465,-419
1512180829,-0.0354,-0.0381,-0.0667,-133.67,-62.38,975.40,282,465,-419
1512180829,-0.0595,-0.0198,-0.0684,-134.52,-54.87,903.63,282,465,-419
1512180829,-0.1771,0.0144,-0.0763,-103.39,-113.71,1044.31,282,465,-419
1512180829,-0.1830,-0.0730,-0.0762,-92.96,-117.68,989.56,282,465,-419
1512180829,-0.1698,0.0426,-0.0859,-115.60,-99.49,970.89,293,447,-416
1512180829,-0.1154,0.0491,-0.0848,-152.16,-55.05,1041.87,293,447,-416
1512180829,-0.1158,-0.0358,-0.0893,-77.15,-42.05,1006.10,293,447,-416
1512180829,-0.0053,0.0555,-0.0932,-141.66,-76.97,1114.38,293,447,-416
1512180829,-0.0459,0.0333,-0.0928,-172.79,-19.65,1025.02,293,447,-416
1512180829,-0.0519,-0.0610,-0.0960,-128.30,-14.95,983.03,291,463,-414
1512180829,0.0513,0.0923,-0.0964,-114.07,-33.26,1028.99,291,463,-414
1512180829,-0.0092,-0.0382,-0.1012,-150.39,-52.19,947.14,291,463,-414
1512180829,-0.0184,-0.0399,-0.1116,-114.32,-21.12,978.03,291,463,-414
1512180829,0.0137,-0.0344,-0.1186,-153.99,-56.21,835.88,288,463,-377
1512180829,-0.0368,0.0489,-0.1193,-105.90,-37.90,973.02,288,463,-377
1512180829,-0.0302,-0.0614,-0.1212,-154.72,-12.08,997.44,288,463,-377
1512180829,0.0095,0.0249,-0.1204,-133.79,-27.71,1053.34,288,463,-377
1512180829,-0.0666,-0.0501,-0.1237,-71.47,-23.68,1015.81,288,463,-377
1512180829,-0.0543,0.0321,-0.1254,-108.52,-139.28,1025.76,302,491,-394
1512180829,-0.0812,-0.0229,-0.1253,-94.24,-63.66,1000.85,302,491,-394
1512180829,-0.0577,0.0376,-0.1261,-105.47,-84.47,1039.73,302,491,-394
1512180829,-0.0976,-0.0587,-0.1210,-141.91,-79.10,971.31,302,491,-394
1512180829,-0.0312,0.0394,-0.1216,-122.50,-60.67,1054.02,302,491,-394
1512180829,-0.0145,0.0189,-0.1213,-93.26,-49.01,961.49,302,474,-428
1512180830,0.0161,0.0005,-0.1272,-113.89,-43.21,1008.54,302,474,-428
1512180830,0.0330,-0.0276,-0.1233,-104.86,-38.45,907.47,302,474,-428
1512180830,0.0017,0.0517,-0.1264,-123.96,-29.05,1027.71,302,474,-428
1512180830,0.0787,-0.0386,-0.1232,-127.38,-22.22,1080.08,311,472,-419
1512180830,0.0706,-0.0206,-0.1264,-76.48,-48.34,1037.11,311,472,-419
1512180830,0.1035,0.0633,-0.1245,-132.63,-24.11,1101.44,311,472,-419
1512180830,0.0144,-0.1072,-0.1338,-85.63,-67.38,1024.54,311,472,-419
1512180830,0.0545,0.0533,-0.1358,-59.88,1.53,983.46,311,472,-419
1512180830,0.0289,-0.0105,-0.1392,-103.45,-56.70,1025.57,298,470,-421
1512180830,0.0462,-0.0117,-0.1447,-103.09,-70.86,989.32,298,470,-421
1512180830,0.0080,-0.0237,-0.1425,-139.34,-0.37,920.35,298,470,-421
1512180830,-0.0169,0.0353,-0.1471,-115.91,-37.90,927.19,298,470,-421
1512180830,0.0162,-0.0012,-0.1439,-155.88,26.06,934.02,289,447,-426
1512180830,0.0039,0.0573,-0.1521,-173.03,3.85,976.01,289,447,-426
1512180830,0.0670,-0.0186,-0.1645,-78.19,-0.92,1003.54,289,447,-426
1512180830,0.0566,0.0615,-0.1651,-190.98,-4.70,1079.35,289,447,-426
1512180830,0.0057,-0.0228,-0.1722,-163.51,44.92,856.69,289,447,-426
1512180830,0.1722,0.0169,-0.1755,-110.78,54.63,1086.79,295,463,-428
1512180830,0.1075,0.0197,-0.1815,-96.19,-12.15,1016.66,295,463,-428
1512180830,-0.0310,-0.0589,-0.1863,-86.91,-39.00,959.59,295,463,-428
1512180830,0.0220,0.0398,-0.1815,-155.82,30.40,968.75,295,463,-428
1512180830,-0.0514,-0.0253,-0.1823,-101.62,-9.58,1070.62,295,463,-428
1512180830,-0.0850,0.0353,-0.1919,-110.78,-42.36,902.22,305,460,-435
1512180830,0.0964,-0.0146,-0.1920,-140.87,-26.55,1029.97,305,460,-435
1512180830,0.0457,0.0193,-0.2021,-152.65,-11.96,876.34,305,460,-435
1512180830,-0.0125,-0.0783,-0.1996,-131.23,-18.98,1026.86,305,460,-435
1512180830,0.1684,0.1001,-0.2044,-163.64,54.44,916.99,291,446,-438
1512180830,-0.0081,-0.0591,-0.2056,-112.06,-0.18,1078.86,291,446,-438
1512180830,-0.0072,0.0290,-0.2061,-157.41,17.33,903.14,291,446,-438
1512180830,0.1013,0.0052,-0.2136,-164.86,79.90,1056.40,291,446,-438
1512180830,0.1672,-0.0242,-0.2208,-111.08,30.15,1078.61,291,446,-438
1512180830,0.1310,0.0130,-0.2189,-162.78,68.18,1002.50,291,438,-431
1512180830,0.2072,0.0391,-0.2236,-150.39,94.12,1060.97,291,438,-431
1512180830,0.1326,-0.0489,-0.2278,-101.32,75.87,1060.91,291,438,-431
1512180830,0.1684,-0.0344,-0.2228,-79.90,55.30,1048.16,291,438,-431
1512180830,0.1309,0.0931,-0.2304,-126.65,52.00,1037.35,300,430,-429
1512180830,0.0346,-0.0531,-0.2298,-80.32,44.01,977.48,300,430,-429
1512180831,0.0908,0.0712,-0.2281,-125.55,57.74,1123.29,300,430,-429
1512180831,0.0462,0.0242,-0.2280,-109.13,35.71,955.20,300,430,-429
1512180831,-0.0324,0.0178,-0.2350,-107.36,26.98,888.85,300,430,-429
1512180831,-0.0152,0.0550,-0.2277,-157.41,47.73,1025.70,300,412,-426
1512180831,-0.0573,0.0878,-0.2320,-104.68,61.58,950.32,300,412,-426
1512180831,-0.0719,-0.0772,-0.2297,-84.84,28.20,1034.00,300,412,-426
1512180831,0.0686,0.1312,-0.2413,-64.09,26.18,921.94,300,412,-426
1512180831,0.0706,0.0145,-0.2384,-101.20,21.36,1178.96,300,412,-426
1512180831,0.0389,0.0210,-0.2461,-165.53,26.06,950.26,286,416,-433
1512180831,0.0791,-0.0125,-0.2338,-140.87,79.47,1124.08,286,416,-433
1512180831,0.1827,0.0503,-0.2398,-187.50,67.20,953.43,286,416,-433
1512180831,0.1389,0.0245,-0.2318,-172.24,14.71,989.87,286,416,-433
1512180831,0.1666,0.1153,-0.2364,-66.53,-0.18,1041.63,277,424,-431
1512180831,0.0123,0.0314,-0.2365,-82.21,5.68,1012.88,277,424,-431
1512180831,0.0445,0.0715,-0.2289,-116.15,30.33,991.94,277,424,-431
1512180831,0.0095,0.0996,-0.2382,-137.88,30.58,991.94,277,424,-431
1512180831,-0.0521,-0.0312,-0.2326,-126.59,59.51,1089.97,277,424,-431
1512180831,0.0674,0.1112,-0.2437,-169.68,96.44,996.46,284,421,-435
1512180831,0.0980,-0.0442,-0.2325,-119.45,91.25,1048.77,284,421,-435
1512180831,0.0771,0.0762,-0.2366,-160.22,66.47,1008.48,284,421,-435
1512180831,0.0084,-0.0537,-0.2346,-153.81,113.77,1027.10,284,421,-435
1512180831,0.0473,-0.0314,-0.2338,-121.64,-5.37,1046.51,284,421,-435
1512180831,0.0217,0.0236,-0.2338,-140.44,42.11,903.32,274,414,-421
1512180831,-0.0157,-0.0176,-0.2294,-120.67,6.65,1046.39,274,414,-421
1512180831,-0.0445,0.0590,-0.2301,-214.90,16.85,984.86,274,414,-421
1512180831,-0.0217,-0.1209,-0.2234,-158.02,45.04,904.36,274,414,-421
1512180831,0.0772,0.1233,-0.2236,-148.86,65.67,950.50,279,423,-426
1512180831,0.0125,0.0025,-0.2250,-187.19,15.69,991.09,279,423,-426
1512180831,0.1317,-0.0605,-0.2349,-124.76,48.46,941.89,279,423,-426
1512180831,0.1814,0.0430,-0.2341,-111.33,48.52,1004.21,279,423,-426
1512180831,0.1744,-0.0160,-0.2186,-182.50,59.39,939.70,279,423,-426
1512180831,0.2567,-0.0372,-0.2370,-91.92,90.15,927.43,284,407,-431
1512180831,0.2218,0.0338,-0.2246,-118.71,25.82,1097.11,284,407,-431
1512180831,0.1397,0.0130,-0.2312,-157.17,69.58,943.79,284,407,-431
1512180831,0.2213,-0.0333,-0.2272,-133.24,130.31,1120.48,284,407,-431
1512180831,0.2503,0.0296,-0.2257,-161.68,64.09,965.45,268,401,-429
1512180831,0.1832,-0.0077,-0.2301,-68.54,36.56,1047.97,268,401,-429
1512180831,0.1774,-0.0360,-0.2265,-137.88,74.22,1049.62,268,401,-429
1512180832,0.1525,-0.0397,-0.2341,-148.32,61.65,926.21,268,401,-429
1512180832,0.1625,-0.0166,-0.2293,-139.71,67.20,983.64,268,401,-429
1512180832,0.1643,-0.0197,-0.2238,-177.86,92.41,1019.96,267,389,-424
1512180832,0.1190,-0.0473,-0.2214,-135.38,69.27,972.17,267,389,-424
1512180832,0.1618,0.0383,-0.2178,-143.86,86.85,1081.30,267,389,-424
1512180832,0.0138,-0.0786,-0.2151,-147.58,35.22,1010.38,267,389,-424
1512180832,-0.0197,-0.0232,-0.2113,-108.34,41.26,995.79,267,389,-424
1512180832,0.0039,0.0447,-0.2115,-127.81,33.75,1031.25,258,387,-423
1512180832,-0.0575,-0.0563,-0.2063,-125.55,-26.67,1000.98,258,387,-423
1512180832,-0.0538,0.0256,-0.2141,-61.95,-3.30,975.95,258,387,-423
1512180832,-0.0249,0.0041,-0.2119,-65.55,17.94,1075.20,258,387,-423
1512180832,-0.0619,-0.0925,-0.2023,-124.21,-1.22,964.54,256,382,-431
1512180832,-0.0405,0.0606,-0.2052,-89.05,-2.32,966.13,256,382,-431
1512180832,-0.0209,-0.0021,-0.1973,-142.52,16.24,1006.29,256,382,-431
1512180832,0.0334,-0.0457,-0.1929,-83.07,10.99,954.71,256,382,-431
1512180832,0.0985,0.0498,-0.1956,-103.39,7.32,1018.55,256,382,-431
1512180832,0.0606,-0.0349,-0.1875,-128.36,-1.89,1024.66,275,373,-419
1512180832,0.0533,0.0254,-0.1895,-107.91,12.21,992.68,275,373,-419
1512180832,0.0329,-0.0336,-0.1775,-90.70,51.88,1085.39,275,373,-419
1512180832,0.0672,-0.0397,-0.1732,-143.43,51.76,941.04,275,373,-419
1512180832,-0.0023,0.0158,-0.1724,-70.37,-17.88,1003.60,249,371,-428
1512180832,0.0376,-0.0642,-0.1646,-80.02,-0.92,1015.50,249,371,-428
1512180832,0.0374,0.0361,-0.1647,-79.83,-49.26,944.40,249,371,-428
1512180832,-0.0130,-0.0128,-0.1603,-117.74,-25.70,1047.00,249,371,-428
1512180832,-0.0157,-0.0325,-0.1529,-144.23,-27.40,891.36,249,371,-428
1512180832,-0.0004,0.0336,-0.1486,-58.53,5.55,952.03,267,354,-414
1512180832,-0.0134,0.0807,-0.1430,-71.04,-32.65,1016.48,267,354,-414
1512180832,-0.0233,-0.0581,-0.1369,-50.29,-39.73,1039.00,267,354,-414
1512180832,0.0272,0.0810,-0.1236,-148.25,-28.93,1064.51,267,354,-414
1512180832,-0.0919,-0.0591,-0.1216,-135.38,-28.56,954.28,267,354,-414
1512180832,-0.0453,-0.1678,-0.1071,-64.76,63.54,939.15,244,356,-429
1512180832,-0.0364,0.1988,-0.1154,-125.61,-47.73,986.33,244,356,-429
1512180832,-0.2145,-0.1671,-0.1043,-26.31,-59.69,915.95,244,356,-429
1512180832,-0.0790,0.0826,-0.1047,-3.91,-134.95,1134.28,244,356,-429
1512180832,-0.0332,-0.0306,-0.0977,-63.05,-114.14,1023.38,265,356,-423
1512180832,-0.1397,-0.1172,-0.0744,-49.01,-133.24,834.53,265,356,-423
1512180832,0.0244,0.1581,-0.0791,-59.39,-93.69,1127.56,265,356,-423
1512180833,-0.1497,0.0668,-0.0827,-56.58,-83.44,953.06,265,356,-423
1512180833,-0.1401,-0.0610,-0.0734,-28.69,-136.96,1067.63,265,356,-423
1512180833,-0.0189,0.1045,-0.0647,-107.54,-102.11,865.36,244,359,-423
1512180833,-0.1493,-0.0369,-0.0577,-67.57,-82.03,984.07,244,359,-423
1512180833,-0.0807,-0.0720,-0.0535,-83.56,-19.23,948.12,244,359,-423
1512180833,-0.0149,0.1626,-0.0501,-73.24,-11.60,966.92,244,359,-423
1512180833,0.0244,0.0229,-0.0459,-93.08,-71.11,1117.80,233,363,-423
1512180833,0.0445,-0.0237,-0.0422,-22.95,-72.51,867.31,233,363,-423
1512180833,0.0655,0.1662,-0.0314,-58.11,-99.98,1165.16,233,363,-423
1512180833,-0.0170,-0.0944,-0.0127,-38.21,-80.81,925.60,233,363,-423
1512180833,0.0487,0.0549,-0.0229,12.51,-68.60,1109.68,233,363,-423
1512180833,-0.0734,0.1184,-0.0188,-77.51,-71.35,1000.43,235,364,-424
1512180833,-0.1241,-0.0533,-0.0039,-59.75,-82.46,1008.12,235,364,-424
1512180833,0.0170,0.1446,-0.0073,-66.53,-55.05,1037.11,235,364,-424
1512180833,-0.0862,-0.0627,0.0044,-71.66,-75.74,963.75,235,364,-424
1512180833,-0.0132,0.0435,0.0128,-54.02,-49.50,921.94,235,364,-424
1512180833,0.0123,0.0678,0.0124,-101.75,-39.31,1057.92,244,359,-409
1512180833,-0.0193,-0.0257,0.0170,-78.61,-50.48,1032.59,244,359,-409
1512180833,-0.0084,0.0012,0.0205,-12.15,-35.64,956.54,244,359,-409
1512180833,0.0040,-0.0378,0.0314,-117.25,-11.47,867.49,244,359,-409
1512180833,0.0008,0.0547,0.0387,-34.73,-88.81,1113.83,238,371,-404
1512180833,-0.0095,0.0806,0.0403,-17.15,-38.39,1094.54,238,371,-404
1512180833,-0.0015,-0.1173,0.0433,0.37,-125.55,966.37,238,371,-404
1512180833,0.1242,0.1993,0.0438,-43.82,-148.99,1089.72,238,371,-404
1512180833,-0.1510,-0.1369,0.0478,7.32,-182.07,913.76,238,371,-404
1512180833,-0.0256,0.0884,0.0634,19.17,-148.80,1118.84,235,361,-411
1512180833,-0.0093,0.1643,0.0640,-88.50,-84.90,1006.90,235,361,-411
1512180833,-0.0485,-0.0937,0.0739,-27.59,-98.27,1097.47,235,361,-411
1512180833,-0.0099,0.0647,0.0683,-28.38,-71.29,924.50,235,361,-411
1512180833,-0.0479,-0.0328,0.0855,-120.79,-64.51,900.39,235,361,-411
1512180833,-0.1491,-0.0064,0.0883,-83.98,-30.33,870.85,216,370,-413
1512180833,-0.0293,0.0410,0.0838,-43.27,-20.14,1163.33,216,370,-413
1512180833,0.0084,0.0545,0.0863,-145.81,-98.02,967.29,216,370,-413
1512180833,-0.1469,0.0368,0.0905,-31.19,-116.70,1040.47,216,370,-413
1512180833,-0.1218,-0.0250,0.0850,-1.53,-123.72,975.77,235,371,-421
1512180833,-0.0909,0.0390,0.0909,-63.11,-164.12,1026.06,235,371,-421
1512180833,0.0105,-0.0431,0.0923,-4.46,-68.54,1019.65,235,371,-421
1512180833,0.0722,0.0663,0.0893,-27.47,-117.80,1077.03,235,371,-421
1512180834,0.0264,0.0170,0.0995,-101.38,-95.58,954.10,235,371,-421
1512180834,0.0124,-0.0157,0.1099,7.39,-58.41,974.37,235,368,-424
1512180834,0.1364,0.0690,0.1156,-8.00,-57.62,1070.37,235,368,-424
1512180834,0.0499,-0.0274,0.1188,-23.38,-96.44,974.49,235,368,-424
1512180834,0.0389,0.0935,0.1152,10.68,-84.11,1016.66,235,368,-424
1512180834,-0.0141,0.0180,0.1190,-36.99,-80.32,1052.86,224,371,-418
1512180834,-0.0553,0.0340,0.1185,-66.77,-75.38,924.26,224,371,-418
1512180834,-0.0987,0.0582,0.1184,-24.78,-75.20,1035.28,224,371,-418
1512180834,-0.0862,-0.0089,0.1221,-83.37,-85.63,953.49,224,371,-418
1512180834,-0.0352,0.0389,0.1204,-57.25,-90.09,1028.38,224,371,-418
1512180834,-0.1381,0.0522,0.1234,-51.33,-113.40,977.78,238,382,-407
1512180834,-0.1541,-0.0421,0.1280,-81.24,-91.61,999.21,238,382,-407
1512180834,-0.0660,0.0465,0.1277,-73.61,-88.99,935.91,238,382,-407
1512180834,-0.0751,-0.0614,0.1350,-72.57,-102.66,1000.37,238,382,-407
1512180834,-0.0077,0.0348,0.1352,-35.58,-102.66,1025.39,238,382,-407
1512180834,-0.0760,0.0170,0.1377,-31.92,-149.66,960.21,231,386,-414
1512180834,-0.1011,0.0652,0.1486,-75.93,-114.75,970.15,231,386,-414
1512180834,-0.0808,-0.0105,0.1435,3.78,-122.68,1083.98,231,386,-414
1512180834,-0.1462,-0.0429,0.1481,-67.38,-191.96,962.46,231,386,-414
1512180834,-0.0935,0.0636,0.1470,4.70,-75.81,989.56,238,400,-418
1512180834,-0.0852,0.0209,0.1561,-110.60,-140.93,1076.17,238,400,-418
1512180834,-0.1638,-0.0806,0.1558,-68.18,-105.90,900.09,238,400,-418
1512180834,-0.0132,0.0229,0.1609,-40.28,-41.32,1062.87,238,400,-418
1512180834,0.0009,0.0312,0.1635,-63.72,-116.70,992.98,238,400,-418
1512180834,-0.0073,-0.0401,0.1561,-11.78,-91.86,962.89,235,410,-411
1512180834,0.0200,-0.0170,0.1613,-61.34,-122.92,1052.86,235,410,-411
1512180834,0.0292,-0.0189,0.1627,-46.57,-103.94,952.70,235,410,-411
1512180834,0.0221,-0.0302,0.1664,-86.55,-99.00,1001.95,235,410,-411
1512180834,0.0668,0.0060,0.1671,-10.44,-117.92,1028.50,235,410,-411
1512180834,0.0485,0.0372,0.1723,-61.40,-107.79,944.70,242,393,-407
1512180834,0.0660,-0.0574,0.1807,-67.50,-77.39,1056.40,242,393,-407
1512180834,0.1679,0.0562,0.1760,-56.82,-83.50,978.39,242,393,-407
1512180834,0.1045,-0.0719,0.1814,-34.18,-79.90,1106.45,242,393,-407
1512180834,0.1442,0.0523,0.1770,-63.84,-59.27,988.53,240,398,-416
1512180834,0.1280,-0.0136,0.1844,-67.32,-64.88,1101.01,240,398,-416
1512180834,0.1210,-0.0461,0.1815,-31.80,-58.90,988.28,240,398,-416
1512180834,0.0334,0.0740,0.1770,-55.73,-98.45,1074.65,240,398,-416
1512180834,0.0461,-0.0850,0.1879,-37.11,-36.62,1050.35,240,398,-416
1512180835,0.0838,0.0433,0.1808,-3.05,-104.37,1009.77,242,414,-424
1512180835,0.0682,-0.0345,0.1932,-99.98,-44.74,1033.94,242,414,-424
1512180835,-0.0863,-0.0031,0.1864,-19.29,-101.93,938.60,242,414,-424
1512180835,-0.0678,-0.0145,0.1959,-51.70,-61.22,1022.89,242,414,-424
1512180835,-0.0538,0.0060,0.1924,-73.06,-127.56,946.35,242,414,-424
1512180835,-0.0774,0.0132,0.1929,-35.22,-125.43,987.18,249,396,-418
1512180835,-0.0121,-0.0088,0.1963,-34.73,-125.79,1047.24,249,396,-418
1512180835,-0.0358,-0.0338,0.1988,-77.64,-138.98,992.00,249,396,-418
1512180835,-0.0357,0.0160,0.2001,-19.71,-120.06,923.77,249,396,-418
1512180835,0.0246,-0.0338,0.2057,-12.21,-122.44,1082.76,245,410,-424
1512180835,0.0162,-0.0242,0.2101,-10.19,-115.84,896.55,245,410,-424
1512180835,-0.0012,0.0226,0.2218,-39.18,-62.50,978.64,245,410,-424
1512180835,-0.0651,-0.0882,0.2200,-16.78,-157.84,967.41,245,410,-424
1512180835,-0.0389,0.0300,0.2166,-31.68,-159.42,935.79,245,410,-424
1512180835,-0.0312,-0.0076,0.2164,-47.85,-149.72,999.63,249,421,-431
1512180835,-0.0144,-0.0598,0.2276,75.01,-132.45,1043.70,249,421,-431
1512180835,0.0304,0.1720,0.2294,35.58,-130.07,1005.49,249,421,-431
1512180835,-0.1233,-0.1123,0.2206,42.18,-140.62,1052.73,249,421,-431
1512180835,-0.0999,-0.0322,0.2334,50.35,-94.36,1059.51,249,421,-431
1512180835,-0.0423,0.1284,0.2316,-16.85,-88.87,1143.37,244,409,-429
1512180835,-0.0415,-0.2125,0.2422,13.92,-109.19,938.54,244,409,-429
1512180835,0.0911,0.1348,0.2454,31.80,-50.23,1144.17,244,409,-429
1512180835,-0.0310,-0.0955,0.2634,-27.16,-96.19,1079.10,244,409,-429
1512180835,-0.0949,-0.0529,0.2619,-38.82,-72.20,940.80,261,423,-426
1512180835,-0.0067,0.0304,0.2655,26.49,-98.02,1086.36,261,423,-426
1512180835,-0.0823,-0.0529,0.2663,-18.92,-162.60,919.74,261,423,-426
1512180835,-0.0756,-0.0486,0.2762,51.82,-144.41,968.38,261,423,-426
1512180835,-0.0056,0.1158,0.2792,27.47,-174.87,961.79,261,423,-426
1512180835,-0.0344,-0.0868,0.2880,78.92,-121.03,1039.67,256,442,-418
1512180835,0.0595,0.0538,0.2843,62.68,-235.53,977.78,256,442,-418
1512180835,-0.0342,0.0240,0.2842,-29.05,-139.16,882.51,256,442,-418
1512180835,-0.1142,0.0304,0.2900,50.96,-89.48,1013.85,256,442,-418
1512180835,-0.0228,-0.0493,0.3064,-22.40,-114.32,1034.97,275,437,-419
1512180835,0.0196,0.0372,0.3048,-21.24,-73.24,967.10,275,437,-419
1512180835,-0.0651,-0.0455,0.3123,37.60,-137.15,1049.07,275,437,-419
1512180835,-0.0936,0.0248,0.3144,14.34,-144.65,893.98,275,437,-419
1512180835,0.0059,0.0244,0.3166,40.71,-127.75,1081.67,275,437,-419
1512180836,-0.0858,-0.0314,0.3119,87.71,-171.75,1012.33,263,438,-418
1512180836,-0.0559,0.0321,0.3127,50.48,-152.53,993.65,263,438,-418
1512180836,-0.0365,0.0145,0.3232,-22.52,-75.13,1036.93,263,438,-418
1512180836,-0.0224,-0.0217,0.3285,-9.46,-112.79,1057.25,263,438,-418
1512180836,0.0462,-0.0075,0.3276,88.93,-134.83,965.09,263,438,-418
1512180836,0.0696,0.0672,0.3350,52.67,-117.92,1108.58,275,461,-429
1512180836,0.0479,-0.0405,0.3505,-33.94,-73.43,1012.94,275,461,-429
1512180836,0.0762,0.0372,0.3429,-32.71,-104.98,968.93,275,461,-429
1512180836,0.0646,0.0099,0.3462,45.78,-135.93,1037.90,275,461,-429
1512180836,0.0875,-0.0254,0.3565,51.03,-98.27,1081.24,279,472,-406
1512180836,0.0450,0.0467,0.3542,92.90,-143.55,1063.72,279,472,-406
1512180836,-0.0029,0.0016,0.3707,51.39,-121.34,1041.93,279,472,-406
1512180836,0.0033,-0.0072,0.3794,12.45,-114.99,996.40,279,472,-406
1512180836,0.1064,0.0772,0.3710,54.87,-132.93,1064.39,279,472,-406
1512180836,0.0960,-0.0883,0.3696,32.47,-164.49,1008.36,272,465,-406
1512180836,0.0550,0.1103,0.3795,91.06,-128.78,980.53,272,465,-406
1512180836,0.0907,0.0419,0.3816,73.91,-127.14,1120.00,272,465,-406
1512180836,0.0064,0.0226,0.3929,28.02,-135.50,1013.79,272,465,-406
1512180836,0.0157,0.0526,0.3906,94.97,-97.05,1080.75,277,481,-424
1512180836,0.0593,0.0166,0.3995,15.56,-102.17,1082.15,277,481,-424
1512180836,0.0376,-0.0313,0.4069,47.36,-154.17,976.75,277,481,-424
1512180836,0.0920,0.0260,0.4151,30.76,-85.88,1076.66,277,481,-424
1512180836,0.0634,0.0442,0.4041,-8.24,-150.33,961.43,277,481,-424
1512180836,-0.0089,0.0120,0.4180,0.85,-116.70,954.28,291,495,-421
1512180836,0.0880,0.1060,0.4120,51.39,-146.24,1063.60,291,495,-421
1512180836,0.0832,-0.0008,0.4109,4.39,-117.19,1039.61,291,495,-421
1512180836,0.0061,-0.0344,0.4209,-50.90,-110.96,907.04,291,495,-421
1512180836,0.0318,0.0019,0.4208,8.36,-92.77,841.13,291,495,-421
1512180836,-0.0156,0.0433,0.4308,-8.24,-161.01,952.51,288,509,-418
1512180836,-0.0310,0.0313,0.4344,91.98,-115.05,1059.51,288,509,-418
1512180836,-0.0526,0.0369,0.4446,64.70,-164.37,1050.90,288,509,-418
1512180836,-0.1360,0.0543,0.4517,11.78,-167.11,964.60,288,509,-418
1512180836,-0.1518,0.0648,0.4349,47.73,-189.70,1041.08,284,516,-431
1512180836,-0.1142,0.0063,0.4342,30.21,-151.98,1054.75,284,516,-431
1512180836,-0.0395,0.0908,0.4246,68.12,-136.17,998.72,284,516,-431
1512180836,-0.1715,0.0282,0.4258,69.27,-176.57,1048.16,284,516,-431
1512180836,-0.0963,0.0421,0.4394,-31.43,-76.42,982.85,284,516,-431
1512180836,-0.0738,0.0866,0.4474,-17.82,-99.18,1017.52,286,532,-423
1512180837,-0.0748,0.0398,0.4422,-8.06,-149.96,982.30,286,532,-423
1512180837,-0.0197,0.0366,0.4446,31.31,-142.27,1042.85,286,532,-423
1512180837,-0.0493,0.0325,0.4461,36.62,-135.50,889.16,286,532,-423
1512180837,0.0884,0.0630,0.4461,5.86,-104.86,1007.69,286,532,-423
1512180837,0.1124,0.0368,0.4438,20.14,-109.25,1109.01,277,548,-421
1512180837,0.0621,0.0369,0.4394,19.10,-126.77,978.45,277,548,-421
1512180837,0.0471,0.0142,0.4462,-7.02,-98.33,1041.32,277,548,-421
1512180837,0.0186,0.0447,0.4473,-9.22,-132.20,955.20,277,548,-421
1512180837,-0.0020,0.0659,0.4426,1.40,-106.26,1082.46,263,537,-428
1512180837,0.0128,0.0184,0.4434,41.14,-121.70,992.80,263,537,-428
1512180837,-0.0031,0.1290,0.4362,40.10,-158.87,1081.48,263,537,-428
1512180837,-0.0991,-0.0004,0.4465,-25.82,-176.94,1024.78,263,537,-428
1512180837,-0.0752,0.0531,0.4425,-19.10,-96.56,974.37,263,537,-428
1512180837,-0.0196,0.0361,0.4430,-60.79,-111.88,983.95,256,565,-421
1512180837,-0.0509,0.0503,0.4406,-16.97,-89.97,944.21,256,565,-421
1512180837,0.0466,0.0487,0.4451,-42.66,-93.81,1066.16,256,565,-421
1512180837,0.0788,0.0292,0.4471,-85.45,-103.45,949.22,256,565,-421
1512180837,0.0201,-0.0113,0.4465,-60.30,-104.25,934.02,256,565,-421
1512180837,0.1399,0.0551,0.4373,-29.85,-134.77,1104.86,274,580,-428
1512180837,0.0610,0.0117,0.4420,-101.44,-144.29,956.91,274,580,-428
1512180837,-0.0272,0.0277,0.4345,-11.17,-109.92,994.75,274,580,-428
1512180837,0.0840,0.0594,0.4398,-91.98,-92.77,1020.87,274,580,-428
1512180837,0.0300,-0.0413,0.4289,-36.62,-139.04,1008.00,253,590,-431
1512180837,0.0005,0.0487,0.4328,-51.76,-103.33,981.69,253,590,-431
1512180837,-0.0342,0.0063,0.4368,-41.81,-112.06,1037.05,253,590,-431
1512180837,0.0493,-0.0221,0.4400,-74.22,-95.70,930.60,253,590,-431
1512180837,0.1221,0.0585,0.4459,-94.12,-81.12,1027.59,253,590,-431
1512180837,0.0586,-0.0423,0.4458,-113.89,-79.59,986.45,242,597,-424
1512180837,0.0383,0.0080,0.4365,-37.78,-104.37,964.84,242,597,-424
1512180837,0.1411,0.0399,0.4398,-54.63,-56.03,1076.48,242,597,-424
1512180837,0.0884,-0.0505,0.4497,-113.34,-78.00,948.79,242,597,-424
1512180837,0.1129,0.0586,0.4420,-99.18,-71.47,984.62,226,602,-416
1512180837,0.1092,-0.0426,0.4410,-34.55,-98.45,1124.94,226,602,-416
1512180837,0.0786,0.0240,0.4396,-44.92,-102.48,1029.11,226,602,-416
1512180837,0.0324,-0.0113,0.4357,-27.77,-37.05,1051.33,226,602,-416
1512180837,0.0358,0.0119,0.4292,-25.51,-82.21,1095.83,226,602,-416
1512180837,-0.1535,-0.0282,0.4348,-70.31,-97.72,957.40,226,613,-426
1512180837,-0.2200,0.0168,0.4206,10.99,-50.29,1081.12,226,613,-426
1512180838,-0.2607,-0.0455,0.4248,-30.64,-65.98,1000.18,226,613,-426
1512180838,-0.1533,-0.0193,0.4289,-106.99,-89.42,954.22,226,613,-426
1512180838,-0.2029,-0.0193,0.4224,-25.63,-103.64,1097.90,226,613,-426
1512180838,-0.2996,-0.0694,0.4167,-61.95,-153.56,1019.96,242,622,-428
1512180838,-0.1952,-0.0181,0.4298,-79.41,-103.94,1001.83,242,622,-428
1512180838,-0.2190,-0.0642,0.4237,-67.32,-88.44,950.99,242,622,-428
1512180838,-0.1015,-0.0650,0.4169,-22.83,-131.53,1073.30,242,622,-428
1512180838,-0.2076,-0.0077,0.4061,-0.79,-210.02,958.50,233,624,-426
1512180838,-0.1599,-0.0422,0.4136,-51.15,-131.29,1065.00,233,624,-426
1512180838,-0.0012,-0.0634,0.4063,32.41,-161.07,994.93,233,624,-426
1512180838,0.0397,0.0049,0.3988,-0.85,-161.50,967.16,233,624,-426
1512180838,-0.1655,-0.0381,0.4076,-8.85,-183.90,994.14,233,624,-426
1512180838,-0.0726,-0.0120,0.4113,-60.85,-159.06,964.23,231,629,-414
1512180838,-0.0650,-0.0013,0.4084,-71.47,-172.00,947.69,231,629,-414
1512180838,-0.0884,-0.0297,0.4104,15.50,-230.16,1022.83,231,629,-414
1512180838,-0.0895,0.0585,0.4140,-19.29,-175.11,964.23,231,629,-414
1512180838,-0.1324,0.0526,0.4153,50.72,-190.80,1157.71,231,629,-414
1512180838,-0.1302,0.0395,0.4178,36.62,-220.58,1046.94,235,632,-431
1512180838,-0.1338,0.0993,0.4085,11.11,-170.47,1126.65,235,632,-431
1512180838,-0.1750,0.1257,0.4024,-17.76,-221.92,1072.94,235,632,-431
1512180838,-0.1274,0.1084,0.4015,29.24,-124.33,1056.70,235,632,-431
1512180838,0.0731,0.1908,0.4007,41.87,-116.46,1093.99,224,647,-435
1512180838,0.0360,0.1602,0.3916,31.80,-164.06,1043.21,224,647,-435
1512180838,0.0241,0.1557,0.4060,-33.02,-102.78,1028.14,224,647,-435
1512180838,0.0847,0.2216,0.4072,-72.63,-112.55,974.37,224,647,-435
1512180838,0.0594,0.1292,0.4075,-63.29,-96.13,943.18,224,647,-435
1512180838,-0.0802,0.1360,0.4011,-72.63,-93.14,854.98,209,655,-423
1512180838,-0.0269,0.1679,0.4017,-107.36,-78.55,918.03,209,655,-423
1512180838,-0.0511,0.0812,0.4125,-189.39,-55.60,1004.27,209,655,-423
1512180838,-0.0157,0.0818,0.4125,-135.01,-83.19,990.48,209,655,-423
1512180838,-0.0755,0.0724,0.4091,-147.09,-140.26,1001.95,198,666,-426
1512180838,-0.0684,0.0660,0.3981,-116.76,-159.24,1032.96,198,666,-426
1512180838,-0.0698,0.0051,0.3890,-74.58,-179.14,1052.19,198,666,-426
1512180838,-0.1117,0.0828,0.4017,-88.38,-161.62,1037.60,198,666,-426
1512180838,-0.0550,0.0009,0.4068,-122.01,-117.55,1031.92,198,666,-426
1512180838,0.0325,-0.0108,0.4084,-176.76,-73.43,946.53,193,682,-455
1512180838,0.0751,0.0615,0.4101,-85.08,-162.78,1079.53,193,682,-455
1512180838,0.0329,-0.0364,0.4258,-194.34,-87.22,1129.27,193,682,-455
1512180839,0.0073,-0.0346,0.4352,-170.59,-132.02,915.47,193,682,-455
1512180839,0.0156,0.0826,0.4198,-96.98,-179.75,1053.77,193,682,-455
1512180839,0.0052,-0.0626,0.4172,-117.74,-177.61,1067.50,195,691,-446
1512180839,-0.0015,0.0497,0.4304,-104.80,-72.45,1004.03,195,691,-446
1512180839,-0.0980,0.0225,0.4394,-144.04,-147.58,1097.17,195,691,-446
1512180839,-0.1157,-0.0694,0.4413,-114.26,-155.40,1046.26,195,691,-446
1512180839,-0.2546,-0.0593,0.4406,-40.04,-199.83,1000.00,186,699,-441
1512180839,-0.2591,0.0003,0.4386,-52.49,-210.51,982.12,186,699,-441
1512180839,-0.1884,-0.1365,0.4344,-60.85,-217.96,953.25,186,699,-441
1512180839,-0.1734,-0.0799,0.4318,-94.24,-243.35,963.56,186,699,-441
1512180839,-0.2400,-0.0478,0.4165,-85.57,-245.00,901.73,186,699,-441
1512180839,-0.1759,-0.0993,0.4200,-55.36,-194.95,1013.18,175,696,-438
1512180839,-0.1216,-0.0863,0.4228,-88.13,-224.00,906.19,175,696,-438
1512180839,-0.1321,-0.0558,0.4234,-94.48,-174.13,882.57,175,696,-438
1512180839,-0.0471,-0.0671,0.4269,-90.03,-184.45,1010.07,175,696,-438
1512180839,-0.0069,-0.0973,0.4334,-114.26,-170.78,918.52,175,696,-438
1512180839,-0.0019,-0.0084,0.4330,-14.28,-219.67,1036.50,175,689,-431
1512180839,-0.0732,-0.0561,0.4386,-90.39,-267.21,1048.83,175,689,-431
1512180839,0.1111,-0.0558,0.4360,-55.42,-216.67,1085.75,175,689,-431
1512180839,0.0956,-0.0197,0.4248,-93.38,-236.08,1055.24,175,689,-431
1512180839,0.1316,-0.0710,0.4135,-45.78,-248.41,1151.00,151,699,-441
1512180839,0.0780,-0.0160,0.4011,-64.51,-252.93,1021.12,151,699,-441
1512180839,0.0535,0.0177,0.4023,-88.93,-213.56,1020.32,151,699,-441
1512180839,0.0654,-0.0128,0.3956,-91.67,-219.97,989.56,151,699,-441
1512180839,0.0889,0.0393,0.3945,-103.58,-208.07,968.75,151,699,-441
1512180839,0.0786,0.0051,0.4045,-163.33,-175.48,933.47,156,691,-443
1512180839,0.0700,0.0033,0.4056,-140.62,-166.75,914.98,156,691,-443
1512180839,0.2288,0.0273,0.4164,-197.88,-131.10,954.35,156,691,-443
1512180839,0.1743,-0.0077,0.4156,-145.14,-153.99,925.96,156,691,-443
1512180839,0.1202,0.0013,0.4226,-165.95,-171.87,953.55,122,689,-428
1512180839,0.1065,0.0292,0.4280,-206.24,-157.04,968.81,122,689,-428
1512180839,0.0462,-0.0001,0.4222,-134.58,-147.34,1025.21,122,689,-428
1512180839,0.0369,0.0477,0.4205,-147.16,-191.28,985.29,122,689,-428
1512180839,-0.0876,0.0240,0.4193,-128.66,-202.76,1009.28,122,689,-428
1512180839,-0.0815,0.0035,0.4196,-79.65,-211.67,984.80,112,717,-438
1512180839,-0.1041,0.0690,0.4261,-125.37,-237.55,1003.11,112,717,-438
1512180839,-0.0911,-0.0229,0.4386,-127.14,-223.14,1018.68,112,717,-438
1512180840,-0.0639,0.0328,0.4420,-166.99,-199.46,941.83,112,717,-438
1512180840,-0.0226,0.0370,0.4408,-97.84,-203.31,1007.51,112,717,-438
1512180840,0.0260,-0.0125,0.4502,-105.96,-178.47,1026.92,100,712,-440
1512180840,0.0506,0.0121,0.4533,-121.46,-187.99,1036.87,100,712,-440
1512180840,0.0352,-0.0172,0.4594,-183.29,-181.21,986.02,100,712,-440
1512180840,0.0664,0.0091,0.4533,-140.08,-164.00,1016.85,100,712,-440
1512180840,0.0920,-0.0084,0.4547,-154.97,-164.00,1020.26,94,692,-424
1512180840,0.0867,0.0138,0.4482,-136.47,-182.25,1030.94,94,692,-424
1512180840,0.1031,-0.0181,0.4490,-144.41,-120.00,1033.14,94,692,-424
1512180840,0.1467,0.0341,0.4522,-159.67,-160.52,997.07,94,692,-424
1512180840,0.1419,0.0084,0.4511,-98.45,-122.92,1051.57,94,692,-424
1512180840,0.1571,-0.0354,0.4535,-119.38,-184.75,1072.88,72,701,-436
1512180840,0.1724,-0.0023,0.4493,-135.07,-152.83,987.61,72,701,-436
1512180840,0.1479,-0.0184,0.4591,-157.41,-144.96,1045.53,72,701,-436
1512180840,0.1715,-0.0004,0.4474,-143.25,-175.66,1000.18,72,701,-436
1512180840,0.0130,0.0031,0.4471,-149.29,-152.28,998.47,52,710,-441
1512180840,0.0421,0.0370,0.4507,-189.88,-142.88,972.47,52,710,-441
1512180840,0.0325,-0.0087,0.4523,-174.87,-152.59,1015.08,52,710,-441
1512180840,0.0218,0.0470,0.4481,-129.46,-203.92,1003.72,52,710,-441
1512180840,-0.0514,0.0421,0.4507,-142.58,-215.03,972.17,52,710,-441
1512180840,-0.0493,-0.0328,0.4647,-148.07,-138.37,1039.92,54,701,-433
1512180840,0.0236,0.0606,0.4618,-158.14,-187.01,965.64,54,701,-433
1512180840,0.0016,-0.0089,0.4473,-165.71,-197.63,986.45,54,701,-433
1512180840,-0.0284,-0.0099,0.4442,-106.08,-212.34,1024.84,54,701,-433
1512180840,-0.0053,0.0225,0.4494,-139.47,-169.43,1033.45,54,701,-433
1512180840,0.0015,-0.0128,0.4483,-124.15,-195.92,969.60,28,710,-435
1512180840,0.0417,0.0149,0.4424,-151.86,-200.44,997.62,28,710,-435
1512180840,0.0514,-0.0099,0.4417,-148.99,-170.04,1019.65,28,710,-435
1512180840,0.0024,-0.0193,0.4348,-143.68,-206.54,1041.20,28,710,-435
1512180840,-0.0210,-0.0035,0.4369,-147.16,-160.77,966.74,28,710,-435
1512180840,0.0101,-0.0107,0.4281,-122.07,-205.14,1010.86,29,712,-443
1512180840,0.0696,0.0252,0.4265,-167.24,-195.68,1003.17,29,712,-443
1512180840,-0.0364,-0.0458,0.4201,-128.05,-219.97,955.51,29,712,-443
1512180840,0.0220,0.0838,0.4120,-155.76,-189.39,990.66,29,712,-443
1512180840,0.0000,-0.0459,0.4137,-171.81,-199.04,1007.57,15,694,-423
1512180840,-0.0184,0.0474,0.4087,-152.65,-204.90,905.03,15,694,-423
1512180840,-0.0084,0.0121,0.4059,-202.70,-197.88,1033.20,15,694,-423
1512180840,0.0096,0.0137,0.4023,-191.83,-169.86,986.94,15,694,-423
1512180841,0.0115,0.0399,0.3955,-159.61,-191.65,1080.38,15,694,-423
1512180841,-0.0007,-0.0357,0.3941,-195.13,-205.81,986.02,24,703,-435
1512180841,0.0142,0.0812,0.3814,-138.43,-201.72,988.34,24,703,-435
1512180841,0.0478,-0.0530,0.3839,-185.42,-146.24,1108.70,24,703,-435
1512180841,-0.0037,0.0288,0.3750,-192.57,-185.79,958.80,24,703,-435
1512180841,-0.0092,0.0240,0.3704,-141.36,-162.35,1055.91,3,703,-451
1512180841,-0.0214,0.0656,0.3602,-152.34,-210.08,1051.39,3,703,-451
1512180841,-0.0686,0.0085,0.3623,-186.71,-184.27,1033.81,3,703,-451
1512180841,-0.0016,0.0551,0.3555,-144.23,-164.73,1037.90,3,703,-451
1512180841,0.0124,0.0510,0.3430,-190.86,-168.40,1018.80,3,703,-451
1512180841,-0.0021,0.0109,0.3369,-143.68,-182.62,1030.15,0,699,-421
1512180841,0.0246,0.0438,0.3348,-195.86,-158.14,1016.72,0,699,-421
1512180841,-0.0020,-0.0067,0.3292,-223.88,-141.91,947.81,0,699,-421
1512180841,-0.0694,0.0154,0.3242,-220.21,-149.72,973.08,0,699,-421
1512180841,0.0161,0.0478,0.3144,-218.57,-116.39,980.96,-21,689,-435
1512180841,0.0154,-0.0553,0.3077,-184.08,-162.48,981.32,-21,689,-435
1512180841,0.0156,0.0640,0.2931,-175.60,-174.99,896.30,-21,689,-435
1512180841,-0.0140,-0.0503,0.2959,-222.66,-132.63,1044.68,-21,689,-435
1512180841,0.0269,0.0206,0.2910,-276.18,-97.47,890.08,-21,689,-435
1512180841,0.0245,-0.0123,0.2780,-194.70,-143.49,967.77,-38,675,-441
1512180841,0.0997,0.0003,0.2822,-225.10,-144.35,1050.78,-38,675,-441
1512180841,0.0751,0.0306,0.2735,-220.03,-109.80,938.17,-38,675,-441
1512180841,0.0096,-0.0134,0.2679,-221.80,-135.80,1108.22,-38,675,-441
1512180841,0.0069,0.0085,0.2574,-161.62,-152.65,970.46,-38,675,-441
1512180841,0.0125,0.0178,0.2525,-218.69,-148.93,1063.29,-33,684,-446
1512180841,-0.1004,-0.0180,0.2438,-221.62,-148.56,1011.05,-33,684,-446
1512180841,-0.0931,0.0237,0.2366,-227.36,-111.02,960.51,-33,684,-446
1512180841,-0.0123,-0.0011,0.2265,-242.25,-106.14,1056.58,-33,684,-446
1512180841,-0.0252,0.0071,0.2128,-207.70,-124.33,960.45,-40,676,-429
1512180841,-0.0446,0.0073,0.2057,-207.64,-121.34,1058.96,-40,676,-429
1512180841,-0.0551,-0.0087,0.1923,-188.78,-142.15,958.50,-40,676,-429
1512180841,-0.0754,-0.0232,0.1984,-247.38,-112.00,1016.42,-40,676,-429
1512180841,-0.0418,-0.0242,0.1903,-208.31,-117.19,1037.29,-40,676,-429
1512180841,-0.1139,-0.0395,0.1731,-202.82,-187.32,1000.73,-36,680,-423
1512180841,-0.1033,-0.0197,0.1692,-156.92,-172.91,956.73,-36,680,-423
1512180841,-0.1547,0.0192,0.1663,-187.13,-196.41,1026.18,-36,680,-423
1512180841,-0.1599,-0.0041,0.1651,-185.85,-174.56,1039.43,-36,680,-423
1512180841,-0.1357,-0.0124,0.1489,-161.07,-194.21,982.30,-36,680,-423
1512180842,0.0378,0.0344,0.1503,-205.57,-150.15,1039.73,-40,669,-436
1512180842,-0.0474,-0.0312,0.1462,-208.68,-103.70,917.48,-40,669,-436
1512180842,-0.0365,-0.0242,0.1410,-189.88,-134.58,1024.72,-40,669,-436
1512180842,0.1185,0.0075,0.1421,-238.89,-82.09,983.58,-40,669,-436
1512180842,0.0812,-0.0635,0.1330,-216.31,-22.77,964.48,-57,659,-429
1512180842,0.1554,0.0061,0.1298,-191.47,-98.45,994.51,-57,659,-429
1512180842,0.0838,0.0104,0.1221,-197.14,-76.90,1003.36,-57,659,-429
1512180842,0.0778,-0.0185,0.1162,-128.78,-55.42,981.26,-57,659,-429
1512180842,0.1188,-0.0144,0.1225,-236.33,-38.02,1002.14,-57,659,-429
1512180842,0.0944,0.0015,0.1158,-213.20,-72.39,949.40,-49,675,-435
1512180842,0.0960,-0.0362,0.1144,-193.18,-66.53,1043.52,-49,675,-435
1512180842,0.0103,0.0003,0.1104,-193.24,-108.76,922.18,-49,675,-435
1512180842,-0.0021,-0.0270,0.1081,-187.38,-78.98,938.17,-49,675,-435
1512180842,0.1035,0.0064,0.1059,-210.02,-63.42,1065.00,-49,675,-435
1512180842,0.0304,-0.0550,0.1013,-210.88,-59.51,1049.62,-45,675,-421
1512180842,0.0892,-0.0007,0.0928,-76.72,-32.96,994.63,-45,675,-421
1512180842,0.0818,-0.0012,0.0923,-180.91,-93.08,1055.60,-45,675,-421
1512180842,0.0410,-0.0214,0.0831,-146.18,-72.14,927.19,-45,675,-421
1512180842,-0.0176,-0.0140,0.0901,-162.84,-43.52,1023.80,-52,664,-435
1512180842,0.0285,0.0055,0.0956,-200.50,-40.71,1032.59,-52,664,-435
1512180842,-0.0134,-0.0182,0.0863,-184.94,-24.35,949.28,-52,664,-435
1512180842,0.0770,0.0250,0.0812,-125.67,-65.73,1110.35,-52,664,-435
1512180842,0.0381,0.0111,0.0734,-167.66,-48.95,1045.59,-52,664,-435
1512180842,0.0238,-0.0489,0.0682,-173.77,-47.67,1064.27,-57,666,-436
1512180842,0.0735,-0.0336,0.0599,-138.61,-29.42,1012.15,-57,666,-436
1512180842,0.0194,0.0427,0.0514,-173.03,-35.03,997.25,-57,666,-436
1512180842,0.0366,-0.0963,0.0539,-165.41,-46.75,1094.30,-57,666,-436
1512180842,0.1075,0.0142,0.0521,-253.78,10.07,901.61,-56,657,-435
1512180842,0.1053,-0.0601,0.0530,-163.33,-34.36,1014.04,-56,657,-435
1512180842,0.1547,0.0226,0.0509,-175.05,-27.59,963.75,-56,657,-435
1512180842,0.1085,-0.0506,0.0417,-140.32,-38.57,1021.85,-56,657,-435
1512180842,0.1457,-0.0148,0.0386,-145.81,3.17,965.64,-56,657,-435
1512180842,0.1513,0.0107,0.0422,-237.85,7.45,1041.99,-68,662,-429
1512180842,0.0348,-0.0160,0.0304,-167.85,-18.13,1000.00,-68,662,-429
1512180842,0.1039,0.0643,0.0268,-208.86,17.82,1008.73,-68,662,-429
1512180842,0.1244,-0.0145,0.0333,-160.22,26.79,1075.01,-68,662,-429
1512180842,0.0278,-0.0278,0.0222,-176.82,19.65,987.61,-68,662,-429
1512180843,0.1068,0.0710,0.0228,-223.69,-25.45,1126.53,-70,664,-431
1512180843,0.0615,-0.0337,0.0194,-199.22,11.35,998.35,-70,664,-431
1512180843,0.0322,0.0422,0.0170,-149.90,-20.87,1071.59,-70,664,-431
1512180843,0.0736,0.0204,0.0182,-180.36,1.83,1063.29,-70,664,-431
1512180843,0.0589,-0.0574,0.0096,-127.93,15.75,1065.12,-68,648,-443
1512180843,0.0189,0.0296,0.0116,-147.89,-2.38,992.25,-68,648,-443
1512180843,0.0314,0.0019,0.0057,-141.05,-11.54,1049.68,-68,648,-443
1512180843,0.0691,-0.0109,0.0067,-118.23,-0.79,1007.32,-68,648,-443
1512180843,0.0834,0.0154,0.0065,-170.29,20.75,1061.10,-68,648,-443
1512180843,0.1041,-0.0220,-0.0007,-154.54,5.80,1037.41,-73,650,-435
1512180843,-0.0606,0.0193,0.0032,-158.08,-19.47,1031.07,-73,650,-435
1512180843,-0.0622,-0.0024,0.0027,-169.13,-4.33,981.87,-73,650,-435
1512180843,-0.0578,-0.0035,0.0044,-185.42,-0.85,993.71,-73,650,-435
1512180843,-0.0784,0.0140,-0.0080,-118.71,-71.23,912.05,-73,650,-435
1512180843,-0.0615,0.0447,-0.0124,-127.26,-53.96,1057.74,-73,657,-438
1512180843,-0.0234,0.0473,-0.0072,-187.74,-6.41,985.66,-73,657,-438
1512180843,-0.0743,-0.0398,-0.0020,-134.83,29.36,998.17,-73,657,-438
1512180843,-0.0134,0.0374,-0.0043,-138.12,-32.04,1069.82,-73,657,-438
1512180843,-0.0249,-0.0221,-0.0007,-158.33,-28.44,1013.18,-89,648,-436
1512180843,0.0297,-0.0068,-0.0089,-96.56,-26.61,932.80,-89,648,-436
1512180843,-0.0208,0.0261,-0.0032,-160.40,-38.70,1100.16,-89,648,-436
1512180843,0.0402,-0.0246,-0.0012,-188.48,81.73,941.53,-89,648,-436
1512180843,0.0779,-0.0325,-0.0017,-153.20,16.91,1049.19,-89,648,-436
1512180843,0.1242,-0.0141,-0.0028,-166.87,64.76,1030.52,-66,639,-421
1512180843,0.1352,-0.0308,-0.0064,-110.41,-12.82,1028.02,-66,639,-421
1512180843,0.1333,-0.0374,0.0028,-155.40,30.82,1000.98,-66,639,-421
1512180843,0.1684,-0.0096,-0.0121,-135.07,64.27,1002.93,-66,639,-421
1512180843,0.1549,-0.0495,-0.0031,-158.39,69.21,948.97,-66,639,-421
1512180843,0.1894,-0.0297,-0.0036,-122.25,13.55,1040.41,-73,629,-445
1512180843,0.2987,-0.0285,-0.0129,-92.83,53.10,1025.76,-73,629,-445
1512180843,0.2381,-0.0350,-0.0186,-131.41,18.74,992.80,-73,629,-445
1512180843,0.2426,-0.0565,-0.0115,-197.57,24.54,1055.66,-73,629,-445
1512180843,0.0948,0.0051,-0.0248,-97.23,33.39,1006.29,-77,643,-424
1512180843,0.1162,-0.0071,-0.0161,-155.40,40.10,1084.66,-77,643,-424
1512180843,0.0780,-0.0846,-0.0188,-146.06,45.47,1002.01,-77,643,-424
1512180843,-0.0868,0.0700,-0.0216,-126.04,13.43,1021.12,-77,643,-424
1512180843,-0.0936,-0.0945,-0.0096,-144.71,2.93,1030.09,-77,643,-424
1512180843,-0.0477,0.0280,-0.0109,-158.14,10.62,949.40,-66,654,-445
1512180844,-0.0768,-0.0117,-0.0196,-132.69,-18.37,1030.94,-66,654,-445
1512180844,-0.1265,-0.0614,-0.0079,-140.32,-46.75,941.47,-66,654,-445
1512180844,-0.0389,0.0479,-0.0113,-120.06,-46.81,952.58,-66,654,-445
1512180844,-0.1618,-0.0344,-0.0103,-95.28,-41.02,967.41,-79,652,-446
1512180844,-0.1796,-0.0393,-0.0025,-156.56,-54.69,947.94,-79,652,-446
1512180844,-0.1161,0.0976,-0.0124,-128.91,-11.66,967.77,-79,652,-446
1512180844,-0.0320,-0.0814,-0.0127,-165.41,-28.32,955.20,-79,652,-446
1512180844,0.0262,0.0152,-0.0099,-127.62,-50.54,937.99,-79,652,-446
1512180844,0.0736,0.0380,-0.0142,-155.64,-20.45,1041.14,-89,648,-423
1512180844,0.0507,-0.0830,-0.0133,-98.14,-5.37,1017.82,-89,648,-423
1512180844,0.0888,-0.0004,-0.0196,-111.57,51.76,914.98,-89,648,-423
1512180844,0.1638,0.0587,-0.0144,-127.69,12.02,1125.00,-89,648,-423
1512180844,0.1344,-0.1076,-0.0152,-91.98,15.99,1027.47,-89,648,-423
1512180844,0.2467,0.0594,-0.0154,-77.15,98.14,1011.17,-75,638,-440
1512180844,0.1915,-0.0321,-0.0128,-112.24,16.60,1046.75,-75,638,-440
1512180844,0.0955,-0.0699,-0.0160,-85.08,63.05,926.70,-75,638,-440
1512180844,0.1611,0.0487,-0.0111,-75.62,36.56,1102.23,-75,638,-440
1512180844,0.0883,-0.0176,-0.0092,-121.22,-16.24,937.32,-98,636,-428
1512180844,-0.0080,-0.0185,-0.0088,-86.06,-7.75,1012.27,-98,636,-428
1512180844,-0.0502,0.0274,-0.0031,-102.48,-44.98,1059.27,-98,636,-428
1512180844,-0.1059,-0.0332,-0.0024,-107.79,-48.71,1036.99,-98,636,-428
1512180844,-0.0433,0.0306,-0.0035,-108.03,19.65,1005.19,-98,636,-428
1512180844,-0.0743,-0.0005,-0.0088,-121.83,-47.00,1000.85,-89,638,-419
1512180844,-0.0846,0.0225,-0.0088,-106.51,-81.18,988.77,-89,638,-419
1512180844,-0.0664,0.0366,-0.0100,-107.97,-37.35,1072.20,-89,638,-419
1512180844,-0.1357,-0.0105,0.0011,-125.85,-29.24,1010.13,-89,638,-419
1512180844,-0.1087,0.0044,0.0009,-146.30,-29.54,971.37,-89,638,-419
1512180844,-0.0834,0.0690,-0.0040,-105.47,-44.43,1038.76,-73,647,-407
1512180844,-0.1037,-0.0704,0.0031,-106.99,-15.81,1013.18,-73,647,-407
1512180844,-0.0687,0.0646,-0.0031,-73.43,-56.46,916.56,-73,647,-407
1512180844,-0.0864,0.0181,-0.0011,-87.59,-62.19,1067.93,-73,647,-407
1512180844,-0.0666,0.0152,0.0027,-74.83,-4.03,990.36,-59,643,-418
1512180844,-0.1321,0.0594,0.0012,-66.65,-70.13,1016.42,-59,643,-418
1512180844,-0.1635,-0.0071,0.0194,-176.09,-45.41,951.97,-59,643,-418
1512180844,-0.1426,0.0509,0.0120,-77.94,-36.80,960.39,-59,643,-418
1512180844,-0.0439,0.0055,0.0181,-138.18,-85.39,1094.12,-59,643,-418
1512180844,-0.0891,0.0076,0.0164,-115.48,-63.90,916.08,-77,661,-424
1512180844,-0.0977,0.0079,0.0200,-113.77,-34.73,1002.99,-77,661,-424
1512180845,-0.0803,0.0001,0.0228,-131.29,-25.94,1001.65,-77,661,-424
1512180845,-0.1230,0.0434,0.0289,-152.65,-18.49,884.89,-77,661,-424
1512180845,-0.1244,-0.0382,0.0252,-91.13,-62.44,1000.61,-80,661,-435
1512180845,-0.0455,0.0822,0.0174,-104.25,-50.90,955.20,-80,661,-435
1512180845,-0.0173,-0.0421,0.0188,-116.58,-19.96,993.90,-80,661,-435
1512180845,0.0410,0.0305,0.0246,-136.54,-31.74,1087.65,-80,661,-435
1512180845,0.0629,0.0209,0.0188,-115.48,17.21,972.11,-80,661,-435
1512180845,0.0558,-0.0569,0.0233,-86.85,-37.41,1067.81,-75,652,-429
1512180845,0.0526,0.0338,0.0266,-103.52,-16.85,981.45,-75,652,-429
1512180845,0.0293,0.0128,0.0206,-87.59,-10.31,1067.20,-75,652,-429
1512180845,0.0916,-0.0590,0.0276,-130.68,42.60,1042.30,-75,652,-429
1512180845,0.0485,0.0268,0.0234,-141.60,28.56,968.26,-75,652,-429
1512180845,0.1186,0.0129,0.0276,-116.21,70.86,1045.10,-63,657,-431
1512180845,0.1581,-0.0740,0.0270,-118.77,24.78,1056.52,-63,657,-431
1512180845,0.0333,0.0253,0.0276,-153.81,0.98,1031.01,-63,657,-431
1512180845,0.0105,-0.0402,0.0253,-73.61,27.40,1049.68,-63,657,-431
1512180845,0.1258,0.0101,0.0270,-110.66,57.50,1063.42,-72,655,-429
1512180845,0.1415,0.0081,0.0236,-138.18,21.97,1065.12,-72,655,-429
1512180845,-0.0256,-0.0423,0.0246,-115.72,18.07,1024.05,-72,655,-429
1512180845,0.0956,0.0442,0.0248,-74.10,-5.92,1062.56,-72,655,-429
1512180845,0.0509,-0.0280,0.0242,-113.04,16.66,973.45,-72,655,-429
1512180845,0.0065,0.0703,0.0250,-118.90,31.68,983.83,-72,652,-433
1512180845,0.0039,-0.0213,0.0249,-91.19,-4.88,1070.56,-72,652,-433
1512180845,0.0659,-0.0083,0.0294,-89.66,10.68,1006.84,-72,652,-433
1512180845,0.0100,0.0241,0.0309,-88.32,-23.80,1033.39,-72,652,-433
1512180845,-0.0583,-0.0674,0.0344,-67.14,-46.57,973.69,-72,652,-433
1512180845,-0.0270,0.0924,0.0321,-112.92,-43.27,978.33,-59,643,-448
1512180845,-0.0278,-0.0089,0.0380,-119.81,-9.28,1013.06,-59,643,-448
1512180845,-0.0546,-0.0389,0.0364,-91.67,-32.84,992.61,-59,643,-448
1512180845,-0.0117,0.0618,0.0395,-134.52,-50.11,1056.88,-59,643,-448
1512180845,-0.0933,-0.0892,0.0390,-100.46,-71.47,1012.21,-65,645,-423
1512180845,-0.0184,0.0349,0.0414,-74.16,-71.35,963.93,-65,645,-423
1512180845,0.0260,-0.0112,0.0437,-99.91,-45.35,958.31,-65,645,-423
1512180845,0.0281,-0.0455,0.0546,-112.37,-30.15,916.32,-65,645,-423
1512180845,-0.0031,0.0142,0.0498,-60.85,-71.17,974.98,-65,645,-423
1512180845,0.0298,-0.0065,0.0487,-141.48,-71.59,953.74,-59,657,-441
1512180845,-0.0670,-0.0672,0.0631,-70.56,-73.67,1010.07,-59,657,-441
1512180845,-0.0281,0.0893,0.0581,-95.28,-97.96,960.82,-59,657,-441
1512180846,-0.0490,-0.1121,0.0619,-62.74,-106.81,1014.22,-59,657,-441
1512180846,0.0027,0.0728,0.0569,-62.01,-91.06,992.49,-59,657,-441
1512180846,-0.0883,-0.0218,0.0595,-31.31,-94.73,1070.07,-72,645,-436
1512180846,-0.0798,-0.0381,0.0660,-43.64,-74.71,1021.36,-72,645,-436
1512180846,-0.1284,0.0449,0.0683,-53.96,-88.44,1034.24,-72,645,-436
1512180846,-0.0903,-0.0558,0.0727,-29.97,-71.29,1048.71,-72,645,-436
1512180846,-0.0286,0.0190,0.0776,-39.37,-102.05,1047.67,-54,648,-433
1512180846,-0.1140,0.0161,0.0847,-41.32,-135.68,955.02,-54,648,-433
1512180846,-0.1289,-0.0401,0.0843,-65.61,-80.32,1069.40,-54,648,-433
1512180846,-0.0800,0.0613,0.0862,-83.25,-122.99,1046.39,-54,648,-433
1512180846,-0.2055,-0.0989,0.0996,-91.61,-78.80,941.77,-54,648,-433
1512180846,-0.1385,0.1112,0.1004,-99.79,-110.47,969.24,-65,652,-436
1512180846,-0.1405,-0.0545,0.1064,-105.90,-101.62,1064.94,-65,652,-436
1512180846,-0.1197,0.0605,0.0960,-0.98,-120.73,919.07,-65,652,-436
1512180846,-0.0606,0.0149,0.1027,-68.73,-76.35,1044.98,-65,652,-436
1512180846,-0.0298,0.0405,0.1001,-62.26,-119.20,993.29,-86,645,-440
1512180846,-0.0052,-0.0013,0.1103,-58.90,-23.44,1008.73,-86,645,-440
1512180846,0.0156,0.0639,0.1092,-95.70,-66.77,1103.64,-86,645,-440
1512180846,-0.0257,-0.0089,0.1081,-31.37,-64.70,911.07,-86,645,-440
1512180846,0.0370,0.0437,0.1142,-59.63,-38.76,1076.23,-86,645,-440
1512180846,0.0071,-0.0262,0.1176,-71.23,-84.59,993.59,-93,634,-433
1512180846,-0.0092,0.0603,0.1244,-99.98,-51.70,979.49,-93,634,-433
1512180846,-0.0061,-0.0481,0.1277,-82.52,-37.84,1008.73,-93,634,-433
1512180846,-0.0181,0.0324,0.1226,-63.84,-81.60,1040.89,-93,634,-433
1512180846,-0.0473,0.0142,0.1234,-67.08,-80.14,1012.70,-93,634,-433
1512180846,-0.1242,-0.0186,0.1322,-67.57,-122.50,939.09,-70,618,-421
1512180846,-0.1139,0.0658,0.1361,-77.33,-95.89,960.69,-70,618,-421
1512180846,-0.1264,-0.0085,0.1413,-58.23,-103.52,1044.19,-70,618,-421
1512180846,0.0216,0.0075,0.1415,-78.31,-82.89,1025.94,-70,618,-421
1512180846,0.0948,0.0083,0.1364,-30.82,-32.35,1025.15,-79,631,-423
1512180846,0.0920,-0.0430,0.1461,-112.43,-53.47,968.14,-79,631,-423
1512180846,0.1245,-0.0101,0.1415,-72.39,-54.44,989.87,-79,631,-423
1512180846,0.1569,-0.0381,0.1490,-59.14,-37.23,1112.06,-79,631,-423
1512180846,0.1491,-0.0477,0.1503,-19.96,-76.84,1025.51,-79,631,-423
1512180846,-0.0370,0.0028,0.1519,8.61,-75.81,1039.43,-79,627,-413
1512180846,-0.0434,-0.0164,0.1533,-1.53,-101.81,983.22,-79,627,-413
1512180846,-0.0478,0.0429,0.1569,-14.28,-87.89,1079.41,-79,627,-413
1512180847,-0.1220,-0.0348,0.1675,-108.52,-110.35,1001.89,-79,627,-413
1512180847,-0.1224,-0.0140,0.1609,-24.84,-114.75,929.50,-79,627,-413
1512180847,-0.1276,0.0726,0.1651,-122.13,-122.44,1008.61,-93,620,-436
1512180847,-0.2257,-0.0318,0.1694,-55.48,-159.42,921.45,-93,620,-436
1512180847,-0.0889,0.0806,0.1587,-14.16,-157.53,887.70,-93,620,-436
1512180847,-0.2029,-0.0422,0.1784,-26.67,-167.91,1002.81,-93,620,-436
1512180847,-0.1680,0.1385,0.1684,2.26,-103.09,927.86,-93,631,-423
1512180847,-0.1053,-0.0121,0.1739,-64.39,-127.99,1105.77,-93,631,-423
1512180847,-0.0855,0.0839,0.1724,-65.06,-111.57,897.58,-93,631,-423
1512180847,-0.0266,0.0760,0.1716,-33.33,-81.18,1101.01,-93,631,-423
1512180847,0.0277,-0.0013,0.1766,-69.21,-127.38,999.82,-93,631,-423
1512180847,0.0369,0.0386,0.1722,-28.56,-49.26,905.27,-100,627,-429
1512180847,0.0788,0.0469,0.1820,-61.28,-59.27,962.59,-100,627,-429
1512180847,0.0398,-0.0277,0.1828,-79.35,-36.56,913.09,-100,627,-429
1512180847,0.0313,0.0402,0.1843,-107.42,-36.87,944.89,-100,627,-429
1512180847,0.0318,-0.0229,0.1847,-100.04,-74.77,1030.82,-100,627,-429
1512180847,-0.0039,0.0024,0.1774,-60.36,-76.42,969.36,-94,622,-435
1512180847,-0.0411,-0.0586,0.1804,-27.28,-131.35,1030.94,-94,622,-435
1512180847,-0.0483,0.0874,0.1756,-52.43,-142.64,1000.24,-94,622,-435
1512180847,-0.0626,-0.0647,0.1794,-19.17,-122.50,1023.74,-94,622,-435
1512180847,-0.0272,0.0579,0.1799,-55.48,-105.04,962.10,-100,620,-433
1512180847,-0.0304,-0.0407,0.1868,-87.77,-89.66,1028.63,-100,620,-433
1512180847,-0.0469,0.0214,0.1903,-92.47,-53.41,938.66,-100,620,-433
1512180847,-0.0569,-0.0200,0.2005,-60.91,-108.22,1086.43,-100,620,-433
1512180847,-0.0008,0.0550,0.1891,-52.43,-73.85,994.08,-100,620,-433
1512180847,0.0190,-0.0415,0.1933,-59.08,-121.83,1098.69,-108,615,-428
1512180847,-0.0670,0.0236,0.1944,-53.04,-130.92,1019.90,-108,615,-428
1512180847,-0.1131,0.0304,0.1867,-23.68,-112.67,983.83,-108,615,-428
1512180847,-0.0734,-0.0138,0.1925,-56.82,-101.44,1046.88,-108,615,-428
1512180847,-0.0820,0.0358,0.1987,-81.91,-115.97,941.77,-110,617,-426
1512180847,-0.1274,0.0340,0.1983,-110.72,-111.82,1082.89,-110,617,-426
1512180847,-0.0806,-0.0262,0.1972,-98.57,-92.71,1004.15,-110,617,-426
1512180847,0.0035,0.0627,0.1937,-76.78,-111.45,989.01,-110,617,-426
1512180847,0.0218,-0.0574,0.1895,-30.88,-57.31,959.78,-110,617,-426
1512180847,0.0683,0.0767,0.1905,-59.45,-92.96,1003.17,-107,620,-443
1512180847,-0.0197,-0.0382,0.1890,-62.26,-87.59,1100.77,-107,620,-443
1512180847,0.0597,0.0543,0.1864,-29.85,-43.15,1080.75,-107,620,-443
1512180847,0.0601,-0.0341,0.1859,-53.41,-85.75,1017.21,-107,620,-443
1512180848,0.0216,0.0358,0.1816,-15.08,-120.30,915.34,-126,594,-418
1512180848,-0.0161,-0.0166,0.1901,-41.99,-75.38,1019.29,-126,594,-418
1512180848,0.0088,0.0465,0.1917,-80.02,-101.20,987.79,-126,594,-418
1512180848,-0.0391,-0.0020,0.1928,-93.08,-57.43,922.42,-126,594,-418
1512180848,-0.0164,0.0362,0.1921,-59.94,-69.76,990.11,-126,594,-418
1512180848,-0.0134,0.0109,0.2005,-90.15,-86.06,997.50,-114,602,-426
1512180848,0.0059,0.0411,0.1959,-44.25,-106.08,998.47,-114,602,-426
1512180848,-0.0686,-0.0083,0.1911,-34.97,-142.40,1017.33,-114,602,-426
1512180848,-0.0526,0.0558,0.1891,-81.05,-118.71,948.36,-114,602,-426
1512180848,-0.0830,0.0150,0.1887,-66.22,-121.34,906.92,-114,602,-426
1512180848,-0.0449,0.0322,0.1965,-81.60,-91.86,997.86,-122,587,-435
1512180848,-0.0760,0.0285,0.2000,-124.51,-104.37,898.13,-122,587,-435
1512180848,-0.1268,0.0338,0.2000,-123.54,-95.15,997.80,-122,587,-435
1512180848,0.0136,-0.0011,0.1917,-73.55,-93.51,1026.06,-122,587,-435
1512180848,0.1035,0.0457,0.1870,-65.98,-70.31,1045.10,-110,588,-433
1512180848,0.0164,-0.0282,0.1880,-107.48,-98.08,965.33,-110,588,-433
1512180848,-0.0076,0.0575,0.1824,-79.10,-70.86,1018.68,-110,588,-433
1512180848,0.0378,-0.0174,0.1795,-65.00,-83.50,1098.94,-110,588,-433
1512180848,-0.0308,-0.0059,0.1796,-85.14,-105.90,939.51,-110,588,-433
1512180848,0.0152,0.0728,0.1716,-56.27,-114.32,984.44,-121,595,-429
1512180848,-0.0055,-0.0337,0.1804,-109.50,-111.27,1068.05,-121,595,-429
1512180848,-0.0241,0.0045,0.1860,-111.08,-100.59,897.28,-121,595,-429
1512180848,-0.0112,0.0049,0.1794,-90.21,-88.01,1021.91,-121,595,-429
1512180848,-0.0097,-0.0188,0.1860,-123.35,-110.23,965.03,-121,595,-429
1512180848,-0.0435,0.0115,0.1831,-91.19,-70.25,912.48,-130,597,-435
1512180848,0.0154,-0.0029,0.1863,-103.76,-55.05,1091.31,-130,597,-435
1512180848,0.0361,0.0076,0.1847,-97.78,-104.13,945.80,-130,597,-435
1512180848,0.0352,0.0100,0.1840,-75.01,-79.28,1003.30,-130,597,-435
1512180848,0.0451,0.0027,0.1787,-92.16,-66.77,1009.89,-124,567,-426
1512180848,0.0610,-0.0079,0.1742,-84.05,-67.02,1045.29,-124,567,-426
1512180848,0.0443,-0.0083,0.1742,-107.18,-67.38,980.41,-124,567,-426
1512180848,0.0049,-0.0157,0.1798,-102.11,-74.04,1001.53,-124,567,-426
1512180848,0.0300,0.0031,0.1846,-130.31,-81.73,1045.59,-124,567,-426
1512180848,-0.0586,-0.0843,0.1894,-115.78,-110.66,999.45,-142,571,-433
1512180848,0.0083,-0.0079,0.1896,-78.00,-118.29,985.78,-142,571,-433
1512180848,-0.0037,-0.0064,0.1818,-98.02,-150.63,943.36,-142,571,-433
1512180848,-0.0403,-0.0430,0.1807,-78.61,-137.21,968.08,-142,571,-433
1512180848,0.0443,0.0301,0.1844,-85.27,-100.95,1059.81,-142,571,-433
1512180849,0.0533,-0.0707,0.1862,-125.61,-108.52,987.73,-122,580,-421
1512180849,0.0337,0.0447,0.1852,-99.43,-64.03,981.38,-122,580,-421
1512180849,0.0193,-0.0064,0.1795,-96.13,-107.54,1076.84,-122,580,-421
1512180849,-0.0551,-0.0226,0.1790,-97.17,-148.68,930.79,-122,580,-421
1512180849,0.0695,0.0277,0.1840,-83.13,-94.73,1003.23,-133,576,-435
1512180849,-0.0045,-0.0610,0.1887,-107.24,-64.15,1024.35,-133,576,-435
1512180849,0.0250,0.0116,0.1890,-98.57,-118.23,1013.18,-133,576,-435
1512180849,0.0447,-0.0109,0.1909,-119.38,-84.96,995.42,-133,576,-435
1512180849,0.0185,-0.0450,0.1882,-113.71,-70.62,1000.37,-133,576,-435
1512180849,0.0265,-0.0165,0.1807,-76.54,-99.49,979.49,-145,567,-433
1512180849,0.0386,-0.0076,0.1778,-83.07,-110.05,984.37,-145,567,-433
1512180849,0.0413,0.0137,0.1726,-53.22,-94.42,954.77,-145,567,-433
1512180849,0.0369,0.0140,0.1694,-73.06,-138.55,1037.11,-145,567,-433
1512180849,0.0485,0.0509,0.1800,-78.25,-72.81,1003.42,-145,567,-433
1512180849,-0.0434,0.0186,0.1826,-121.83,-49.26,995.06,-137,558,-441
1512180849,-0.0156,-0.0061,0.1916,-96.56,-105.41,1020.87,-137,558,-441
1512180849,0.0060,0.0597,0.1851,-103.58,-54.93,1021.30,-137,558,-441
1512180849,0.0196,-0.0674,0.1921,-127.87,-95.83,1058.96,-137,558,-441
1512180849,0.0144,0.0089,0.1956,-105.77,-103.94,961.43,-137,551,-428
1512180849,-0.0065,0.0044,0.1899,-96.50,-113.34,1052.31,-137,551,-428
1512180849,-0.0189,-0.0240,0.1927,-93.63,-131.23,984.19,-137,551,-428
1512180849,0.0387,0.0529,0.1871,-102.97,-98.57,969.60,-137,551,-428
1512180849,0.0774,0.0294,0.1812,-65.98,-94.24,1048.46,-137,551,-428
1512180849,0.0553,0.0079,0.1770,-60.79,-128.72,1014.40,-140,562,-424
1512180849,0.0127,0.0521,0.1860,-65.67,-79.59,1013.18,-140,562,-424
1512180849,0.0382,0.0293,0.1913,-105.04,-66.77,1023.07,-140,562,-424
1512180849,0.0507,0.0124,0.1908,-112.61,-79.71,1003.48,-140,562,-424
1512180849,0.0590,0.0318,0.1929,-83.25,-89.11,1020.63,-140,562,-424
1512180849,-0.0294,0.0272,0.1919,-110.72,-90.39,1060.67,-138,532,-446
1512180849,-0.0710,-0.0202,0.1908,-82.95,-152.71,949.83,-138,532,-446
1512180849,-0.0028,0.0511,0.1977,-128.54,-101.20,982.54,-138,532,-446
1512180849,-0.0249,-0.0302,0.1948,-137.21,-120.54,972.41,-138,532,-446
1512180849,-0.0924,0.0240,0.1945,-137.51,-153.69,945.19,-137,551,-424
1512180849,-0.0525,0.0446,0.1981,-87.71,-164.49,1031.74,-137,551,-424
1512180849,0.0152,-0.0233,0.1953,-95.03,-118.35,961.18,-137,551,-424
1512180849,-0.0075,0.0260,0.1987,-100.34,-154.85,996.64,-137,551,-424
1512180849,-0.0904,0.0056,0.1999,-129.15,-150.33,967.04,-137,551,-424
1512180849,-0.0683,0.0361,0.1898,-33.20,-190.86,1042.42,-140,530,-421
1512180850,-0.0451,-0.0266,0.1936,-70.37,-163.21,1050.66,-140,530,-421
1512180850,-0.0824,0.0743,0.1929,-128.11,-167.72,974.85,-140,530,-421
1512180850,-0.1348,-0.0469,0.1931,-65.25,-169.43,1090.09,-140,530,-421
1512180850,-0.1217,0.0391,0.1945,-52.49,-156.43,971.98,-149,528,-436
1512180850,-0.1214,0.0149,0.1941,-97.53,-170.84,993.90,-149,528,-436
1512180850,-0.1064,-0.0069,0.1997,-111.51,-100.28,984.68,-149,528,-436
1512180850,-0.0249,0.0144,0.1981,-118.29,-115.91,1043.52,-149,528,-436
1512180850,0.0108,-0.0253,0.2044,-100.16,-119.32,1026.25,-149,528,-436
1512180850,0.0369,0.0080,0.1972,-71.66,-99.67,988.04,-140,534,-421
1512180850,0.0052,0.0012,0.2053,-120.24,-133.97,1055.42,-140,534,-421
1512180850,-0.0141,0.0016,0.1981,-125.92,-171.02,987.37,-140,534,-421
1512180850,-0.0402,0.0067,0.1960,-82.58,-146.79,975.95,-140,534,-421
1512180850,-0.0543,0.0130,0.1925,-86.73,-166.81,971.01,-140,534,-421
1512180850,-0.0332,0.0506,0.1989,-60.42,-186.46,980.35,-133,527,-435
1512180850,-0.0960,0.0308,0.1963,-63.84,-156.56,1010.19,-133,527,-435
1512180850,-0.1403,0.0129,0.2015,-87.77,-165.89,985.17,-133,527,-435
1512180850,-0.0629,0.0321,0.2056,-187.26,-131.71,925.66,-133,527,-435
1512180850,-0.0615,-0.0028,0.2039,-139.40,-132.57,1039.79,-149,521,-426
1512180850,-0.0253,0.0258,0.2001,-150.51,-143.74,1002.75,-149,521,-426
1512180850,0.0268,-0.0056,0.1981,-106.69,-132.87,1001.46,-149,521,-426
1512180850,0.0297,0.0381,0.1892,-86.06,-110.84,995.79,-149,521,-426
1512180850,0.0049,-0.0161,0.1913,-69.89,-154.54,1064.70,-149,521,-426
1512180850,-0.0571,0.0241,0.1933,-86.43,-108.89,927.92,-151,523,-441
1512180850,-0.0205,0.0245,0.1933,-68.54,-117.07,1078.37,-151,523,-441
1512180850,-0.0426,-0.0133,0.1949,-127.81,-119.32,923.03,-151,523,-441
1512180850,-0.0270,0.0368,0.1925,-79.28,-116.76,963.50,-151,523,-441
1512180850,0.0064,0.0025,0.1939,-119.38,-155.82,1049.26,-138,511,-426
1512180850,-0.0290,0.0091,0.1916,-76.48,-123.29,979.06,-138,511,-426
1512180850,-0.0527,0.0425,0.1884,-75.87,-149.96,967.35,-138,511,-426
1512180850,-0.0382,0.0057,0.1935,-125.79,-110.17,1070.68,-138,511,-426
1512180850,-0.0249,0.0268,0.1803,-81.30,-155.33,955.44,-138,511,-426
1512180850,-0.0505,0.0186,0.1859,-76.54,-134.09,1051.88,-151,509,-414
1512180850,-0.0563,0.0214,0.1831,-79.77,-131.04,919.86,-151,509,-414
1512180850,-0.1044,0.0080,0.1838,-108.70,-152.40,982.73,-151,509,-414
1512180850,-0.0049,0.0526,0.1864,-104.74,-151.06,1057.80,-151,509,-414
1512180850,-0.0917,-0.0156,0.1795,-73.79,-171.51,984.99,-151,509,-414
1512180850,-0.0663,0.0121,0.1770,-92.53,-141.42,1021.55,-138,507,-436
1512180851,-0.0621,0.0043,0.1788,-89.48,-140.32,965.58,-138,507,-436
1512180851,-0.0559,0.0254,0.1731,-63.96,-115.36,955.02,-138,507,-436
1512180851,-0.0181,-0.0176,0.1706,-98.75,-117.19,1037.84,-138,507,-436
1512180851,0.0096,0.0035,0.1679,-111.63,-136.35,1007.81,-144,498,-435
1512180851,-0.0549,-0.0250,0.1687,-82.64,-153.38,1028.93,-144,498,-435
1512180851,0.0037,0.0165,0.1684,-63.29,-106.75,1035.16,-144,498,-435
1512180851,0.0269,0.0047,0.1627,-45.23,-110.17,958.56,-144,498,-435
1512180851,0.0474,0.0181,0.1638,-89.23,-98.39,1101.26,-144,498,-435
1512180851,-0.0405,-0.0137,0.1642,-85.45,-110.17,1010.31,-144,498,-438
1512180851,-0.0527,0.0057,0.1637,-132.57,-74.16,990.17,-144,498,-438
1512180851,-0.0326,0.0145,0.1682,-129.70,-68.73,985.35,-144,498,-438
1512180851,-0.0566,-0.0329,0.1583,-113.40,-93.38,978.70,-144,498,-438
1512180851,0.0127,0.0362,0.1543,-140.44,-119.20,995.24,-151,495,-424
1512180851,-0.0181,-0.0401,0.1538,-58.53,-105.10,980.04,-151,495,-424
1512180851,0.0533,0.0152,0.1523,-89.29,-81.91,952.27,-151,495,-424
1512180851,0.0738,0.0068,0.1487,-77.51,-69.52,1078.86,-151,495,-424
1512180851,0.0137,-0.0027,0.1380,-62.50,-65.00,992.37,-151,495,-424
1512180851,-0.0017,-0.0369,0.1382,-67.02,-69.95,1083.98,-147,488,-441
1512180851,-0.0686,0.0043,0.1372,-115.72,-69.64,974.98,-147,488,-441
1512180851,-0.1092,-0.0441,0.1338,-79.22,-76.90,1042.97,-147,488,-441
1512180851,-0.0633,0.0021,0.1262,-122.92,-93.63,964.72,-147,488,-441
1512180851,-0.0052,-0.0013,0.1230,-95.70,-62.56,981.99,-147,488,-441
1512180851,0.0189,-0.0409,0.1242,-83.37,-56.95,1031.31,-137,491,-421
1512180851,0.0152,-0.0043,0.1194,-48.58,-107.48,951.42,-137,491,-421
1512180851,0.0300,-0.0154,0.1212,-54.57,-72.02,1020.02,-137,491,-421
1512180851,0.0039,-0.0093,0.1221,-104.92,-45.84,978.15,-137,491,-421
1512180851,-0.0174,-0.0113,0.1238,-98.63,-84.66,951.66,-142,486,-433
1512180851,-0.0103,0.0230,0.1150,-79.90,-93.75,1025.63,-142,486,-433
1512180851,0.0338,-0.0261,0.1115,-53.96,-68.85,988.46,-142,486,-433
1512180851,0.0169,0.0194,0.0964,-35.10,-97.60,979.06,-142,486,-433
1512180851,0.0708,-0.0055,0.0996,-34.30,-48.77,1021.67,-142,486,-433
1512180851,0.0391,0.0413,0.0905,-97.05,-33.75,1025.45,-142,486,-433
1512180851,0.0157,-0.0471,0.0933,-105.77,-38.64,1048.52,-142,486,-433
1512180851,0.0245,0.0523,0.0887,-108.52,-62.93,963.20,-142,486,-433
1512180851,-0.0049,0.0294,0.0883,-117.19,-64.27,1030.03,-142,486,-433
1512180851,-0.0081,-0.0100,0.0875,-111.21,-71.72,937.13,-142,486,-433
1512180851,0.0463,0.0529,0.0880,-120.12,-68.36,969.18,-138,468,-426
1512180851,0.0643,-0.0072,0.0879,-117.00,-43.58,981.08,-138,468,-426
1512180852,-0.0112,-0.0225,0.0847,-164.55,-42.66,912.66,-138,468,-426
1512180852,0.0048,0.0325,0.0782,-131.84,4.88,1071.29,-138,468,-426
1512180852,0.0142,0.0197,0.0728,-124.76,-20.75,1040.41,-130,474,-435
1512180852,0.0194,-0.0562,0.0674,-121.28,-15.26,1077.76,-130,474,-435
1512180852,0.0525,0.0281,0.0578,-110.17,-1.89,1036.01,-130,474,-435
1512180852,-0.0261,-0.0997,0.0545,-124.69,-20.87,1044.07,-130,474,-435
1512180852,0.0064,-0.0233,0.0450,-98.21,-47.55,999.51,-130,474,-435
1512180852,-0.0031,-0.0051,0.0373,-68.97,-66.41,927.37,-117,468,-440
1512180852,0.0236,-0.0182,0.0381,-106.08,-67.26,1028.69,-117,468,-440
1512180852,-0.0095,-0.0148,0.0407,-111.21,-47.67,984.37,-117,468,-440
1512180852,-0.0093,0.0160,0.0370,-123.17,-30.76,1022.34,-117,468,-440
1512180852,0.0205,-0.0486,0.0406,-148.62,-41.14,1058.53,-117,468,-440
1512180852,-0.0024,-0.0137,0.0374,-112.00,-55.85,932.68,-126,477,-438
1512180852,0.0196,0.0541,0.0372,-104.86,-44.56,1057.86,-126,477,-438
1512180852,0.0213,-0.0530,0.0341,-77.82,-59.81,973.08,-126,477,-438
1512180852,0.0314,0.0597,0.0329,-98.45,-76.97,993.90,-126,477,-438
1512180852,-0.0013,-0.0049,0.0325,-120.24,-76.17,1016.54,-135,465,-436
1512180852,0.0490,0.0107,0.0276,-108.46,-60.67,1069.70,-135,465,-436
1512180852,0.0007,-0.0298,0.0318,-96.13,-53.65,986.51,-135,465,-436
1512180852,-0.0060,-0.0116,0.0309,-103.27,-76.42,981.14,-135,465,-436
1512180852,-0.0664,-0.0238,0.0260,-103.15,-132.32,978.45,-135,465,-436
1512180852,-0.0437,0.0364,0.0234,-111.63,-137.82,945.43,-135,468,-429
1512180852,-0.0537,0.0212,0.0221,-98.33,-131.47,933.96,-135,468,-429
1512180852,-0.0407,0.1035,0.0153,-72.27,-95.21,1015.50,-135,468,-429
1512180852,-0.1039,-0.0228,0.0212,-123.78,-30.33,919.62,-135,468,-429
1512180852,-0.0780,0.0242,0.0289,-171.33,-73.67,1086.73,-142,458,-436
1512180852,-0.0565,0.0340,0.0292,-132.45,-11.60,933.59,-142,458,-436
1512180852,-0.0109,-0.0206,0.0308,-140.01,-78.12,1043.95,-142,458,-436
1512180852,-0.0257,-0.0087,0.0296,-148.01,-108.46,970.76,-142,458,-436
1512180852,-0.0900,-0.0180,0.0214,-95.15,-131.47,1074.58,-142,458,-436
1512180852,-0.0907,-0.0858,0.0297,-123.23,-117.43,997.62,-135,454,-426
1512180852,-0.0686,0.0633,0.0229,-130.80,-93.38,901.43,-135,454,-426
1512180852,-0.1145,-0.0146,0.0190,-97.41,-150.39,1019.35,-135,454,-426
1512180852,-0.0526,-0.0077,0.0245,-151.67,-99.85,968.44,-135,454,-426
1512180852,-0.0077,0.0613,0.0234,-133.06,-82.46,1021.55,-135,454,-426
1512180852,-0.0454,-0.0332,0.0217,-140.14,-109.68,1026.79,-138,465,-426
1512180852,-0.0348,-0.0232,0.0265,-123.90,-103.88,911.93,-138,465,-426
1512180852,-0.0246,0.0728,0.0272,-131.04,-88.62,1009.40,-138,465,-426
1512180853,-0.0457,-0.0666,0.0264,-124.63,-84.29,995.61,-138,465,-426
1512180853,0.1131,0.0325,0.0184,-120.67,-102.29,1000.31,-130,477,-424
1512180853,0.1232,0.0285,0.0178,-98.39,-70.13,994.81,-130,477,-424
1512180853,0.1020,-0.0176,0.0244,-111.39,-59.14,1047.42,-130,477,-424
1512180853,0.0224,0.0017,0.0286,-175.54,-42.18,983.64,-130,477,-424
1512180853,0.0089,-0.0177,0.0226,-146.55,-22.40,995.61,-130,477,-424
1512180853,0.0533,0.0333,0.0240,-163.76,-86.61,1048.10,-138,440,-426
1512180853,-0.0489,-0.0447,0.0222,-147.40,-63.96,939.39,-138,440,-426
1512180853,0.0020,0.0521,0.0306,-109.92,-90.58,1024.78,-138,440,-426
1512180853,0.0487,-0.0342,0.0294,-169.01,-73.00,979.37,-138,440,-426
1512180853,0.0366,-0.0141,0.0288,-137.45,-77.39,928.10,-138,440,-426
1512180853,0.0124,0.0285,0.0216,-126.34,-96.07,994.51,-122,467,-441
1512180853,0.0123,-0.0328,0.0280,-129.64,-47.67,1006.47,-122,467,-441
1512180853,0.0208,0.0174,0.0268,-92.83,-73.55,993.53,-122,467,-441
1512180853,0.0189,0.0411,0.0250,-118.23,-54.75,1022.40,-122,467,-441
1512180853,0.0422,-0.0289,0.0229,-132.45,-60.79,1016.42,-131,472,-419
1512180853,0.0270,0.0366,0.0273,-105.35,-63.96,1040.59,-131,472,-419
1512180853,0.0144,-0.0364,0.0210,-63.29,-62.38,1052.67,-131,472,-419
1512180853,0.0264,0.0402,0.0260,-109.37,-38.09,983.09,-131,472,-419
1512180853,-0.0337,-0.0116,0.0269,-130.37,-81.12,1022.52,-131,472,-419
1512180853,-0.0660,-0.0142,0.0285,-98.63,-81.18,970.52,-133,481,-424
1512180853,-0.1314,0.0107,0.0273,-92.41,-110.11,1005.92,-133,481,-424
1512180853,-0.0995,0.0087,0.0332,-81.42,-122.99,998.78,-133,481,-424
1512180853,-0.0507,0.0225,0.0304,-79.90,-130.74,967.47,-133,481,-424
1512180853,-0.0108,0.0193,0.0366,-62.87,-80.38,953.86,-138,458,-436
1512180853,-0.0297,0.0402,0.0344,-59.81,-84.23,966.31,-138,458,-436
1512180853,0.0226,0.0095,0.0360,-115.97,-22.89,1072.45,-138,458,-436
1512180853,0.0336,0.0193,0.0349,-105.65,-32.96,963.62,-138,458,-436
1512180853,0.0025,0.0627,0.0431,-120.24,-52.06,1096.56,-138,458,-436
1512180853,0.0603,-0.0332,0.0462,-87.22,-34.73,1013.06,-137,463,-431
1512180853,0.1024,0.0720,0.0470,-101.56,-45.17,1063.42,-137,463,-431
1512180853,0.1075,-0.0297,0.0469,-95.34,-17.52,1009.70,-137,463,-431
1512180853,0.0222,0.0373,0.0450,-37.54,-51.33,979.37,-137,463,-431
1512180853,0.0365,0.0093,0.0558,-80.44,-20.08,997.86,-137,463,-431
1512180853,0.0372,0.0136,0.0543,-71.66,-36.25,946.29,-137,453,-428
1512180853,0.0899,0.0064,0.0696,-56.88,-27.34,988.71,-137,453,-428
1512180853,0.0555,0.0418,0.0603,-70.80,-83.68,969.91,-137,453,-428
1512180854,0.0595,-0.0233,0.0715,-90.88,-90.70,933.72,-137,453,-428
1512180854,0.1069,-0.0037,0.0722,-96.56,-84.53,1002.20,-158,435,-428
1512180854,0.1025,0.0181,0.0859,-109.37,-59.14,988.34,-158,435,-428
1512180854,-0.0108,-0.0704,0.0884,-116.09,-53.71,947.57,-158,435,-428
1512180854,0.0714,-0.0027,0.0971,-137.33,-20.26,979.68,-158,435,-428
1512180854,-0.0337,-0.0603,0.0949,-76.35,-86.00,1003.23,-158,435,-428
1512180854,-0.1169,-0.0598,0.0968,-44.01,-108.89,922.61,-145,440,-433
1512180854,0.0233,-0.0138,0.1019,-76.72,-74.16,995.79,-145,440,-433
1512180854,-0.0210,-0.0340,0.1043,-79.10,-118.77,997.01,-145,440,-433
1512180854,-0.0776,-0.0435,0.0973,-14.28,-159.30,962.77,-145,440,-433
1512180854,0.0523,0.0474,0.1103,-59.94,-132.87,1053.83,-145,440,-433
1512180854,-0.0553,-0.0924,0.1145,-50.35,-119.02,948.91,-147,456,-438
1512180854,0.0016,0.0353,0.1228,-14.83,-118.59,1063.17,-147,456,-438
1512180854,0.0575,-0.0065,0.1278,-38.39,-122.38,1053.71,-147,456,-438
1512180854,0.0482,-0.0391,0.1425,-63.54,-74.04,1016.91,-147,456,-438
1512180854,0.1561,0.0274,0.1441,-80.75,-39.92,992.68,-151,435,-438
1512180854,0.1337,-0.0487,0.1407,-79.41,-38.39,1011.60,-151,435,-438
1512180854,0.1791,-0.0465,0.1514,-61.28,-69.76,1003.17,-151,435,-438
1512180854,0.1702,0.0177,0.1514,-43.15,-55.30,1039.00,-151,435,-438
1512180854,0.1337,-0.0495,0.1686,-77.39,-33.81,1030.21,-151,435,-438
1512180854,0.0507,0.0145,0.1635,-45.10,-57.31,942.20,-158,438,-445
1512180854,0.1185,0.0290,0.1708,-22.46,-47.24,1044.98,-158,438,-445
1512180854,0.1136,-0.0172,0.1678,-20.39,-89.23,944.64,-158,438,-445
1512180854,0.0531,0.0274,0.1743,-58.72,-123.41,908.63,-158,438,-445
1512180854,0.0257,0.0221,0.1850,-104.19,-104.98,1016.48,-158,438,-445
1512180854,-0.0051,0.1433,0.1851,-44.68,-65.25,928.83,-149,423,-440
1512180854,-0.0795,-0.0150,0.1921,-54.26,-124.76,1078.13,-149,423,-440
1512180854,0.0136,0.0509,0.1969,-67.63,-77.64,944.70,-149,423,-440
1512180854,-0.0527,0.0173,0.2079,-75.56,-123.78,976.56,-149,423,-440
1512180854,-0.1296,-0.0411,0.2115,-87.04,-126.22,971.44,-137,414,-431
1512180854,0.0129,0.0447,0.2154,-93.51,-68.79,988.22,-137,414,-431
1512180854,-0.0373,-0.0531,0.2100,-4.52,-195.62,991.27,-137,414,-431
1512180854,-0.0634,0.0498,0.2037,54.50,-201.05,984.99,-137,414,-431
1512180854,-0.0253,0.0091,0.2097,-26.98,-201.97,1009.64,-137,414,-431
1512180854,-0.1337,-0.0429,0.2056,-26.86,-164.12,987.06,-147,400,-438
1512180854,-0.0670,0.0858,0.2061,48.28,-145.75,1043.27,-147,400,-438
1512180854,-0.0621,-0.0256,0.2040,-11.17,-165.34,946.23,-147,400,-438
1512180854,-0.0190,0.0451,0.2124,-43.09,-137.08,988.95,-147,400,-438
1512180855,-0.0193,0.0594,0.2184,-43.33,-114.81,1041.81,-138,405,-443
1512180855,-0.0507,-0.0310,0.2322,-79.22,-117.19,965.82,-138,405,-443
1512180855,-0.0386,0.0461,0.2320,-92.10,-125.49,893.49,-138,405,-443
1512180855,-0.0112,0.0752,0.2277,0.79,-132.81,1078.06,-138,405,-443
1512180855,0.0209,-0.0328,0.2313,-20.08,-170.72,1035.58,-138,405,-443
1512180855,-0.0091,0.0457,0.2242,-5.19,-185.24,914.79,-114,409,-423
1512180855,0.0345,0.0784,0.2260,-67.38,-103.45,976.01,-114,409,-423
1512180855,0.0672,0.0031,0.2230,14.83,-126.16,951.66,-114,409,-423
1512180855,0.1217,0.1032,0.2277,-30.76,-51.94,1077.03,-114,409,-423
1512180855,0.0943,0.0354,0.2366,-81.24,-39.92,1046.94,-114,409,-423
1512180855,-0.0244,-0.0419,0.2345,-31.80,-73.18,1046.45,-137,400,-441
1512180855,0.0109,0.0759,0.2356,-115.11,-29.54,1089.60,-137,400,-441
1512180855,-0.0776,-0.0622,0.2478,-88.99,-13.18,991.70,-137,400,-441
1512180855,-0.0361,0.0188,0.2385,-22.95,-86.06,1036.99,-137,400,-441
1512180855,-0.0337,-0.0410,0.2433,-61.34,-120.12,1090.39,-135,394,-433
1512180855,-0.0979,-0.0228,0.2360,-14.83,-191.35,920.41,-135,394,-433
1512180855,-0.0361,0.0237,0.2483,9.52,-148.01,920.47,-135,394,-433
1512180855,-0.0458,0.0289,0.2498,2.44,-215.27,933.65,-135,394,-433
1512180855,-0.0727,0.0112,0.2570,-56.40,-151.55,911.07,-135,394,-433
1512180855,-0.0177,-0.0063,0.2651,-49.74,-128.23,1044.74,-108,396,-428
1512180855,-0.0209,0.0337,0.2603,-83.31,-149.23,1017.94,-108,396,-428
1512180855,-0.0851,-0.0402,0.2603,38.57,-94.85,1026.00,-108,396,-428
1512180855,-0.0563,0.0332,0.2654,-27.10,-113.10,1043.27,-108,396,-428
1512180855,-0.0907,-0.0003,0.2659,-65.37,-58.53,955.08,-108,396,-428
1512180855,-0.0072,-0.0410,0.2577,-23.93,-93.20,1028.32,-105,393,-424
1512180855,-0.0130,-0.0257,0.2553,-61.65,-140.69,950.26,-105,393,-424
1512180855,-0.1128,-0.0462,0.2578,-28.44,-126.77,986.21,-105,393,-424
1512180855,-0.0927,-0.0124,0.2569,-0.73,-87.52,962.22,-105,393,-424
1512180855,-0.1041,-0.0200,0.2545,-21.55,-163.94,1133.30,-115,368,-435
1512180855,-0.0923,-0.0105,0.2579,-33.69,-120.06,1045.84,-115,368,-435
1512180855,0.0229,0.0655,0.2625,-36.62,-106.51,1177.12,-115,368,-435
1512180855,0.0782,0.0397,0.2607,29.79,-161.62,1123.41,-115,368,-435
1512180855,-0.0065,-0.0807,0.2712,-35.89,-133.85,1063.54,-115,368,-435
1512180855,0.0752,0.0619,0.2682,6.90,-112.61,978.76,-89,391,-426
1512180855,-0.0113,-0.1144,0.2787,-17.82,-70.13,1051.15,-89,391,-426
1512180855,0.0854,0.0711,0.2767,-70.68,-128.11,1040.95,-89,391,-426
1512180855,0.0409,-0.0783,0.2680,1.59,-123.54,975.77,-89,391,-426
1512180855,0.0834,0.0165,0.2671,19.84,-170.04,1022.83,-89,391,-426
1512180856,-0.0157,0.0401,0.2629,45.10,-156.98,1100.83,-98,368,-431
1512180856,0.0296,0.0007,0.2643,-13.55,-128.91,1002.93,-98,368,-431
1512180856,0.1012,0.0956,0.2742,-66.83,-120.54,1015.44,-98,368,-431
1512180856,0.1599,0.1197,0.2610,-0.37,-86.00,1041.50,-98,368,-431
1512180856,0.1304,-0.0329,0.2634,-13.85,-145.14,983.76,-72,366,-433
1512180856,0.0499,0.1843,0.2690,-33.63,-107.60,966.25,-72,366,-433
1512180856,-0.0154,0.0874,0.2664,-24.84,-132.32,1030.15,-72,366,-433
1512180856,-0.0901,0.0218,0.2720,-52.80,-216.55,853.27,-72,366,-433
1512180856,-0.0498,0.1505,0.2808,-119.63,-112.12,920.84,-72,366,-433
1512180856,-0.1655,0.1008,0.2803,-87.95,-96.31,1077.82,-79,370,-436
1512180856,-0.2105,-0.0901,0.2927,-146.91,-160.89,1030.33,-79,370,-436
1512180856,-0.0876,0.1055,0.2949,-73.97,-210.75,1063.66,-79,370,-436
1512180856,-0.0727,-0.0208,0.2964,-22.95,-116.46,1064.82,-79,370,-436
1512180856,-0.1233,-0.2409,0.3032,-56.95,-206.85,997.31,-79,370,-436
1512180856,0.0001,0.1270,0.2913,2.20,-127.87,936.04,-77,368,-438
1512180856,-0.0521,-0.1570,0.2907,-21.12,-205.38,1246.09,-77,368,-438
1512180856,0.0341,-0.0656,0.2860,14.83,-167.97,872.44,-77,368,-438
1512180856,-0.0266,0.0017,0.2947,43.82,-144.41,1057.68,-77,368,-438
1512180856,0.0254,-0.0617,0.3027,8.48,-171.81,939.70,-70,357,-414
1512180856,-0.1234,-0.0317,0.3075,6.35,-177.55,932.98,-70,357,-414
1512180856,-0.0390,0.0595,0.3216,-57.19,-113.59,971.50,-70,357,-414
1512180856,-0.1349,-0.0537,0.3185,23.74,-234.19,1002.38,-70,357,-414
1512180856,-0.1256,0.0487,0.3265,36.44,-244.57,953.98,-70,357,-414
1512180856,-0.0818,-0.0380,0.3270,-11.72,-237.49,928.77,-66,350,-431
1512180856,-0.1293,0.0266,0.3349,29.30,-271.36,1057.92,-66,350,-431
1512180856,-0.1162,0.0577,0.3180,35.46,-241.46,1049.19,-66,350,-431
1512180856,-0.0700,-0.0089,0.3131,118.96,-303.65,962.89,-66,350,-431
1512180856,-0.0989,0.0475,0.3241,9.22,-232.18,980.90,-65,349,-433
1512180856,-0.0840,0.0318,0.3237,30.21,-187.01,880.13,-65,349,-433
1512180856,-0.0772,-0.0599,0.3447,-66.65,-134.09,956.97,-65,349,-433
1512180856,0.0230,0.0699,0.3467,-33.02,-96.44,936.65,-65,349,-433
1512180856,-0.0298,-0.0314,0.3535,-6.90,-125.06,974.55,-65,349,-433
1512180856,0.1009,0.0180,0.3529,15.87,-164.31,1022.03,-63,333,-435
1512180856,0.0636,0.0137,0.3573,-4.15,-156.31,1038.51,-63,333,-435
1512180856,-0.0340,-0.0465,0.3557,-27.47,-219.48,976.26,-63,333,-435
1512180856,-0.0886,0.0164,0.3546,46.57,-226.75,974.91,-63,333,-435
1512180856,-0.0558,0.0655,0.3543,53.04,-168.58,935.91,-63,333,-435
1512180856,-0.0189,-0.0087,0.3602,46.75,-169.43,1023.38,-65,331,-429
1512180857,0.0013,0.0880,0.3535,44.86,-217.59,980.53,-65,331,-429
1512180857,-0.0836,0.0229,0.3586,53.16,-222.72,1072.94,-65,331,-429
1512180857,-0.0642,0.0252,0.3595,-14.89,-194.15,975.71,-65,331,-429
1512180857,-0.0406,0.0799,0.3614,5.43,-111.27,1017.03,-65,331,-429
1512180857,0.0226,0.0044,0.3666,-8.12,-122.38,1039.79,-56,336,-435
1512180857,0.0690,0.0415,0.3719,32.41,-117.07,1017.70,-56,336,-435
1512180857,0.0819,-0.0053,0.3686,31.92,-141.78,986.76,-56,336,-435
1512180857,0.0284,0.0009,0.3784,-11.05,-148.68,1018.07,-56,336,-435
1512180857,0.0173,0.0652,0.3796,42.66,-141.05,904.54,-56,315,-428
1512180857,-0.0233,0.0124,0.3798,19.04,-190.31,1093.75,-56,315,-428
1512180857,-0.0051,0.0095,0.3834,43.40,-151.12,1021.12,-56,315,-428
1512180857,-0.0157,0.0744,0.3782,106.08,-179.87,1021.79,-56,315,-428
1512180857,-0.0373,-0.0607,0.3911,34.30,-167.05,1010.07,-56,315,-428
1512180857,0.0455,0.0983,0.3828,36.44,-207.46,905.88,-31,343,-441
1512180857,-0.0908,0.0041,0.3928,55.24,-176.57,1049.50,-31,343,-441
1512180857,-0.0724,0.0244,0.3964,47.30,-165.41,986.21,-31,343,-441
1512180857,0.0192,0.0370,0.3945,5.80,-139.34,1024.23,-31,343,-441
1512180857,-0.0224,-0.0269,0.3965,32.10,-197.39,1016.30,-19,331,-433
1512180857,0.0346,0.0798,0.3979,38.45,-149.41,958.56,-19,331,-433
1512180857,-0.0101,-0.0418,0.4081,2.14,-181.76,954.83,-19,331,-433
1512180857,0.0569,0.0446,0.4097,2.87,-122.62,989.32,-19,331,-433
1512180857,0.0748,0.0121,0.4143,27.47,-120.54,1015.81,-19,331,-433
1512180857,0.0615,-0.0450,0.4188,-56.82,-120.24,976.50,-21,315,-438
1512180857,0.1031,0.0481,0.4085,30.64,-152.71,996.09,-21,315,-438
1512180857,0.1497,-0.0764,0.4111,45.04,-125.49,1088.01,-21,315,-438
1512180857,0.1593,0.0429,0.4140,-3.85,-177.49,944.95,-21,315,-438
1512180857,0.0715,-0.0314,0.4117,64.58,-160.52,1076.54,-21,315,-438
1512180857,0.0316,-0.0099,0.4131,-0.18,-163.09,935.97,5,310,-446
1512180857,0.0274,0.0137,0.4169,47.24,-178.65,955.26,5,310,-446
1512180857,0.0071,0.0403,0.4151,68.42,-166.87,1036.44,5,310,-446
1512180857,-0.0276,-0.0158,0.4201,3.97,-155.70,1093.51,5,310,-446
1512180857,-0.0792,0.0008,0.4156,53.89,-177.80,946.53,5,303,-429
1512180857,0.0262,-0.0274,0.4270,20.14,-164.79,1097.53,5,303,-429
1512180857,-0.0415,0.0423,0.4200,47.18,-219.24,968.32,5,303,-429
1512180857,-0.1011,-0.0901,0.4285,38.88,-149.72,1043.58,5,303,-429
1512180857,0.0523,0.0658,0.4248,84.23,-203.12,990.72,5,303,-429
1512180857,0.0162,0.0194,0.4258,26.06,-178.59,1005.19,15,303,-453
1512180857,-0.0803,-0.0261,0.4252,79.65,-216.80,981.26,15,303,-453
1512180858,0.0073,0.0707,0.4309,16.97,-187.93,1090.82,15,303,-453
1512180858,-0.0506,-0.0063,0.4354,94.18,-161.62,977.97,15,303,-453
1512180858,-0.0751,0.0148,0.4390,159.42,-161.74,1067.69,15,303,-453
1512180858,-0.0128,0.0991,0.4461,65.80,-185.30,1038.02,29,313,-440
1512180858,-0.1322,-0.0936,0.4555,68.30,-174.56,968.14,29,313,-440
1512180858,-0.0029,0.1000,0.4507,66.71,-208.19,1005.98,29,313,-440
1512180858,-0.1614,-0.0204,0.4587,18.98,-273.32,1011.96,29,313,-440
1512180858,-0.2096,0.0413,0.4543,73.61,-259.70,932.92,38,294,-428
1512180858,-0.0478,0.0581,0.4599,65.67,-172.55,1097.41,38,294,-428
1512180858,-0.1459,0.0313,0.4623,9.77,-247.25,995.24,38,294,-428
1512180858,-0.1756,0.0047,0.4602,97.35,-173.34,936.58,38,294,-428
1512180858,-0.0597,0.0268,0.4618,46.14,-188.42,1094.85,38,294,-428
1512180858,-0.0959,0.0017,0.4679,29.48,-186.95,997.80,50,306,-446
1512180858,-0.0955,0.0646,0.4594,88.07,-177.55,947.81,50,306,-446
1512180858,-0.0943,-0.0225,0.4679,59.63,-197.75,1050.54,50,306,-446
1512180858,-0.1088,0.0787,0.4611,64.27,-202.51,917.97,50,306,-446
1512180858,-0.0995,0.0079,0.4696,44.56,-188.78,1107.73,52,301,-441
1512180858,-0.0603,0.0514,0.4623,33.45,-167.97,901.98,52,301,-441
1512180858,0.0330,0.0108,0.4634,38.27,-161.80,1042.72,52,301,-441
1512180858,0.0806,0.0150,0.4630,32.29,-155.82,918.82,52,301,-441
1512180858,0.0627,-0.0330,0.4511,40.77,-157.35,1046.39,52,301,-441
1512180858,0.0506,0.0391,0.4561,70.68,-157.35,1039.55,77,294,-431
1512180858,0.0157,0.0112,0.4469,133.85,-146.42,1068.48,77,294,-431
1512180858,0.0747,0.0234,0.4554,92.22,-185.61,1076.72,77,294,-431
1512180858,-0.1185,0.0095,0.4696,71.90,-147.40,955.51,77,294,-431
1512180858,-0.0945,0.0457,0.4694,58.11,-204.28,1021.61,77,294,-431
1512180858,-0.1687,-0.0194,0.4708,50.17,-170.41,926.03,87,283,-428
1512180858,-0.0752,0.0897,0.4627,40.22,-202.58,987.43,87,283,-428
1512180858,-0.0740,-0.0322,0.4615,109.99,-215.45,1047.55,87,283,-428
1512180858,-0.0410,0.0397,0.4626,65.19,-192.50,918.09,87,283,-428
1512180858,0.0812,0.0421,0.4550,84.59,-189.21,1041.56,105,301,-445
1512180858,0.0076,-0.0812,0.4574,38.70,-180.24,970.28,105,301,-445
1512180858,0.0623,0.0680,0.4565,51.33,-176.27,974.06,105,301,-445
1512180858,0.0454,-0.0264,0.4573,32.35,-158.33,951.78,105,301,-445
1512180858,0.0325,-0.0111,0.4634,47.42,-183.41,957.34,105,301,-445
1512180858,0.0664,0.0518,0.4649,73.49,-160.22,937.62,101,301,-424
1512180858,0.0373,-0.0061,0.4750,34.55,-166.44,988.16,101,301,-424
1512180859,0.0177,0.0075,0.4764,59.75,-186.58,955.20,101,301,-424
1512180859,-0.0117,0.1076,0.4723,85.27,-223.14,965.03,101,301,-424
1512180859,0.0245,-0.0442,0.4800,54.57,-205.69,1067.87,128,303,-429
1512180859,0.0308,0.0454,0.4751,90.45,-214.72,1041.14,128,303,-429
1512180859,0.0045,0.0061,0.4798,37.35,-189.58,1020.63,128,303,-429
1512180859,-0.0197,0.0097,0.4767,83.13,-193.05,1064.51,128,303,-429
1512180859,-0.0373,0.0463,0.4798,40.65,-178.59,997.44,128,303,-429
1512180859,-0.0635,0.0422,0.4707,64.51,-199.04,990.84,124,306,-423
1512180859,-0.0537,-0.0024,0.4799,35.64,-183.47,965.64,124,306,-423
1512180859,-0.0453,0.0836,0.4766,18.13,-165.83,1015.20,124,306,-423
1512180859,-0.1356,-0.0475,0.4763,117.86,-204.59,918.70,124,306,-423
1512180859,-0.0075,0.0811,0.4767,47.97,-183.35,934.94,124,306,-423
1512180859,-0.1322,-0.0282,0.4791,59.39,-256.77,954.28,135,292,-416
1512180859,-0.2467,-0.0016,0.4682,41.87,-165.65,929.99,135,292,-416
1512180859,-0.1241,0.0602,0.4804,-9.83,-241.39,1005.68,135,292,-416
1512180859,-0.3027,-0.0128,0.4650,103.09,-248.47,901.12,135,292,-416
1512180859,-0.1912,0.0503,0.4730,71.84,-246.77,1120.42,154,312,-421
1512180859,-0.2714,-0.0039,0.4696,29.54,-265.20,893.01,154,312,-421
1512180859,-0.2121,0.0040,0.4708,49.74,-134.03,1017.33,154,312,-421
1512180859,-0.1736,0.0376,0.4740,24.72,-215.39,916.87,154,312,-421
1512180859,-0.1995,0.0144,0.4571,105.10,-215.33,921.87,154,312,-421
1512180859,-0.1127,0.0670,0.4742,146.36,-262.63,1100.95,151,319,-414
1512180859,-0.1236,0.0470,0.4710,12.21,-166.93,912.35,151,319,-414
1512180859,-0.0972,-0.0670,0.4703,2.44,-207.52,997.56,151,319,-414
1512180859,-0.0269,0.0828,0.4590,12.02,-192.20,928.04,151,319,-414
1512180859,-0.0638,-0.0011,0.4663,13.79,-192.14,984.80,151,319,-414
1512180859,0.0216,-0.0591,0.4702,31.19,-106.02,1018.13,177,327,-416
1512180859,0.1040,0.1538,0.4539,24.72,-149.11,1092.71,177,327,-416
1512180859,-0.0031,-0.1000,0.4653,-69.89,-121.22,972.66,177,327,-416
1512180859,0.0614,0.0996,0.4591,16.72,-132.75,1034.42,177,327,-416
1512180859,0.1113,0.0490,0.4549,119.26,-96.19,1103.03,184,324,-413
1512180859,0.0774,-0.1072,0.4579,29.85,-125.18,973.45,184,324,-413
1512180859,0.1731,0.0771,0.4577,32.78,-148.01,988.89,184,324,-413
1512180859,0.0796,-0.0177,0.4483,49.62,-162.60,990.05,184,324,-413
1512180859,0.0687,-0.0522,0.4554,49.50,-101.81,987.24,184,324,-413
1512180859,0.1369,0.0907,0.4487,59.02,-127.08,1004.27,205,324,-402
1512180859,-0.0269,-0.0522,0.4533,27.22,-161.32,904.11,205,324,-402
1512180859,0.0688,0.0430,0.4565,-2.08,-145.63,1012.15,205,324,-402
1512180860,0.0907,0.0112,0.4509,59.51,-127.56,1057.13,205,324,-402
1512180860,-0.0326,-0.0387,0.4466,34.00,-227.97,1008.42,205,324,-402
1512180860,-0.0096,-0.0161,0.4557,70.56,-146.79,915.04,200,350,-418
1512180860,-0.0173,0.0184,0.4429,32.23,-199.40,1064.88,200,350,-418
1512180860,-0.0675,-0.0531,0.4438,22.58,-160.95,962.46,200,350,-418
1512180860,-0.0173,0.0225,0.4310,88.81,-151.73,946.23,200,350,-418
1512180860,-0.0096,0.0194,0.4378,-1.53,-174.74,1082.82,219,352,-426
1512180860,-0.0762,-0.0305,0.4284,12.39,-145.94,948.85,219,352,-426
1512180860,-0.0893,-0.0103,0.4433,-8.48,-126.65,1089.90,219,352,-426
1512180860,-0.0983,0.0241,0.4372,19.23,-156.31,939.58,219,352,-426
1512180860,-0.1662,-0.0529,0.4325,121.58,-213.38,1015.01,219,352,-426
1512180860,-0.0667,0.0233,0.4376,87.04,-214.42,979.98,228,354,-418
1512180860,-0.1129,-0.0136,0.4324,31.25,-240.11,1030.15,228,354,-418
1512180860,-0.1340,-0.1123,0.4329,51.64,-173.16,943.97,228,354,-418
1512180860,-0.0161,0.0625,0.4281,46.39,-219.54,1045.47,228,354,-418
1512180860,-0.0827,-0.0752,0.4265,9.09,-263.85,995.42,233,352,-416
1512180860,-0.0590,-0.0230,0.4273,118.65,-135.01,1079.96,233,352,-416
1512180860,-0.1135,0.0154,0.4176,88.01,-273.19,964.66,233,352,-416
1512180860,-0.1184,-0.1160,0.4288,27.89,-226.14,887.27,233,352,-416
1512180860,0.0063,0.1499,0.4268,19.35,-200.56,959.23,233,352,-416
1512180860,-0.1148,-0.0450,0.4157,67.81,-225.83,986.27,230,366,-419
1512180860,-0.0549,-0.0252,0.4288,46.08,-262.88,988.22,230,366,-419
1512180860,-0.0297,0.1630,0.4276,-2.20,-182.37,1010.68,230,366,-419
1512180860,-0.1799,-0.0945,0.4336,22.95,-223.94,977.17,230,366,-419
1512180860,-0.1362,0.0927,0.4272,19.59,-265.38,882.32,230,366,-419
1512180860,-0.0917,-0.0103,0.4308,-39.67,-192.63,878.23,245,371,-428
1512180860,-0.0385,-0.0033,0.4292,-85.63,-99.85,1081.79,245,371,-428
1512180860,0.0451,-0.0736,0.4124,-73.30,-174.07,897.58,245,371,-428
1512180860,0.1201,0.0888,0.4148,62.19,-154.17,1126.59,245,371,-428
1512180860,0.1704,0.0585,0.4135,46.45,-165.28,1028.93,249,382,-421
1512180860,0.0843,-0.0859,0.4151,26.00,-145.14,1119.20,249,382,-421
1512180860,0.2676,0.1650,0.4048,54.99,-178.04,1130.07,249,382,-421
1512180860,0.1451,0.0233,0.4041,117.98,-201.05,1108.70,249,382,-421
1512180860,0.1807,-0.0451,0.4175,-42.97,-117.49,946.23,249,382,-421
1512180860,0.2931,0.1168,0.4204,-29.72,-73.00,982.60,245,400,-421
1512180860,0.1621,-0.1364,0.4270,-5.55,-102.11,1123.66,245,400,-421
1512180860,0.2040,-0.0312,0.4178,-67.93,-68.97,935.00,245,400,-421
1512180860,0.1505,-0.0919,0.4225,-32.78,-111.33,1076.66,245,400,-421
1512180861,0.0318,-0.1372,0.4202,-35.95,-131.90,991.27,245,400,-421
1512180861,0.0718,-0.0028,0.4133,-22.71,-133.00,1114.69,265,398,-429
1512180861,-0.1349,-0.1618,0.4083,30.70,-198.85,1125.12,265,398,-429
1512180861,-0.0293,-0.0903,0.4103,88.87,-102.11,1000.37,265,398,-429
1512180861,0.0008,-0.0748,0.4037,16.36,-167.91,1205.38,265,398,-429
1512180861,0.0003,-0.1629,0.3883,24.05,-121.64,1059.88,272,409,-433
1512180861,-0.0570,-0.0623,0.3847,48.65,-208.01,1035.77,272,409,-433
1512180861,0.0322,-0.0419,0.3931,22.83,-189.09,1129.09,272,409,-433
1512180861,0.0529,-0.1378,0.3871,108.40,-203.67,913.21,272,409,-433
1512180861,0.0185,0.0368,0.3951,172.36,-276.98,1168.88,272,409,-433
1512180861,-0.1593,-0.1463,0.3906,-121.64,-297.79,879.52,277,410,-428
1512180861,-0.1638,-0.1415,0.3900,135.13,-242.31,754.09,277,410,-428
1512180861,0.1065,-0.0031,0.4338,-45.72,-223.94,946.29,277,410,-428
1512180861,0.1000,0.2316,0.3830,39.25,-261.29,1071.29,277,410,-428
1512180861,-0.0932,-0.2272,0.4105,63.54,-271.61,1041.44,277,410,-428
1512180861,0.0221,0.2386,0.3991,30.40,-237.98,954.47,281,417,-428
1512180861,-0.0173,-0.0225,0.3883,32.10,-222.23,1012.27,281,417,-428
1512180861,0.0214,0.0130,0.3985,22.34,-204.65,994.26,281,417,-428
1512180861,0.0651,0.1127,0.3951,44.43,-273.19,1095.76,281,417,-428
1512180861,-0.0792,0.0490,0.3814,48.65,-311.40,1039.92,279,440,-426
1512180861,-0.0652,0.0575,0.3824,56.95,-380.55,1073.36,279,440,-426
1512180861,-0.0127,0.1330,0.3511,67.32,-282.96,1051.51,279,440,-426
1512180861,0.0112,-0.0738,0.3589,-40.16,-238.71,1003.78,279,440,-426
1512180861,0.1747,0.0844,0.3606,27.89,-175.11,900.09,279,440,-426
1512180861,0.0874,0.0989,0.3631,-80.38,-249.08,1035.77,281,431,-421
1512180861,-0.0750,-0.0157,0.3369,-134.77,-127.44,860.29,281,431,-421
1512180861,0.0170,0.0614,0.3694,-99.30,-118.10,1034.55,281,431,-421
1512180861,0.0044,0.0594,0.3747,-146.61,-86.55,1020.26,281,431,-421
1512180861,-0.1148,-0.1068,0.3680,-83.98,-115.84,873.05,281,431,-421
1512180861,-0.0352,0.1601,0.3654,-116.58,-171.02,1120.12,288,438,-424
1512180861,-0.1566,-0.1185,0.3554,-74.28,-166.63,980.47,288,438,-424
1512180861,-0.0491,-0.0238,0.3397,-5.92,-211.79,1054.20,288,438,-424
1512180861,-0.0815,-0.0069,0.3306,-47.73,-227.66,1073.30,288,438,-424
1512180861,-0.1241,-0.0281,0.3075,93.57,-222.96,1011.66,303,458,-419
1512180861,-0.0326,-0.0606,0.3116,4.64,-231.51,1077.45,303,458,-419
1512180861,-0.0567,0.0443,0.2943,-40.41,-226.87,963.68,303,458,-419
1512180861,-0.0119,-0.0422,0.2941,-26.55,-109.92,1187.32,303,458,-419
1512180861,0.0904,0.0008,0.2915,-141.72,-149.41,1069.64,303,458,-419
1512180862,0.0443,-0.0778,0.2759,-28.32,-105.83,1022.52,298,453,-428
1512180862,0.0523,0.0012,0.2738,-146.61,-170.17,1118.16,298,453,-428
1512180862,-0.0494,-0.0120,0.2594,-62.87,-161.19,879.27,298,453,-428
1512180862,-0.0059,-0.0674,0.2549,-55.54,-188.90,1024.72,298,453,-428
1512180862,0.1708,0.0206,0.2426,-62.56,-196.59,941.04,298,453,-428
1512180862,0.1145,0.0092,0.2169,-17.46,-233.22,900.21,286,468,-423
1512180862,0.1000,0.0399,0.2116,0.00,-210.21,1047.73,286,468,-423
1512180862,0.0939,0.0703,0.2104,-48.46,-182.19,987.30,286,468,-423
1512180862,0.0518,0.0152,0.2003,-68.54,-181.88,990.84,286,468,-423
1512180862,0.0784,0.0640,0.1856,-84.66,-113.34,1026.61,300,458,-423
1512180862,0.1407,0.0340,0.1920,-95.46,-104.37,1128.05,300,458,-423
1512180862,-0.0364,0.0085,0.1811,-84.47,-131.35,1057.98,300,458,-423
1512180862,0.0336,0.1185,0.1707,-52.00,-107.79,990.84,300,458,-423
1512180862,0.0035,-0.0162,0.1646,-97.29,-109.01,1069.76,300,458,-423
1512180862,0.0475,0.0461,0.1505,-117.86,-156.56,1068.36,298,467,-435
1512180862,0.0423,0.0282,0.1445,-68.36,-131.71,1050.48,298,467,-435
1512180862,0.0286,0.0081,0.1447,-98.88,-152.22,1031.13,298,467,-435
1512180862,0.0800,0.0149,0.1377,-92.16,-141.91,940.61,298,467,-435
1512180862,0.0668,0.0566,0.1304,-58.84,-164.31,1039.25,298,467,-435
1512180862,0.0265,0.0119,0.1324,-87.65,-159.97,948.30,312,477,-438
1512180862,0.0093,0.0269,0.1328,-111.57,-162.78,1024.48,312,477,-438
1512180862,0.0704,0.0245,0.1238,-115.42,-135.01,1020.20,312,477,-438
1512180862,0.0647,0.0439,0.1204,-96.25,-142.76,1029.24,312,477,-438
1512180862,0.0181,-0.0036,0.1193,-108.95,-137.82,1065.49,281,498,-414
1512180862,0.0196,0.0341,0.1135,-50.17,-150.70,1038.64,281,498,-414
1512180862,0.0004,-0.0228,0.1096,-120.91,-138.92,992.92,281,498,-414
1512180862,0.0321,-0.0196,0.1005,-107.97,-149.60,910.58,281,498,-414
1512180862,0.0838,0.1142,0.0968,-107.97,-182.62,1061.46,281,498,-414
1512180862,0.0437,0.0254,0.0864,-91.06,-137.88,954.65,300,497,-416
1512180862,0.0655,0.0487,0.0859,-74.04,-156.01,983.89,300,497,-416
1512180862,0.0944,0.1340,0.0788,-121.95,-149.54,1007.63,300,497,-416
1512180862,0.0353,-0.0494,0.0750,-112.49,-118.29,930.36,300,497,-416
1512180862,0.0836,0.0346,0.0810,-182.98,-83.74,1047.61,300,497,-416
1512180862,0.0471,0.0675,0.0724,-170.47,-93.02,1098.33,284,477,-421
1512180862,0.0258,-0.0197,0.0642,-111.88,-72.94,1042.60,284,477,-421
1512180862,0.0744,0.0992,0.0598,-151.55,-116.58,1092.41,284,477,-421
1512180862,-0.0350,-0.0281,0.0534,-105.41,-121.09,1006.65,284,477,-421
1512180862,0.0430,0.0519,0.0441,-86.12,-120.97,1023.50,293,493,-416
1512180863,0.0276,0.0145,0.0433,-151.73,-127.56,977.91,293,493,-416
1512180863,0.0385,0.0140,0.0305,-97.29,-90.64,972.84,293,493,-416
1512180863,0.0615,-0.0117,0.0353,-136.41,-83.80,1074.40,293,493,-416
1512180863,0.0726,0.0471,0.0304,-157.90,-60.55,947.94,293,493,-416
1512180863,0.0221,-0.0353,0.0273,-131.35,-74.28,1016.17,291,495,-411
1512180863,0.0652,0.0426,0.0156,-107.60,-72.94,1036.38,291,495,-411
1512180863,0.0317,-0.0128,0.0123,-101.20,-92.96,1015.38,291,495,-411
1512180863,0.0750,0.0316,0.0121,-121.52,-68.42,1069.46,291,495,-411
1512180863,0.0421,0.0109,0.0045,-114.62,-99.18,1031.74,291,495,-411
1512180863,-0.1297,-0.0088,0.0092,-84.35,-111.69,1014.10,293,490,-409
1512180863,-0.0244,0.1541,0.0067,-152.59,-96.92,1074.58,293,490,-409
1512180863,0.0426,-0.0531,0.0063,-122.13,-63.78,1028.26,293,490,-409
1512180863,0.1433,0.0313,-0.0021,-202.21,-10.50,1024.35,293,490,-409
1512180863,0.2067,-0.0828,-0.0009,-175.84,-25.51,1050.96,281,484,-397
1512180863,0.2229,0.1663,-0.0173,-80.93,-74.28,1061.71,281,484,-397
1512180863,0.1815,-0.0414,-0.0121,-187.07,-109.56,1039.18,281,484,-397
1512180863,0.1238,0.0518,-0.0248,-129.15,-7.14,960.82,281,484,-397
1512180863,0.2421,0.1445,-0.0289,-106.20,-4.15,1160.03,281,484,-397
1512180863,0.1812,-0.1205,-0.0097,-156.62,-16.54,1056.70,302,513,-421
1512180863,0.1746,0.1670,-0.0398,-145.20,-3.78,942.69,302,513,-421
1512180863,0.1077,-0.1036,-0.0232,-120.30,-31.80,1116.27,302,513,-421
1512180863,0.0435,0.0883,-0.0337,-125.24,-106.45,898.38,302,513,-421
1512180863,-0.0358,0.0589,-0.0391,-107.06,-99.55,1069.58,307,507,-423
1512180863,-0.0477,0.0060,-0.0377,-135.31,-109.86,961.36,307,507,-423
1512180863,-0.0398,0.1033,-0.0337,-145.32,-124.33,957.89,307,507,-423
1512180863,-0.0518,0.0248,-0.0258,-119.45,-110.60,1069.95,307,507,-423
1512180863,-0.0768,0.0394,-0.0290,-127.01,-121.40,940.25,307,507,-423
1512180863,-0.0719,0.1139,-0.0330,-125.31,-98.14,980.16,303,511,-426
1512180863,-0.0816,-0.0626,-0.0189,-201.78,-67.02,988.16,303,511,-426
1512180863,0.0736,0.1080,-0.0176,-168.88,-61.04,996.70,303,511,-426
1512180863,0.0542,-0.0732,-0.0393,-93.44,-84.78,892.82,303,511,-426
1512180863,0.1308,0.0325,-0.0265,-111.27,-107.97,1152.16,303,511,-426
1512180863,0.1579,0.0947,-0.0365,-116.70,-60.55,944.40,296,493,-436
1512180863,0.0221,-0.0875,-0.0463,-86.06,-56.58,950.99,296,493,-436
1512180863,0.0780,0.0349,-0.0380,-87.52,-90.76,870.42,296,493,-436
1512180863,0.0603,0.1256,-0.0389,-106.57,-37.66,1108.70,296,493,-436
1512180863,-0.0031,-0.0806,-0.0390,-163.70,-131.59,1155.03,291,495,-435
1512180864,-0.0056,-0.0232,-0.0470,-92.22,-86.43,805.73,291,495,-435
1512180864,0.0127,0.0684,-0.0284,-64.03,-112.24,1076.54,291,495,-435
1512180864,0.0077,-0.0273,-0.0270,-226.50,-46.33,961.18,291,495,-435
1512180864,0.0337,-0.0458,-0.0459,-108.22,-99.43,1039.92,291,495,-435
1512180864,0.0876,0.0277,-0.0407,-197.81,-88.44,1019.65,286,490,-416
