unixtime,rx,ry,rz,ax,ay,az,mx,my,mz,apprx,appry,apprz,appax,appay,appaz,appmx,appmy,appmz
1512180642,-10.100,0.000,-4.100,-55180.000,25450.000,988160.000,-40000.000,-28000.000,-1000.000,-0.259,-1.478,-0.764,4.852,20.482,-8.926,14510.778,-9978.922,7826.500
1512180642,4.900,1.700,-3.700,-52060.000,38390.000,1007570.000,-50000.000,-14000.000,-5000.000,-0.243,0.659,-1.822,-16.456,18.463,13.872,14359.243,-10354.151,8127.602
1512180642,7.100,0.300,-4.300,-48460.000,50600.000,1006960.000,-50000.000,-14000.000,-5000.000,-0.288,-0.418,0.304,5.107,21.193,-9.170,14359.472,-10279.154,7902.641
1512180642,-3.600,0.000,-3.100,-61710.000,30520.000,1004940.000,-50000.000,-14000.000,-5000.000,-1.319,1.720,-1.835,-16.661,16.732,11.919,14360.479,-10054.148,7902.748
1512180642,-7.200,-1.600,-4.300,-47850.000,35830.000,1009770.000,-50000.000,-14000.000,-5000.000,-1.340,0.648,-0.773,-2.503,21.392,-4.652,14356.726,-10879.160,7827.370
1512180642,13.800,0.300,-3.600,-51510.000,45230.000,975040.000,-50000.000,-14000.000,-5000.000,-2.382,-0.416,-1.855,-11.482,16.942,8.347,14055.716,-11104.609,7829.811
1512180642,16.900,6.400,-3.100,-57980.000,31370.000,1015690.000,-66000.000,-19000.000,20000.000,1.875,-0.406,-0.723,3.634,19.671,-6.024,14133.490,-10504.496,7979.454
1512180642,5.500,-0.500,-5.600,-58590.000,42300.000,1022400.000,-66000.000,-19000.000,20000.000,0.806,1.727,-0.732,-17.160,18.900,13.614,14057.714,-10654.612,7755.013
1512180642,-1.100,1.200,-5.300,-61830.000,34300.000,989810.000,-66000.000,-19000.000,20000.000,-0.290,-3.623,0.299,7.278,22.092,-5.232,14283.346,-10504.267,7678.185
1512180642,13.400,1.200,-3.900,-70620.000,32350.000,1007390.000,-66000.000,-19000.000,20000.000,-0.247,2.792,-1.809,-17.357,17.903,10.698,14506.430,-10953.928,7901.054
1512180642,6.400,0.100,-8.100,-56700.000,49800.000,1007750.000,-66000.000,-19000.000,20000.000,1.855,-0.417,-0.725,5.600,19.671,-7.215,14359.137,-10354.151,7902.596
1512180642,-0.400,-1.100,-7.200,-70310.000,21480.000,987980.000,-49000.000,-1000.000,6000.000,-0.260,-1.479,-0.754,-13.992,20.348,13.919,13905.600,-11179.834,8281.044
1512180642,-0.800,-1.100,-10.500,-56760.000,31980.000,1003850.000,-49000.000,-1000.000,6000.000,-0.261,-0.411,-0.750,1.436,20.853,-5.812,14137.396,-9679.483,8354.836
1512180642,6.500,-0.900,-9.900,-50960.000,41560.000,997740.000,-49000.000,-1000.000,6000.000,1.856,-0.409,0.348,-11.224,17.156,9.325,14135.550,-10054.499,8054.649
1512180642,0.800,-1.700,-8.700,-71840.000,26920.000,1010440.000,-49000.000,-1000.000,6000.000,-0.297,-1.484,1.380,6.251,17.643,-0.135,14208.151,-10579.386,7978.783
1512180642,-5.900,-2.500,-8.300,-58040.000,36130.000,1003660.000,-42000.000,-22000.000,0.000,-1.335,0.650,-0.761,-16.009,17.848,19.488,14286.383,-9904.261,8353.447
1512180642,2.700,0.100,-7.600,-57370.000,34850.000,982180.000,-42000.000,-22000.000,0.000,1.845,-1.482,0.345,9.542,20.603,-7.381,14284.658,-10279.261,8278.282
1512180642,13.400,4.000,-8.500,-67020.000,30760.000,1011050.000,-42000.000,-22000.000,0.000,-1.321,0.651,-1.826,-20.295,16.366,13.813,14134.878,-10204.493,8054.588
1512180642,-7.700,-0.500,-10.300,-50480.000,36130.000,1001460.000,-42000.000,-22000.000,0.000,0.802,-3.614,-0.740,10.024,19.109,-5.915,14436.865,-9754.038,7977.242
1512180642,-2.300,1.900,-9.300,-66830.000,28140.000,963930.000,-42000.000,-22000.000,0.000,-3.477,-0.420,0.277,-15.438,15.833,17.782,14435.522,-10054.041,7977.104
1512180642,11.600,1.700,-11.900,-62740.000,29600.000,998840.000,-56000.000,-8000.000,10000.000,0.801,-1.480,-0.730,1.745,18.556,-4.588,14360.815,-9979.151,7902.779
1512180642,16.800,0.300,-11.700,-58900.000,53650.000,1016540.000,-56000.000,-8000.000,10000.000,-0.241,0.668,-0.731,-15.097,17.281,10.974,14359.137,-10354.151,7902.596
1512180642,-7.900,-1.100,-15.300,-64700.000,31490.000,982730.000,-56000.000,-8000.000,10000.000,0.813,-2.538,-0.728,6.340,19.023,-3.308,14134.619,-10279.490,8204.552
1512180642,6.000,2.000,-16.400,-62740.000,34550.000,990840.000,-56000.000,-8000.000,10000.000,-1.328,-0.401,0.317,-16.947,15.773,19.456,14358.526,-10504.160,8052.528
1512180642,26.000,3.200,-17.300,-62680.000,54570.000,1030580.000,-56000.000,-8000.000,10000.000,0.800,-1.458,1.415,10.822,20.478,-9.320,14810.705,-10053.476,8348.915
1512180642,-20.200,0.400,-17.600,-68480.000,23680.000,967410.000,-57000.000,-17000.000,11000.000,0.824,1.752,0.363,-19.529,18.693,14.315,14360.998,-9979.151,8277.779
1512180642,-8.100,-1.600,-16.500,-67200.000,26120.000,989440.000,-57000.000,-17000.000,11000.000,0.835,-1.451,-0.713,13.895,18.015,-3.432,13910.254,-10129.831,8131.523
1512180642,16.200,0.400,-15.400,-69090.000,47670.000,1023560.000,-57000.000,-17000.000,11000.000,-1.285,1.756,-0.728,-13.754,16.468,18.051,14137.579,-9604.486,8054.863
1512180642,-17.300,-1.200,-16.400,-75010.000,22160.000,972110.000,-57000.000,-17000.000,11000.000,1.886,-1.448,0.374,6.825,18.964,-4.030,14435.934,-9979.044,8127.144
1512180642,-7.100,3.100,-15.800,-61400.000,19100.000,990840.000,-72000.000,-24000.000,8000.000,-1.307,1.752,0.340,-15.164,17.196,14.126,14360.891,-9979.151,8052.773
1512180642,9.900,2.000,-16.400,-68730.000,37660.000,1026550.000,-72000.000,-24000.000,8000.000,1.905,-4.649,-0.699,5.107,15.269,-2.841,14435.675,-10054.041,8277.107
1512180642,-4.300,-1.300,-18.600,-80260.000,19170.000,994870.000,-72000.000,-24000.000,8000.000,-4.494,-0.390,-0.777,-13.068,16.643,20.977,14434.851,-10204.035,7977.043
1512180642,-5.300,1.500,-21.000,-62260.000,20390.000,996580.000,-72000.000,-24000.000,8000.000,0.845,-2.512,-0.702,8.622,18.173,-9.602,14360.403,-10129.145,8427.711
1512180642,5.100,-0.400,-24.000,-66830.000,39790.000,1013490.000,-72000.000,-24000.000,8000.000,-1.310,-0.385,0.340,-18.885,17.345,19.910,14435.629,-10054.041,8202.110
1512180642,-2.100,0.900,-26.900,-77450.000,22640.000,998540.000,-43000.000,-28000.000,18000.000,-0.230,0.155,-0.171,-1.011,16.281,8.017,14022.887,-10092.165,8055.595
1512180642,5.200,5.200,-27.600,-73790.000,21550.000,1004640.000,-43000.000,-28000.000,18000.000,0.291,-0.378,0.372,-2.308,17.877,5.201,14247.739,-10129.320,8091.164
1512180642,8.300,5.100,-26.500,-72200.000,41020.000,1009520.000,-43000.000,-28000.000,18000.000,-1.302,-0.913,-0.182,-3.329,16.268,9.322,14060.255,-10129.603,8130.257
1512180643,1.900,0.900,-28.200,-74100.000,26250.000,982970.000,-43000.000,-28000.000,18000.000,1.870,-3.579,1.458,15.543,15.475,-11.932,14436.193,-9904.047,7977.180
1512180643,3.500,2.100,-28.000,-81600.000,27890.000,996400.000,-43000.000,-28000.000,18000.000,-0.206,1.765,-1.750,-18.197,19.774,23.588,14285.666,-10054.270,8278.374
1512180643,-4.800,0.100,-27.400,-66590.000,39060.000,1011290.000,-73000.000,-12000.000,20000.000,0.843,-0.370,-0.673,14.779,17.199,-11.706,14434.622,-10279.047,8202.003
1512180643,-0.800,-0.500,-28.000,-69950.000,33630.000,984800.000,-73000.000,-12000.000,20000.000,-3.422,0.691,-0.730,-14.575,17.046,24.606,14062.277,-9679.605,8130.455
1512180643,7.300,4.700,-29.000,-75130.000,27040.000,998540.000,-73000.000,-12000.000,20000.000,0.820,0.692,0.399,6.914,16.658,-10.858,14362.356,-9679.148,8277.916
1512180643,-8.000,1.600,-34.100,-64390.000,38150.000,1002930.000,-73000.000,-12000.000,20000.000,-2.345,-2.515,-1.788,-0.939,17.537,22.877,14211.264,-9904.383,8129.082
1512180643,2.500,-1.500,-34.900,-74460.000,28690.000,980220.000,-54000.000,-14000.000,-1000.000,2.975,-3.574,-0.643,22.179,14.948,-5.503,14358.984,-10429.163,8277.565
1512180643,0.800,-0.800,-37.000,-88750.000,29850.000,1001650.000,-54000.000,-14000.000,-1000.000,-2.406,-1.455,2.487,-19.539,15.542,26.721,14435.064,-10129.038,7752.068
1512180643,-23.400,0.400,-40.600,-68540.000,27650.000,982180.000,-54000.000,-14000.000,-1000.000,0.842,1.757,-0.651,11.561,17.382,-12.493,14359.579,-10279.154,8127.632
1512180643,14.400,2.000,-41.700,-71660.000,24960.000,988770.000,-54000.000,-14000.000,-1000.000,-2.331,-0.380,-1.765,-15.109,17.726,25.089,14059.164,-10354.609,7980.156
1512180643,-6.900,0.500,-41.500,-87280.000,24600.000,1010860.000,-54000.000,-14000.000,-1000.000,0.815,-0.383,1.483,13.237,15.895,-10.755,13986.120,-9904.718,7831.001
1512180643,-17.300,1.600,-40.300,-72570.000,26920.000,987430.000,-57000.000,-21000.000,22000.000,-2.362,1.750,0.382,-17.342,22.100,26.032,14285.101,-10129.267,7828.346
1512180643,19.200,2.400,-40.100,-66710.000,33750.000,1009770.000,-57000.000,-21000.000,22000.000,0.865,-1.449,-1.712,13.290,17.832,-14.417,14134.054,-10354.502,7754.524
1512180643,-11.200,-1.100,-40.900,-93260.000,40770.000,1005000.000,-57000.000,-21000.000,22000.000,-1.280,-1.454,-0.673,-6.750,19.700,20.587,14510.443,-10053.934,7826.469
1512180643,-24.400,0.900,-42.100,-74830.000,24290.000,972170.000,-57000.000,-21000.000,22000.000,-0.250,0.678,1.485,3.750,15.626,-10.661,14660.559,-10053.705,8050.194
1512180643,33.700,0.300,-40.900,-72270.000,49130.000,1029850.000,-66000.000,-15000.000,20000.000,-2.345,1.746,-0.671,-9.308,15.738,29.315,14436.087,-9904.047,7752.174
1512180643,8.800,-2.100,-46.500,-92220.000,39550.000,997500.000,-66000.000,-15000.000,20000.000,1.883,-1.457,1.515,12.889,14.910,-18.566,14507.177,-10728.937,7376.167
1512180643,-5.900,-2.900,-48.500,-74400.000,26730.000,974060.000,-66000.000,-15000.000,20000.000,-4.516,-0.403,1.427,-16.855,16.933,28.460,14886.755,-9753.366,7748.421
1512180643,34.100,-2.500,-52.900,-87710.000,58780.000,1041810.000,-66000.000,-15000.000,20000.000,1.875,-0.396,1.522,16.462,12.921,-12.662,14810.003,-10128.473,7598.900
1512180643,-12.900,-2.500,-55.900,-92290.000,32100.000,992370.000,-66000.000,-15000.000,20000.000,-2.389,-1.471,1.459,-13.416,15.709,27.789,14886.084,-9903.360,7748.360
1512180643,21.200,1.700,-55.800,-79220.000,32960.000,1004270.000,-68000.000,-7000.000,22000.000,0.834,-0.393,0.447,9.382,14.351,-12.526,14883.505,-10503.366,7973.076
1512180643,28.800,-1.300,-57.700,-82030.000,44370.000,1043090.000,-68000.000,-7000.000,22000.000,-2.368,-2.537,0.395,-8.470,18.868,22.508,14807.333,-10803.476,8348.579
1512180643,-19.200,-3.600,-58.200,-74280.000,21910.000,987490.000,-68000.000,-7000.000,22000.000,-0.251,-0.398,1.502,5.977,14.087,-10.875,14810.369,-10128.473,8348.885
1512180643,43.800,-0.800,-57.100,-79650.000,35460.000,998600.000,-68000.000,-7000.000,22000.000,-4.522,-4.680,1.426,-9.012,16.626,31.029,14659.216,-10353.708,8050.056
1512180643,12.800,-0.100,-55.700,-74220.000,52310.000,1023010.000,-68000.000,-7000.000,22000.000,0.832,1.741,0.462,11.238,15.782,-17.373,14883.947,-10428.370,8198.112
1512180643,-24.500,1.600,-59.900,-69640.000,21000.000,976500.000,-66000.000,-15000.000,13000.000,-3.421,-0.403,-0.673,-16.956,22.943,24.817,14434.652,-10279.047,8277.000
1512180643,40.500,8.100,-60.100,-86790.000,47730.000,1018250.000,-66000.000,-15000.000,13000.000,-0.766,-0.392,0.971,0.900,16.919,6.097,14622.031,-10278.765,8012.909
1512180643,5.200,2.900,-63.500,-75010.000,48220.000,1023680.000,-66000.000,-15000.000,13000.000,-1.304,-1.996,0.959,-1.250,18.134,4.726,14658.270,-10541.208,7862.472
1512180643,-0.800,0.900,-66.800,-78120.000,32170.000,964110.000,-66000.000,-15000.000,13000.000,0.293,0.144,0.991,-2.243,17.517,8.369,14508.528,-10503.939,8051.262
1512180643,22.600,5.500,-71.000,-100710.000,33330.000,993470.000,-56000.000,-22000.000,0.000,-0.216,-0.913,0.453,-1.827,16.342,4.600,14509.023,-10391.428,8013.809
1512180643,-16.900,0.900,-74.300,-80570.000,34360.000,981810.000,-56000.000,-22000.000,0.000,-0.230,-0.380,0.453,2.049,15.127,6.852,14321.104,-10504.213,8202.858
1512180643,39.700,-0.900,-73.400,-79830.000,47240.000,1001770.000,-56000.000,-22000.000,0.000,-0.209,-0.365,-0.075,3.253,18.065,1.277,14471.632,-10391.489,8239.128
1512180643,8.500,-3.100,-75.600,-89970.000,35340.000,1009340.000,-56000.000,-22000.000,0.000,0.314,-2.492,0.457,1.054,16.700,3.921,14471.709,-10353.991,8051.651
1512180643,-9.100,-1.200,-76.000,-71350.000,25390.000,992070.000,-56000.000,-22000.000,0.000,-0.747,0.722,0.451,-2.295,20.930,1.199,14584.433,-10316.316,8163.215
1512180643,22.900,3.300,-74.400,-72630.000,26670.000,992550.000,-66000.000,-22000.000,27000.000,0.330,-3.005,-0.615,1.730,20.933,2.597,14396.086,-10504.099,8164.711
1512180643,4.100,9.100,-77.200,-79040.000,39370.000,990660.000,-66000.000,-22000.000,27000.000,-1.294,1.808,1.508,-5.330,22.498,2.360,14433.889,-10429.049,8089.424
1512180643,1.900,17.600,-82.300,-84900.000,23800.000,962710.000,-66000.000,-22000.000,27000.000,-1.267,1.821,-0.095,-1.710,21.347,2.537,14358.282,-10579.157,8239.998
1512180643,30.500,20.200,-81.900,-59450.000,87340.000,1050290.000,-66000.000,-22000.000,27000.000,-0.719,2.901,-0.619,-5.872,23.882,1.992,14431.639,-10916.544,7976.708
1512180644,-2.300,9.700,-82.400,-91670.000,66530.000,1027400.000,-66000.000,-22000.000,27000.000,0.872,-0.299,-0.609,-2.745,17.814,-19.045,14434.286,-10354.044,8201.973
1512180644,-27.300,-1.100,-83.800,-78740.000,67080.000,1022460.000,-73000.000,-29000.000,27000.000,-1.272,-3.502,0.416,11.270,25.033,20.155,14433.538,-10504.038,8051.903
1512180644,8.800,-10.300,-78.400,-94420.000,98140.000,1041260.000,-73000.000,-29000.000,27000.000,0.830,1.842,2.597,1.816,18.065,-15.323,14133.612,-10504.496,8204.445
1512180644,-20.200,-21.700,-78.200,-104190.000,59270.000,991150.000,-73000.000,-29000.000,27000.000,-1.252,-1.350,0.428,1.759,20.630,21.469,14133.200,-10579.493,8054.405
1512180644,-2.700,-26.600,-79.100,-90330.000,65860.000,983830.000,-73000.000,-29000.000,27000.000,3.021,-1.343,-0.578,0.936,8.307,-16.796,14358.603,-10504.160,8202.538
1512180644,-30.500,-29.300,-81.600,-75500.000,65550.000,990660.000,-75000.000,-28000.000,18000.000,-1.265,-2.420,0.422,6.410,21.612,23.244,14132.513,-10729.502,8054.344
1512180644,-7.700,-27.300,-86.600,-64090.000,47180.000,938600.000,-75000.000,-28000.000,18000.000,1.913,1.856,1.548,-7.791,11.466,-19.129,14358.648,-10504.160,8277.534
1512180644,4.300,-24.500,-88.900,-85020.000,39370.000,963500.000,-75000.000,-28000.000,18000.000,-1.274,-2.412,1.490,1.562,15.494,21.213,14883.200,-10578.363,8048.042
1512180644,-18.900,-24.600,-93.700,-67320.000,66160.000,981510.000,-75000.000,-28000.000,18000.000,-0.172,1.868,-0.612,-6.251,9.496,-10.343,14358.419,-10504.160,7827.538
1512180644,-11.300,-23.000,-97.200,-71590.000,55180.000,982120.000,-75000.000,-28000.000,18000.000,-1.257,-3.474,0.421,-1.154,14.760,22.386,14432.516,-10729.044,8051.796
1512180644,-9.900,-20.800,-100.100,-86300.000,60360.000,981750.000,-72000.000,-28000.000,11000.000,0.877,2.939,0.474,-6.185,11.691,-16.420,14433.615,-10504.038,8201.897
1512180644,-39.800,-20.400,-100.800,-71110.000,64330.000,986390.000,-72000.000,-28000.000,11000.000,-2.343,1.862,1.489,-6.556,14.006,21.800,14510.931,-9978.922,8126.503
1512180644,7.300,-15.400,-99.600,-78120.000,68240.000,1000310.000,-72000.000,-28000.000,11000.000,3.039,2.946,-1.627,-9.433,10.953,-12.820,14360.220,-10129.145,8052.711
1512180644,-5.600,-15.600,-97.900,-76480.000,59270.000,1038210.000,-72000.000,-28000.000,11000.000,-0.199,-1.336,0.444,9.138,14.546,15.483,14583.227,-10578.821,8125.587
1512180644,-50.200,-15.000,-96.700,-56340.000,36560.000,982850.000,-61000.000,-35000.000,25000.000,1.923,0.806,1.551,-10.014,13.670,-22.570,13908.300,-10579.828,8281.319
1512180644,12.700,-12.100,-94.400,-49320.000,88750.000,1067810.000,-61000.000,-35000.000,25000.000,-1.261,-0.266,0.435,0.444,20.161,9.746,14132.513,-10729.502,8054.344
1512180644,-39.500,-11.500,-93.600,-61160.000,57740.000,1032840.000,-61000.000,-35000.000,25000.000,-0.177,4.018,0.471,-0.663,12.196,-12.928,14055.487,-11179.605,8054.771
1512180644,-61.100,-2.300,-94.400,-28440.000,48340.000,1003110.000,-61000.000,-35000.000,25000.000,-2.316,-3.463,0.415,-7.017,21.113,19.375,14360.174,-10129.145,7977.715
1512180644,4.800,5.900,-95.900,-26730.000,60910.000,1014220.000,-61000.000,-35000.000,25000.000,-0.197,-4.534,0.440,13.680,11.211,-9.784,14359.549,-10279.154,8052.635
1512180644,-33.700,8.100,-98.400,-45840.000,47790.000,993840.000,-70000.000,-33000.000,20000.000,-1.273,0.805,1.510,-0.089,22.070,12.904,14356.512,-10954.157,8052.330
1512180644,-24.900,6.300,-99.700,-52120.000,47120.000,966670.000,-70000.000,-33000.000,20000.000,1.910,-1.326,2.616,-5.908,16.562,-19.090,14056.875,-10879.602,8129.906
1512180644,10.400,6.300,-101.200,-66100.000,67570.000,1035580.000,-70000.000,-33000.000,20000.000,-3.355,-3.464,-1.733,5.452,23.000,20.552,14208.456,-10504.374,7903.801
1512180644,-9.700,1.700,-103.200,-72450.000,50960.000,959050.000,-70000.000,-33000.000,20000.000,-0.205,-0.259,1.523,-1.263,16.763,-17.074,14208.792,-10429.377,7903.847
1512180644,4.400,5.600,-104.700,-57130.000,45230.000,989810.000,-70000.000,-33000.000,20000.000,-1.246,-1.322,0.441,-5.265,25.171,21.118,14134.878,-10204.493,8054.588
1512180644,-10.900,3.200,-104.000,-51940.000,63230.000,977660.000,-80000.000,-29000.000,13000.000,-0.182,1.883,0.467,-6.415,12.574,-13.991,14508.154,-10578.928,7976.234
1512180644,0.900,3.700,-102.800,-62260.000,42050.000,960510.000,-80000.000,-29000.000,13000.000,-3.371,-1.321,0.412,6.185,21.236,23.240,14508.200,-10578.928,8051.231
1512180644,44.100,9.100,-102.400,-69340.000,62740.000,995300.000,-80000.000,-29000.000,13000.000,-0.723,-0.786,0.985,-6.406,20.548,2.458,14396.017,-10504.106,8014.717
1512180644,-39.800,9.700,-106.300,-53770.000,54140.000,974180.000,-80000.000,-29000.000,13000.000,0.377,0.827,-0.591,-2.369,21.645,1.428,14246.336,-10429.324,7978.524
1512180644,-10.800,7.700,-107.600,-60420.000,37110.000,952940.000,-73000.000,-22000.000,10000.000,0.356,8.304,1.034,-11.453,25.552,-0.419,14357.633,-10691.660,7939.949
1512180644,22.000,12.400,-105.900,-75440.000,47970.000,979190.000,-73000.000,-22000.000,10000.000,0.890,-4.509,0.463,4.602,22.760,4.223,14508.627,-10503.931,8238.761
1512180644,-23.300,0.900,-103.300,-50170.000,62500.000,956050.000,-73000.000,-22000.000,10000.000,1.992,1.911,-0.564,-0.836,28.985,-7.551,14658.385,-10541.208,8087.471
1512180644,34.800,-6.800,-104.000,-79960.000,88320.000,1020510.000,-73000.000,-22000.000,10000.000,0.379,0.303,-0.064,-3.228,32.858,-1.378,14170.622,-10579.439,7904.099
1512180644,12.300,-7.200,-104.500,-73910.000,79470.000,1019470.000,-73000.000,-22000.000,10000.000,3.589,-3.959,-0.564,6.601,39.473,-13.508,14283.758,-10429.270,7828.209
1512180644,-10.500,-5.700,-108.400,-61830.000,62560.000,987850.000,-57000.000,-35000.000,32000.000,0.927,0.851,-0.050,-5.843,39.038,3.468,14020.185,-10692.163,8055.321
1512180644,-7.100,-5.200,-109.900,-63480.000,69340.000,1010560.000,-57000.000,-35000.000,32000.000,-0.108,-2.347,-2.207,-6.004,37.068,6.390,14472.120,-10241.488,7864.197
1512180644,-16.800,-8.300,-113.300,-44680.000,60420.000,970210.000,-57000.000,-35000.000,32000.000,-0.094,-1.268,-2.196,-4.986,37.669,3.598,14359.449,-10279.154,7865.142
1512180644,5.600,-3.600,-114.200,-49010.000,35160.000,1030580.000,-57000.000,-35000.000,32000.000,0.450,0.343,-2.711,-4.162,37.434,-1.750,14246.778,-10316.828,7866.081
1512180644,-41.300,-10.300,-117.200,-46140.000,65550.000,986820.000,-57000.000,-35000.000,32000.000,-0.076,-0.721,-3.246,-5.832,36.901,4.071,14357.855,-10616.656,7714.981
1512180645,-56.700,-9.700,-115.300,-57980.000,33450.000,933350.000,-68000.000,-35000.000,15000.000,2.066,3.025,-3.725,-10.231,32.896,-3.804,14134.466,-10279.490,7904.549
1512180645,20.200,-2.900,-107.900,-91490.000,58530.000,995670.000,-68000.000,-35000.000,15000.000,-2.195,-2.317,-3.795,-1.555,38.190,4.391,14133.078,-10579.493,7829.414
1512180645,-32.100,5.100,-109.500,-60550.000,61890.000,979980.000,-68000.000,-35000.000,15000.000,-0.045,1.962,-4.806,-9.967,25.296,-3.071,13907.888,-10654.825,8131.294
1512180645,12.300,10.800,-110.500,-50900.000,42050.000,1004390.000,-68000.000,-35000.000,15000.000,2.072,-2.305,-3.712,-1.792,24.533,3.627,14357.779,-10654.154,7902.458
1512180645,-34.600,-0.900,-108.800,-42600.000,50420.000,946350.000,-66000.000,-29000.000,23000.000,3.113,1.964,-2.606,-6.064,19.479,-3.512,14282.064,-10804.270,7828.041
1512180645,-16.500,-6.100,-110.700,-49930.000,29600.000,941590.000,-66000.000,-29000.000,23000.000,4.181,-0.166,-2.584,-1.990,27.312,0.961,14358.084,-10579.157,7827.507
1512180645,26.100,-1.500,-112.300,-57680.000,62320.000,1039920.000,-66000.000,-29000.000,23000.000,0.979,-0.169,-2.617,-11.796,15.866,5.175,14133.078,-10579.493,7829.414
1512180645,-19.000,-2.000,-116.900,-64090.000,59750.000,980220.000,-66000.000,-29000.000,23000.000,2.092,-2.295,-5.792,2.692,20.789,0.295,13983.084,-10579.721,7830.696
1512180645,-9.700,4.000,-116.800,-77880.000,43400.000,964290.000,-66000.000,-29000.000,23000.000,0.955,0.902,-1.518,-2.792,6.924,-7.852,14133.688,-10429.499,7679.497
1512180645,-13.800,4.500,-116.900,-67380.000,67140.000,1000670.000,-66000.000,-29000.000,20000.000,2.040,-1.231,-3.628,-6.370,14.245,3.794,14281.958,-10804.270,7603.050
1512180645,28.200,-2.400,-110.800,-65120.000,96800.000,1027710.000,-66000.000,-29000.000,20000.000,2.027,0.905,-3.606,-4.054,3.084,-3.727,14132.711,-10654.490,7754.387
1512180645,22.500,-3.300,-111.100,-96920.000,77330.000,983030.000,-66000.000,-29000.000,20000.000,3.068,0.915,-1.437,5.426,2.858,-3.087,14357.748,-10654.154,7827.461
1512180645,-7.500,-0.300,-111.300,-61460.000,67810.000,1014040.000,-66000.000,-29000.000,20000.000,-0.147,1.977,-1.464,-5.108,-1.046,0.148,14432.409,-10729.044,7826.790
1512180645,-37.600,1.500,-112.900,-67630.000,78250.000,1006900.000,-91000.000,-29000.000,13000.000,0.901,-2.295,-1.446,0.549,5.795,-1.942,14357.779,-10654.154,7902.458
1512180645,-23.000,-2.700,-116.100,-59940.000,44130.000,962950.000,-91000.000,-29000.000,13000.000,1.991,4.126,-2.451,3.970,-6.595,-3.130,14282.782,-10654.276,7903.099
1512180645,-25.400,-4.900,-115.800,-65190.000,68790.000,1007020.000,-91000.000,-29000.000,13000.000,-4.428,-1.227,-2.545,-14.088,-5.460,18.513,13980.185,-11179.728,7455.421
1512180645,-60.900,-3.300,-117.400,-58840.000,36380.000,948240.000,-91000.000,-29000.000,13000.000,-0.179,-0.151,-2.461,-1.102,-9.530,0.696,14430.304,-11179.056,7676.598
1512180645,2.800,5.300,-115.300,-56460.000,84900.000,984370.000,-91000.000,-29000.000,13000.000,1.918,-3.346,-0.286,3.141,10.470,-3.589,14057.257,-10729.609,7529.991
1512180645,13.600,13.800,-119.000,-79410.000,53340.000,1034730.000,-80000.000,-44000.000,20000.000,0.858,-0.138,-1.336,-7.570,-2.687,-1.585,14058.310,-10504.602,7605.095
1512180645,-36.500,13.300,-121.700,-56950.000,27160.000,951970.000,-80000.000,-44000.000,20000.000,2.955,-0.136,-0.221,-5.838,13.913,-2.008,13981.283,-10954.721,7605.522
1512180645,-37.700,12.100,-121.200,-49560.000,65920.000,981750.000,-80000.000,-44000.000,20000.000,1.885,-0.130,-0.215,2.111,2.499,-9.695,14360.067,-10129.145,7752.708
1512180645,8.100,10.900,-120.800,-61040.000,52060.000,993470.000,-80000.000,-44000.000,20000.000,-0.291,-0.132,1.906,-10.755,10.026,2.038,13908.453,-10504.831,7906.364
1512180645,-24.200,5.300,-115.000,-75560.000,62500.000,988340.000,-80000.000,-44000.000,20000.000,1.860,-2.258,-0.184,-0.186,-5.033,-2.673,14133.413,-10504.496,7829.445
1512180645,-40.700,-2.300,-114.500,-40040.000,50170.000,981020.000,-86000.000,-52000.000,15000.000,-2.419,-1.195,-0.225,-6.402,8.106,5.765,13832.998,-10579.950,7681.969
1512180645,-16.100,-11.700,-107.200,-79350.000,49870.000,1020200.000,-86000.000,-52000.000,15000.000,-0.822,0.426,-0.165,-2.386,3.395,-0.387,13645.262,-10655.229,7871.025
1512180645,-47.900,-18.800,-110.100,-32410.000,109500.000,1010930.000,-86000.000,-52000.000,15000.000,0.208,2.034,0.422,-3.347,1.251,5.931,13645.864,-10505.228,7721.092
1512180645,-24.500,-21.700,-104.400,-59750.000,38270.000,1008420.000,-86000.000,-52000.000,15000.000,1.264,-0.625,-0.607,-1.118,4.558,2.803,13683.135,-10542.673,7608.262
1512180645,0.300,-26.800,-106.800,-53220.000,60610.000,1030030.000,-80000.000,-54000.000,13000.000,0.708,-1.151,-0.589,0.203,0.805,5.385,13456.732,-10843.012,7497.535
1512180645,-27.000,-32.000,-104.100,-9640.000,89420.000,1007200.000,-80000.000,-54000.000,13000.000,1.210,0.994,-0.016,-2.491,0.610,-1.350,13044.058,-10881.136,7501.030
1512180645,-67.800,-44.500,-104.900,-62680.000,31980.000,966610.000,-80000.000,-54000.000,13000.000,-0.963,-0.069,1.034,-4.317,0.620,1.050,13382.071,-10768.122,7498.207
1512180645,-52.900,-49.300,-106.300,-41080.000,75500.000,978030.000,-80000.000,-54000.000,13000.000,4.365,5.295,0.614,-7.027,-8.230,-1.430,13156.133,-10918.459,6975.052
1512180645,-13.000,-44.900,-100.800,-70920.000,84900.000,1008240.000,-80000.000,-54000.000,13000.000,1.156,-0.571,0.025,1.863,-8.741,-8.100,13419.569,-10730.562,7160.408
1512180645,-58.900,-41.300,-105.600,-26000.000,80080.000,991390.000,-87000.000,-47000.000,16000.000,-1.528,2.106,-0.002,-6.505,-14.233,4.542,13005.789,-10993.685,6976.296
1512180645,-7.200,-25.800,-104.500,-16850.000,69270.000,1021790.000,-87000.000,-47000.000,16000.000,1.116,-1.083,0.023,1.116,-22.436,2.344,13080.962,-10918.573,6638.191
1512180645,-37.200,-24.800,-103.200,-23620.000,43760.000,1033750.000,-87000.000,-47000.000,16000.000,1.616,-1.070,1.090,-7.366,-23.086,1.488,13491.720,-11292.963,6522.011
1512180645,-20.900,-32.800,-99.600,-35950.000,95520.000,1010620.000,-87000.000,-47000.000,16000.000,3.745,0.553,0.585,-3.272,-28.334,-0.401,13603.491,-11405.290,6070.999
1512180645,-51.000,-36.800,-94.700,-52920.000,62810.000,981630.000,-96000.000,-49000.000,15000.000,3.708,-1.576,1.094,1.083,-26.884,-3.972,13640.051,-11555.239,5545.623
1512180646,-57.500,-20.800,-90.300,-26060.000,79470.000,986880.000,-96000.000,-49000.000,15000.000,3.623,2.162,5.357,-10.304,-26.716,-8.410,13679.480,-11180.185,6032.967
1512180646,-25.400,-1.900,-87.100,60.000,72450.000,1057190.000,-96000.000,-49000.000,15000.000,1.528,0.039,3.182,-6.036,-41.787,0.399,13676.825,-11705.179,5432.732
1512180646,31.200,-5.300,-91.200,-26310.000,65370.000,1107910.000,-96000.000,-49000.000,15000.000,3.628,0.044,4.267,-2.122,-33.443,-0.010,14275.885,-11929.285,5577.538
1512180646,-2.100,-10.400,-94.000,-18370.000,57680.000,985900.000,-96000.000,-49000.000,15000.000,2.577,-2.088,2.100,7.488,-48.956,8.400,14201.101,-11854.395,5353.203
1512180646,14.400,-9.100,-97.500,-36930.000,47790.000,975160.000,-79000.000,-52000.000,15000.000,1.460,0.044,4.210,-12.964,-40.393,6.143,14425.619,-11929.056,5051.262
1512180646,3.100,-2.000,-96.500,-47550.000,90640.000,971980.000,-79000.000,-52000.000,15000.000,4.666,2.193,3.186,-6.145,-43.187,5.766,14801.931,-11628.489,4973.213
1512180646,20.100,9.100,-96.100,-65980.000,86850.000,978150.000,-79000.000,-52000.000,15000.000,-0.656,-2.085,0.946,-6.201,-39.495,9.919,15251.516,-11702.814,4819.344
1512180646,26.800,13.800,-90.900,-52190.000,101750.000,1010010.000,-79000.000,-52000.000,15000.000,3.584,-4.213,0.985,-1.538,-45.963,7.298,15100.775,-11853.037,4670.555
1512180646,-8.900,10.300,-86.600,-58960.000,62070.000,1005250.000,-79000.000,-52000.000,15000.000,-0.660,-3.144,-1.220,-5.422,-46.433,5.543,15400.244,-11927.591,4292.961
1512180646,30.200,8.100,-82.800,-34970.000,116390.000,1039730.000,-82000.000,-66000.000,22000.000,5.701,2.207,-0.058,-8.246,-38.525,-2.038,15926.596,-11626.810,4288.643
1512180646,12.100,3.600,-79.500,-51510.000,118410.000,1057430.000,-82000.000,-66000.000,22000.000,-2.810,-3.130,-1.275,-7.114,-48.291,6.251,16074.987,-12001.581,4437.202
1512180646,-31.200,-2.900,-80.700,-73000.000,91800.000,1002870.000,-82000.000,-66000.000,22000.000,3.561,-2.051,-1.195,-4.125,-44.560,-9.764,16450.247,-11926.020,4284.050
1512180646,4.800,0.400,-77.000,-48220.000,73670.000,1007630.000,-82000.000,-66000.000,22000.000,-2.850,-0.987,-1.297,-10.856,-53.867,-11.590,16525.061,-11925.913,3908.409
1512180646,-33.400,-1.500,-77.200,-36800.000,68600.000,962830.000,-79000.000,-56000.000,15000.000,6.734,0.099,-2.235,-8.817,-57.473,-14.237,16900.183,-11925.348,4130.226
1512180646,-20.600,-0.400,-80.600,-42910.000,44310.000,949950.000,-79000.000,-56000.000,15000.000,1.410,-0.964,-3.392,-16.523,-60.904,0.741,17124.090,-12150.003,3978.203
1512180646,2.500,1.700,-80.600,-31130.000,56460.000,956540.000,-79000.000,-56000.000,15000.000,6.710,1.189,-2.249,-12.144,-41.542,-13.764,16895.605,-12900.354,3754.768
1512180646,-42.300,-0.800,-78.600,-31620.000,38820.000,995480.000,-79000.000,-56000.000,15000.000,-0.751,0.121,-3.434,-2.654,-40.040,-9.226,17499.273,-12074.442,3675.056
1512180646,-14.100,1.900,-75.500,-25150.000,69210.000,961060.000,-79000.000,-56000.000,15000.000,1.370,-3.085,-3.417,-9.726,-24.908,-5.648,17799.353,-12073.999,3822.517
1512180646,10.100,4.800,-66.800,-38210.000,55360.000,1026370.000,-84000.000,-58000.000,16000.000,-7.142,-2.029,-4.604,-16.559,-18.916,12.756,17725.363,-11849.100,3823.250
1512180646,13.600,9.100,-58.200,-11720.000,88260.000,1013240.000,-84000.000,-58000.000,16000.000,-7.103,2.248,-6.720,-16.886,-7.007,-12.317,18022.177,-12523.661,3520.393
1512180646,13.300,10.800,-54.500,-57010.000,61160.000,1054200.000,-84000.000,-58000.000,16000.000,-9.182,0.116,-9.956,-9.348,-11.588,6.540,18397.177,-12523.096,3517.204
1512180646,16.200,16.000,-52.100,-19900.000,69950.000,980900.000,-84000.000,-58000.000,16000.000,-4.953,1.186,-7.758,-8.916,-7.329,-3.918,18476.751,-11547.983,3892.006
1512180646,11.300,23.300,-51.500,-37960.000,71590.000,1006410.000,-84000.000,-58000.000,16000.000,-10.236,2.249,-11.031,-21.816,-17.803,12.663,18551.306,-11622.873,3666.344
1512180646,-16.900,21.000,-50.600,-46260.000,57620.000,977910.000,-82000.000,-63000.000,8000.000,-4.868,1.195,-13.088,-17.423,-22.562,-1.897,18474.020,-12147.989,3816.734
1512180646,-30.600,19.300,-49.500,-25940.000,18370.000,976320.000,-82000.000,-63000.000,8000.000,-2.749,0.124,-13.064,-25.504,-35.584,2.832,18776.495,-11622.522,4039.436
1512180646,-3.500,-0.700,-43.300,-46940.000,67140.000,929990.000,-82000.000,-63000.000,8000.000,1.562,-0.926,-15.134,-10.504,-35.825,-4.002,18775.854,-11772.532,4114.357
1512180646,9.900,-14.100,-44.700,-53530.000,52980.000,978940.000,-82000.000,-63000.000,8000.000,3.712,1.214,-16.162,-21.512,-42.495,0.206,18926.474,-11659.808,4338.135
1512180646,10.500,-15.200,-40.200,-63170.000,73120.000,981810.000,-80000.000,-58000.000,16000.000,5.341,2.290,-17.732,-12.050,-35.237,-6.205,19076.612,-11659.586,4599.358
1512180646,-14.200,-17.700,-40.600,-69820.000,66830.000,961180.000,-80000.000,-58000.000,16000.000,0.032,1.752,-18.877,-15.910,-23.981,-4.178,19077.749,-11434.580,4861.961
1512180646,-7.300,-23.800,-37.000,-39000.000,69640.000,987850.000,-80000.000,-58000.000,16000.000,-3.640,0.146,-23.203,-16.905,-18.386,-2.611,18813.894,-11772.478,5201.531
1512180646,-2.800,-22.900,-32.200,-28020.000,64270.000,972600.000,-80000.000,-58000.000,16000.000,-4.637,-3.050,-27.493,-11.194,-18.152,5.889,18291.617,-11248.262,5918.732
1512180646,-47.000,-28.100,-29.800,-3600.000,23740.000,1006470.000,-80000.000,-58000.000,16000.000,-2.962,-3.571,-31.732,-19.547,-25.980,6.720,17618.712,-10836.771,6412.163
1512180646,-36.900,-30.500,-26.900,-22580.000,25630.000,1003110.000,-89000.000,-59000.000,-1000.000,2.953,0.181,-34.833,-34.298,-30.855,2.957,16907.567,-10575.335,6755.836
1512180646,-58.700,-37.000,-26.200,-4150.000,43700.000,1000240.000,-89000.000,-59000.000,-1000.000,5.195,-4.608,-41.746,-21.879,-30.841,0.375,16157.583,-10613.962,7137.184
1512180646,-10.000,-34.500,-19.400,-14160.000,44740.000,1012020.000,-89000.000,-59000.000,-1000.000,4.176,4.477,-43.860,-37.788,-32.013,-4.502,15407.950,-10540.086,7218.605
1512180646,-10.300,-33.000,-15.600,-31920.000,32530.000,988950.000,-89000.000,-59000.000,-1000.000,3.210,9.294,-49.721,-30.965,-21.414,-14.228,14995.870,-10465.701,7372.147
1512180646,0.800,-27.200,-13.300,-22030.000,43090.000,1007630.000,-94000.000,-65000.000,3000.000,2.252,2.893,-57.222,-27.757,-18.017,-7.112,14583.631,-10428.819,7563.164
1512180646,-6.500,-36.800,-7.200,-35890.000,71590.000,982670.000,-94000.000,-65000.000,3000.000,1.825,2.374,-63.091,-28.981,-25.802,-0.934,14092.444,-11142.061,6629.486
1512180647,12.400,-38.700,-5.300,-30520.000,59630.000,990780.000,-94000.000,-65000.000,3000.000,2.408,3.448,-66.278,-72.842,-34.593,-1.521,14059.210,-10279.612,7380.196
1512180647,-4.300,-39.800,-1.700,-9640.000,90390.000,994320.000,-94000.000,-65000.000,3000.000,4.707,-6.142,-76.939,-7.567,-30.733,8.055,13757.513,-10655.054,7382.576
1512180647,-60.300,-50.900,-2.100,-16600.000,48580.000,1026180.000,-94000.000,-65000.000,3000.000,5.792,2.405,-77.961,-30.463,-37.335,-3.765,13684.210,-10280.176,7383.385
1512180647,-18.400,-60.200,-3.200,-36870.000,75320.000,1093140.000,-94000.000,-75000.000,0.000,7.893,4.542,-75.790,-42.386,-31.278,-0.524,13456.244,-10955.515,7534.981
1512180647,-75.000,-57.000,-3.300,-8670.000,66830.000,950990.000,-94000.000,-75000.000,0.000,4.776,5.618,-80.093,-39.331,-37.887,9.260,13834.234,-10279.947,7457.115
1512180647,-37.300,-62.300,-1.300,-28260.000,44130.000,988160.000,-94000.000,-75000.000,0.000,9.071,5.628,-82.164,-22.218,-30.051,-10.930,13910.849,-9904.825,7306.648
1512180647,-35.300,-63.300,-1.200,5800.000,57800.000,998780.000,-94000.000,-75000.000,0.000,2.636,6.679,-80.123,-23.980,-36.745,4.869,13684.057,-10280.176,7083.382
1512180647,-26.800,-75.100,4.300,-14830.000,69820.000,995120.000,-94000.000,-75000.000,0.000,5.822,8.820,-79.002,-35.447,-26.508,-14.305,13910.070,-10054.834,7081.581
1512180647,-47.100,-76.000,3.600,11660.000,56270.000,983640.000,-82000.000,-81000.000,-1000.000,0.559,7.751,-83.347,-43.088,-31.786,3.095,13909.430,-10204.828,7156.502
1512180647,-4.000,-60.300,4.900,8300.000,54500.000,1026060.000,-82000.000,-81000.000,-1000.000,1.639,4.549,-84.409,-8.036,-27.983,2.671,13532.171,-10730.402,7384.453
1512180647,-20.000,-40.500,7.500,22460.000,49440.000,1020510.000,-82000.000,-81000.000,-1000.000,1.653,10.963,-84.384,-24.721,-26.913,2.624,13684.546,-10205.164,7383.415
1512180647,-11.200,-32.900,3.600,19470.000,29850.000,1004700.000,-82000.000,-81000.000,-1000.000,2.766,10.969,-87.567,-30.182,-18.473,-10.602,13685.110,-10055.170,7158.485
1512180647,-3.200,-27.000,-0.400,40770.000,22580.000,1034670.000,-79000.000,-77000.000,5000.000,2.802,5.634,-89.716,-13.877,-30.568,3.011,13834.097,-10279.947,7157.112
1512180647,-4.900,-12.400,-0.900,49130.000,18920.000,997130.000,-79000.000,-77000.000,5000.000,6.009,5.637,-90.738,-15.288,-21.370,-2.106,13609.503,-10205.286,7309.059
1512180647,-9.100,-2.000,6.700,8850.000,15810.000,932130.000,-79000.000,-77000.000,5000.000,3.927,4.571,-93.971,-26.600,-23.198,4.526,13684.210,-10280.176,7383.385
1512180647,10.900,5.900,19.200,38880.000,35340.000,1023320.000,-79000.000,-77000.000,5000.000,8.219,2.449,-94.979,-14.080,-21.753,-2.100,13605.978,-10955.286,7008.705
1512180647,65.100,22.200,7.500,31800.000,52860.000,1076900.000,-79000.000,-77000.000,5000.000,7.166,5.651,-96.051,-33.187,-15.236,2.718,13533.087,-10505.396,7159.554
1512180647,21.700,21.600,9.200,38150.000,58350.000,978330.000,-75000.000,-70000.000,11000.000,7.180,3.516,-97.124,-10.477,-17.000,-0.582,13459.097,-10280.512,7160.301
1512180647,36.400,24.600,8.800,-11470.000,68180.000,1022460.000,-75000.000,-70000.000,11000.000,6.135,5.653,-98.198,-37.108,-20.977,2.879,13532.660,-10580.393,7009.514
1512180647,-1.300,20.200,8.100,-10010.000,97960.000,990420.000,-75000.000,-70000.000,11000.000,8.320,1.392,-101.378,-19.446,-13.179,-3.407,13609.426,-10205.286,7159.050
1512180647,-10.900,15.800,6.500,-9890.000,49560.000,1034670.000,-75000.000,-70000.000,11000.000,5.098,4.585,-100.350,-22.606,-21.321,11.878,13534.201,-10205.393,6709.694
1512180647,20.400,6.500,13.300,2500.000,34480.000,993710.000,-79000.000,-63000.000,28000.000,8.319,5.663,-101.364,-29.158,-18.453,-5.521,13910.299,-9979.837,6856.606
1512180647,-8.300,1.900,7.900,24600.000,31010.000,943600.000,-79000.000,-63000.000,28000.000,5.144,1.392,-102.489,-31.903,-22.218,1.499,13910.666,-9904.825,6931.648
1512180647,-34.000,-1.100,4.900,20510.000,-4150.000,921810.000,-79000.000,-63000.000,28000.000,7.344,0.334,-106.726,-15.332,-18.359,-9.438,13833.609,-10354.944,6857.079
1512180647,-3.900,-0.500,6.400,5490.000,36930.000,943600.000,-79000.000,-63000.000,28000.000,5.191,1.395,-105.688,-39.506,-25.570,0.655,13683.905,-10280.176,6783.379
1512180647,8.500,7.300,86.700,-16300.000,44310.000,1074400.000,-79000.000,-63000.000,28000.000,8.449,-1.800,-109.918,-19.270,-10.756,-5.819,13756.887,-10730.066,6782.539
1512180647,-2.400,26.900,207.100,-15200.000,34850.000,1043950.000,-65000.000,-77000.000,5000.000,8.502,3.015,-112.564,-26.617,-18.468,-9.595,13873.037,-9904.886,6669.464
1512180647,-3.200,39.700,265.100,-8120.000,42790.000,997070.000,-65000.000,-77000.000,5000.000,5.373,0.879,-117.417,-19.628,-19.823,1.845,13910.856,-9829.828,6631.683
1512180647,-7.900,54.600,273.800,7140.000,50900.000,1062500.000,-65000.000,-77000.000,5000.000,5.394,6.759,-117.927,-35.584,-21.203,-3.889,13873.266,-9829.889,6444.496
1512180647,-40.200,64.000,304.000,3230.000,57620.000,999630.000,-65000.000,-77000.000,5000.000,4.403,6.764,-122.740,-32.045,-22.162,-0.681,14211.118,-9754.381,6479.164
1512180647,8.500,68.000,285.200,0.000,53770.000,1054630.000,-65000.000,-77000.000,5000.000,2.311,9.438,-124.892,-38.067,-18.032,-1.399,14023.191,-9829.660,6293.221
1512180647,72.200,59.100,369.400,22770.000,48100.000,1022220.000,-19000.000,7000.000,-28000.000,3.425,6.240,-128.086,-26.988,-25.377,5.804,13984.617,-10054.720,6180.939
1512180647,-156.200,87.100,439.400,1710.000,45590.000,855100.000,-19000.000,7000.000,-28000.000,3.502,11.056,-132.331,-32.806,-20.229,-1.118,14136.419,-9679.491,6404.831
1512180647,-19.200,14.600,439.200,30580.000,19710.000,878480.000,-19000.000,7000.000,-28000.000,3.521,9.988,-133.936,-31.879,-26.047,7.387,14287.321,-9491.770,6516.144
1512180647,-177.500,3.300,269.200,4150.000,34120.000,827270.000,-19000.000,7000.000,-28000.000,8.394,7.334,-138.672,-15.447,-16.026,-14.413,14400.641,-9304.094,6477.783
1512180647,70.200,-52.700,55.000,-142460.000,122800.000,891300.000,12000.000,91000.000,-82000.000,8.373,5.729,-137.613,-33.996,-23.396,-0.228,14438.986,-9154.039,6815.025
1512180647,-189.600,49.900,38.600,-171020.000,13310.000,928280.000,12000.000,91000.000,-82000.000,7.904,5.203,-141.351,-16.384,-19.087,0.059,14551.389,-9153.872,6626.572
1512180647,-2.100,-11.600,27.700,-48340.000,63720.000,1038150.000,12000.000,91000.000,-82000.000,10.036,6.811,-140.780,-31.391,-20.584,9.674,14441.130,-8666.537,6702.751
1512180648,-87.900,-25.600,24.400,-8910.000,-39920.000,946470.000,12000.000,91000.000,-82000.000,13.249,8.953,-141.793,-28.107,-20.742,0.222,14889.944,-8928.370,6698.814
1512180648,-73.000,-69.800,38.200,60300.000,-11960.000,984130.000,12000.000,91000.000,-82000.000,10.043,11.079,-141.834,-37.349,-14.488,9.077,14589.651,-9003.809,6776.314
1512180648,18.500,-85.100,31.400,-2260.000,-48710.000,1044860.000,17000.000,89000.000,-74000.000,15.387,7.892,-141.763,-22.349,-13.191,-14.788,14663.595,-9228.708,6700.584
1512180648,-51.100,-69.200,38.200,-5980.000,-32290.000,989070.000,17000.000,89000.000,-74000.000,15.420,-0.654,-144.994,-21.576,-18.108,-8.443,14510.489,-9903.925,6551.552
1512180648,-44.300,-49.900,44.200,24960.000,-56950.000,1020630.000,17000.000,89000.000,-74000.000,18.635,0.420,-146.010,-29.434,-29.328,5.568,14816.153,-8703.470,7074.547
1512180648,-9.600,-45.900,52.900,-20450.000,-39730.000,1078980.000,17000.000,89000.000,-74000.000,13.366,3.626,-149.272,-39.771,-15.142,2.269,14742.834,-8328.577,7075.356
1512180648,-5.900,-31.200,54.600,19040.000,-41750.000,1012330.000,17000.000,89000.000,-74000.000,20.886,8.986,-152.342,-12.950,-8.912,-12.892,14816.412,-8628.473,6924.583
1512180648,16.900,-27.300,56.100,-4270.000,-11780.000,1093380.000,12000.000,88000.000,-82000.000,14.419,6.831,-148.179,-37.652,-3.830,9.389,14741.064,-8703.592,6925.194
1512180648,16.600,-26.000,42.300,9830.000,-78920.000,991700.000,12000.000,88000.000,-82000.000,19.715,8.971,-145.963,-28.566,-5.677,-9.710,14590.658,-8778.818,6776.421
1512180648,-10.900,-24.100,57.300,6100.000,4150.000,995910.000,12000.000,88000.000,-82000.000,16.557,16.448,-148.115,-48.154,-9.771,-23.678,14815.695,-8778.467,6849.510
1512180648,-16.600,-25.700,59.400,-33450.000,-34480.000,1035520.000,12000.000,88000.000,-82000.000,16.546,20.720,-147.033,-19.210,-9.244,-17.870,14968.206,-8253.244,7148.476
1512180648,-10.700,-50.200,66.700,-35770.000,-34550.000,976750.000,14000.000,86000.000,-84000.000,13.278,20.706,-142.817,-40.224,-5.683,0.780,14818.548,-8178.476,7149.788
1512180648,-58.600,-54.900,75.500,-22400.000,-45170.000,952150.000,14000.000,86000.000,-84000.000,13.317,28.187,-144.923,-45.418,-8.172,-0.555,14968.924,-8103.251,7223.549
1512180648,-7.200,-56.500,72.400,-46570.000,-38330.000,995970.000,14000.000,86000.000,-84000.000,13.315,31.397,-143.842,-44.054,-13.329,7.699,14894.186,-8028.360,7074.226
1512180648,-25.800,-54.700,75.800,-27710.000,-3170.000,954710.000,14000.000,86000.000,-84000.000,16.517,30.329,-144.869,-13.503,-5.936,-13.043,14892.538,-8403.360,7149.055
1512180648,-38.200,-43.900,70.200,-30940.000,-65120.000,951540.000,14000.000,86000.000,-84000.000,9.038,31.383,-143.907,-43.332,-1.197,10.557,15042.425,-8403.131,6922.768
1512180648,-5.900,-42.100,67.500,27340.000,-19170.000,976320.000,8000.000,91000.000,-79000.000,13.351,27.123,-147.058,-26.146,2.714,-7.216,15344.107,-8027.674,6920.403
1512180648,-7.500,-36.500,59.400,-25940.000,-48580.000,1012020.000,8000.000,91000.000,-79000.000,9.171,26.057,-152.454,-20.371,-5.194,5.727,15119.223,-8028.009,7147.316
1512180648,24.600,-40.200,64.800,-2560.000,-25570.000,1046570.000,8000.000,91000.000,-79000.000,12.443,27.141,-156.666,-3.394,2.567,-13.270,15494.665,-7952.448,7369.148
1512180648,-6.900,-39.800,67.200,23680.000,-45040.000,972600.000,8000.000,91000.000,-79000.000,4.949,27.126,-154.642,-15.260,-0.822,5.986,15568.167,-8252.344,7068.382
1512180648,0.800,-42.500,68.300,15560.000,-32960.000,1026430.000,22000.000,88000.000,-82000.000,9.259,22.864,-157.793,-7.526,-4.115,-10.507,14889.791,-9003.366,7073.769
1512180648,-10.900,-20.500,71.100,-1400.000,-60790.000,980100.000,22000.000,88000.000,-82000.000,4.975,20.719,-156.797,-5.177,-10.930,-6.120,15569.372,-8027.338,7443.489
1512180648,50.700,-14.600,71.100,37230.000,-3720.000,1057010.000,22000.000,88000.000,-82000.000,5.971,21.780,-152.515,-2.136,-2.370,-11.206,15420.416,-7802.561,7519.859
1512180648,39.300,-8.100,72.600,-4760.000,-14400.000,1068050.000,22000.000,88000.000,-82000.000,4.913,22.850,-152.524,-14.170,-13.375,-1.946,15419.744,-7952.570,7519.798
1512180648,63.600,-23.400,83.600,65370.000,-5980.000,1047730.000,22000.000,88000.000,-82000.000,7.498,15.900,-148.248,-7.600,0.579,-5.154,15572.058,-7464.838,7743.743
1512180648,2.100,-30.900,86.000,-4460.000,11840.000,1004270.000,21000.000,96000.000,-88000.000,6.830,14.814,-140.267,-28.691,1.999,-0.056,15797.583,-7351.999,7779.381
1512180648,-93.600,-9.900,95.100,-20810.000,30030.000,896550.000,21000.000,96000.000,-88000.000,9.483,11.078,-139.708,-2.056,6.048,-1.487,15834.326,-7501.940,7628.998
1512180648,-40.300,-11.500,87.200,4390.000,-31560.000,993100.000,21000.000,96000.000,-88000.000,12.145,7.344,-139.682,-14.252,8.239,-3.634,16134.520,-7463.992,7663.964
1512180648,-0.400,-12.800,88.200,-56030.000,13670.000,1045290.000,21000.000,96000.000,-88000.000,17.528,7.359,-142.802,-20.330,12.248,2.361,16248.984,-7013.834,7550.720
1512180648,-67.800,-7.200,85.000,-30150.000,-6160.000,902830.000,21000.000,96000.000,-88000.000,20.786,10.043,-145.942,-20.456,6.067,-5.926,16136.732,-6976.488,7701.690
1512180648,-49.000,3.500,74.200,21480.000,-29110.000,973140.000,5000.000,84000.000,-82000.000,21.776,6.830,-141.675,-29.684,-2.280,2.704,16286.413,-7051.264,7737.877
1512180648,32.500,12.100,66.200,58650.000,83500.000,1135440.000,5000.000,84000.000,-82000.000,21.175,7.353,-137.954,-18.823,-3.849,-3.687,16624.792,-6825.762,7472.618
1512180648,-33.400,-2.400,77.800,60000.000,3480.000,1037600.000,5000.000,84000.000,-82000.000,16.839,13.746,-133.196,-45.773,-11.587,15.972,16738.532,-6563.089,7584.275
1512180648,-37.600,-13.200,102.500,-42660.000,-44740.000,1038570.000,5000.000,84000.000,-82000.000,17.454,18.029,-137.970,-22.197,-8.504,-0.239,16739.767,-6300.592,7696.899
1512180648,-64.200,47.300,124.400,15990.000,-41810.000,906980.000,28000.000,86000.000,-94000.000,15.311,12.685,-137.486,-34.543,-3.788,5.019,16628.714,-5963.251,7548.012
1512180648,46.600,51.800,155.700,18190.000,-67930.000,828860.000,28000.000,86000.000,-94000.000,15.431,5.221,-145.507,-23.260,-4.282,0.815,16627.531,-6225.756,7547.890
1512180648,35.700,-2.300,278.600,24350.000,-36010.000,850340.000,28000.000,86000.000,-94000.000,16.581,3.099,-150.293,-26.253,11.953,-7.964,16365.835,-6038.645,7475.204
1512180649,-57.400,2.800,318.600,-6650.000,-37840.000,858220.000,28000.000,86000.000,-94000.000,16.577,4.698,-150.289,-31.090,10.236,-22.030,16253.119,-6076.319,7363.640
1512180649,163.300,-43.800,218.200,-26370.000,-71530.000,1062320.000,28000.000,86000.000,-94000.000,15.545,3.633,-152.440,-47.895,21.125,-13.012,15954.718,-5701.761,7216.377
1512180649,-119.200,31.300,129.200,-23440.000,-41870.000,913760.000,52000.000,93000.000,-88000.000,10.285,-1.707,-156.799,-35.822,6.656,-9.427,15952.063,-6301.767,7291.100
1512180649,-28.800,23.000,119.600,28440.000,-18620.000,960450.000,52000.000,93000.000,-88000.000,15.705,0.449,-162.042,-18.266,15.167,-16.434,16255.178,-5626.307,7438.866
1512180649,47.000,0.400,98.000,-6160.000,-47550.000,1004580.000,52000.000,93000.000,-88000.000,12.445,-0.628,-157.827,-42.179,4.559,-3.663,16405.478,-5551.096,7362.617
1512180649,-67.600,33.600,90.400,12940.000,-48280.000,976140.000,52000.000,93000.000,-88000.000,15.654,-1.691,-158.852,-60.035,0.080,1.674,16106.070,-5401.545,7215.233
1512180649,-19.600,12.300,114.200,28690.000,-59270.000,970950.000,52000.000,93000.000,-88000.000,11.470,-8.099,-164.266,-46.616,5.112,22.382,16254.950,-5626.307,6988.853
1512180649,-34.100,15.700,112.000,12880.000,-52190.000,970280.000,56000.000,107000.000,-84000.000,14.705,-3.817,-166.336,-20.349,2.164,-17.618,16027.655,-6151.651,7140.526
1512180649,-27.200,27.200,109.200,16420.000,-51570.000,1019710.000,56000.000,107000.000,-84000.000,14.676,1.521,-164.186,-87.328,6.378,12.041,16029.531,-5701.654,6840.736
1512180649,-9.200,16.400,120.200,8730.000,-49130.000,996770.000,56000.000,107000.000,-84000.000,17.981,-2.739,-171.618,-46.051,17.320,7.120,16480.474,-5475.977,6687.019
1512180649,-24.400,15.400,143.700,14710.000,-39670.000,1002870.000,56000.000,107000.000,-84000.000,16.995,2.612,-175.877,-30.463,7.776,-11.634,16330.816,-5401.209,6688.332
1512180649,8.300,-8.700,116.600,9280.000,-52670.000,1041990.000,75000.000,102000.000,-82000.000,20.161,10.089,-173.673,-62.564,29.203,-9.165,16629.461,-5700.754,6685.631
1512180649,-28.500,13.400,130.100,14530.000,-4640.000,1022460.000,75000.000,102000.000,-82000.000,18.080,6.888,-176.912,-55.259,15.932,-1.757,16477.057,-6225.977,6611.671
1512180649,-35.300,-0.900,128.900,-30820.000,-40890.000,1022830.000,75000.000,102000.000,-82000.000,19.171,13.295,-179.010,-66.894,17.648,-6.580,16705.999,-5325.632,6385.170
1512180649,8.400,-16.800,111.900,15010.000,-40890.000,1028140.000,75000.000,102000.000,-82000.000,21.384,11.177,-183.247,-76.010,24.502,0.841,16554.693,-5625.864,6461.311
1512180649,-36.500,-3.100,111.900,45650.000,-30460.000,1008360.000,75000.000,102000.000,-82000.000,24.649,9.060,-186.401,-53.044,25.771,-17.791,16855.627,-5400.415,6308.861
1512180649,13.700,0.800,111.900,1340.000,-59810.000,1027340.000,68000.000,112000.000,-72000.000,18.310,13.323,-190.746,-64.656,14.989,4.911,17079.016,-5775.080,6456.779
1512180649,-56.900,28.000,101.100,25390.000,-55660.000,950070.000,68000.000,112000.000,-72000.000,21.516,12.264,-190.701,-77.488,23.826,-15.503,17156.485,-5174.967,6006.416
1512180649,-30.500,30.800,99.300,43640.000,-44070.000,946470.000,68000.000,112000.000,-72000.000,20.553,9.071,-197.123,-54.653,5.256,6.273,17306.417,-5174.738,5855.141
1512180649,78.600,-11.600,103.900,6650.000,-87650.000,1026180.000,68000.000,112000.000,-72000.000,20.613,19.758,-200.283,-34.379,5.758,-1.214,17077.291,-6075.083,5706.642
1512180649,-31.300,20.100,106.500,15440.000,5250.000,945370.000,68000.000,112000.000,-72000.000,16.304,17.607,-198.223,-70.789,4.682,16.724,17231.482,-5174.845,6005.775
1512180649,-9.300,24.000,110.300,2080.000,-25700.000,1032230.000,79000.000,119000.000,-69000.000,23.803,15.488,-200.253,-43.475,13.067,-8.176,17307.470,-4949.732,5930.260
1512180649,33.700,20.000,113.500,-30520.000,-13730.000,1011170.000,79000.000,119000.000,-69000.000,20.693,20.833,-205.611,-34.789,-7.950,1.904,17232.092,-5024.851,5855.858
1512180649,-7.300,34.800,121.800,-21360.000,1220.000,1000980.000,79000.000,119000.000,-69000.000,25.988,20.837,-203.402,-33.292,2.565,-8.546,17231.558,-5174.845,6155.785
1512180649,51.000,13.600,114.000,27650.000,-46200.000,1029540.000,79000.000,119000.000,-69000.000,17.456,16.558,-202.470,-53.874,-4.364,7.905,17083.029,-4800.074,5707.237
1512180649,19.700,26.100,112.400,15870.000,-34300.000,1067440.000,75000.000,119000.000,-82000.000,28.137,16.572,-204.450,-23.896,3.314,-15.238,17082.312,-5025.064,6307.121
1512180649,16.000,23.600,103.100,59510.000,-46260.000,1089480.000,75000.000,119000.000,-82000.000,23.320,13.890,-203.464,-29.962,-4.064,8.755,17270.544,-4837.290,6080.620
1512180649,44.600,-12.700,100.000,-5920.000,27100.000,1077390.000,75000.000,119000.000,-82000.000,23.339,9.623,-204.543,-29.100,-2.687,-1.823,17271.223,-4687.288,6080.688
1512180649,-9.200,-7.700,101.200,-13730.000,35640.000,1051210.000,75000.000,119000.000,-82000.000,23.834,6.415,-202.416,-35.681,-1.425,3.084,17122.228,-4500.009,6419.548
1512180649,59.100,-35.700,105.100,-30820.000,17880.000,1066410.000,75000.000,119000.000,-82000.000,24.909,3.748,-202.941,-26.163,-4.882,-6.596,16860.426,-4350.404,6459.343
1512180649,25.600,-58.600,123.000,-41810.000,66830.000,1034120.000,72000.000,119000.000,-76000.000,20.642,1.066,-203.548,-24.772,4.519,-6.764,16897.383,-4500.345,6721.458
1512180649,-42.900,-35.800,124.200,-84230.000,-70860.000,1000670.000,72000.000,119000.000,-76000.000,20.064,8.541,-199.796,-29.631,1.780,-7.557,16899.931,-3937.837,6759.216
1512180649,-80.700,-5.700,123.800,35340.000,-16910.000,864810.000,72000.000,119000.000,-76000.000,21.098,8.003,-198.186,-17.296,-7.329,-2.867,16825.850,-3750.452,6909.943
1512180649,-98.700,54.500,163.000,41080.000,-51270.000,818600.000,72000.000,119000.000,-76000.000,23.147,6.931,-192.828,-28.701,-5.018,4.399,16824.782,-4012.956,7134.819
1512180649,221.800,-78.800,267.100,14280.000,-73670.000,1113770.000,72000.000,119000.000,-76000.000,27.928,-6.417,-192.806,-6.814,-7.286,9.429,16753.462,-3225.565,7398.323
1512180649,-339.000,101.200,257.800,56950.000,-26610.000,915710.000,87000.000,125000.000,-64000.000,29.999,-7.488,-189.049,-17.086,-9.514,1.912,16828.649,-3187.952,7435.196
1512180649,-177.500,64.300,327.300,5980.000,-53590.000,950070.000,87000.000,125000.000,-64000.000,25.741,-6.429,-189.641,-14.742,-14.320,-2.118,16866.331,-3150.392,7472.404
1512180649,136.200,-31.300,392.300,8120.000,-37050.000,921390.000,87000.000,125000.000,-64000.000,22.510,-6.971,-187.556,-26.269,-12.821,1.061,17131.239,-2624.994,7545.418
1512180650,118.500,-10.700,359.800,20750.000,-54140.000,999450.000,87000.000,125000.000,-64000.000,23.543,-6.972,-185.409,-37.904,-9.261,-29.877,16944.052,-2550.272,7509.544
1512180650,-62.700,59.500,300.700,35520.000,-50960.000,1023680.000,137000.000,178000.000,-91000.000,15.014,-9.122,-185.540,-35.209,-21.361,24.253,16944.159,-2550.272,7734.535
1512180650,-9.500,46.600,283.500,47730.000,-68540.000,1017940.000,137000.000,178000.000,-91000.000,17.134,-5.914,-184.431,-56.520,-14.982,-9.175,17018.835,-2625.162,7733.864
1512180650,-124.800,105.700,319.700,56340.000,-69890.000,972170.000,137000.000,178000.000,-91000.000,17.167,-3.775,-186.557,-11.650,-16.448,-8.204,17094.198,-2550.058,7808.266
1512180650,-207.300,129.200,347.700,8790.000,-64700.000,956790.000,137000.000,178000.000,-91000.000,14.935,0.482,-180.177,-51.340,-20.704,3.597,17097.204,-1875.055,7733.574
1512180650,-19.000,52.300,288.400,-15080.000,-74830.000,982300.000,137000.000,178000.000,-91000.000,16.031,-0.582,-182.298,-56.630,-28.094,13.995,17095.922,-2175.043,7883.430
1512180650,95.200,-1.200,198.700,3230.000,-86300.000,969730.000,182000.000,202000.000,-77000.000,18.254,1.569,-187.589,-25.788,-16.796,-18.374,17322.912,-1724.710,7806.725
1512180650,1.900,25.600,110.400,-9340.000,-8970.000,1019290.000,182000.000,202000.000,-77000.000,12.882,5.824,-185.522,-34.029,-32.308,0.474,16947.500,-1800.272,7659.889
1512180650,106.500,-19.300,108.700,-15750.000,-17400.000,1038820.000,182000.000,202000.000,-77000.000,18.171,7.968,-182.237,-61.522,-21.851,12.240,17095.251,-2325.052,7883.354
1512180650,-28.500,43.900,113.500,-10930.000,-1340.000,1022640.000,182000.000,202000.000,-77000.000,9.664,3.687,-183.440,-44.153,-31.969,13.721,17173.361,-1649.927,8033.043
1512180650,8.400,39.400,119.000,7750.000,-55790.000,1037720.000,182000.000,202000.000,-77000.000,17.105,13.305,-182.235,-42.635,-32.227,-3.797,17698.675,-1574.152,7953.606
1512180650,-38.100,64.800,125.600,19840.000,-44740.000,968440.000,151000.000,213000.000,-84000.000,9.633,13.295,-181.276,-45.223,-16.043,4.450,17624.716,-1349.253,8029.350
1512180650,37.700,20.800,178.400,49680.000,-90640.000,1027470.000,151000.000,213000.000,-84000.000,9.668,17.570,-183.393,-18.172,-39.135,11.888,17624.487,-1424.250,8254.311
1512180650,-41.300,48.500,100.000,7260.000,-66410.000,965210.000,151000.000,213000.000,-84000.000,12.804,25.046,-179.057,-32.309,-32.906,-17.577,18000.799,-1123.697,8176.262
1512180650,106.000,-1.500,99.700,60.000,-30090.000,1023620.000,151000.000,213000.000,-84000.000,3.162,20.755,-176.012,-51.120,-30.023,17.424,18073.446,-1648.584,8175.392
1512180650,-48.600,75.000,99.700,-13490.000,-31250.000,1002440.000,172000.000,213000.000,-74000.000,12.799,23.975,-179.062,-52.465,-27.200,-6.261,18227.713,-673.349,7949.562
1512180650,47.300,36.200,102.400,7870.000,-35580.000,984990.000,172000.000,213000.000,-74000.000,5.419,18.632,-184.518,4.061,-37.381,10.183,18075.323,-1198.587,7875.587
1512180650,65.000,8.000,97.100,-26430.000,-70980.000,991150.000,172000.000,213000.000,-74000.000,9.452,25.016,-170.580,-32.455,-29.214,-10.147,18450.171,-1273.020,8247.368
1512180650,15.800,11.700,102.400,-9950.000,-34730.000,958440.000,172000.000,213000.000,-74000.000,9.408,21.811,-167.391,-75.062,-17.008,-10.345,18452.978,-598.017,7797.691
1512180650,-41.700,30.500,105.200,-11960.000,-27400.000,962950.000,172000.000,213000.000,-74000.000,4.230,19.683,-177.070,-19.657,-30.828,2.669,18450.949,-1048.014,7797.478
1512180650,22.400,2.900,103.500,19900.000,-19470.000,1021300.000,170000.000,229000.000,-72000.000,10.566,27.164,-172.686,-0.875,-39.926,-34.590,19128.439,-521.997,8016.975
1512180650,-0.400,7.900,100.700,60.000,7570.000,969300.000,170000.000,229000.000,-72000.000,1.879,22.860,-163.232,-48.889,-28.577,17.712,18903.204,-597.345,8243.858
1512180650,-7.900,-7.300,92.900,23190.000,-7690.000,1069580.000,170000.000,229000.000,-72000.000,9.352,36.759,-163.075,-79.720,-27.270,8.160,19277.533,-746.775,8240.608
1512180650,33.000,-36.400,95.900,-34060.000,-30700.000,1023250.000,170000.000,229000.000,-72000.000,9.434,34.631,-168.413,-33.129,-35.630,-10.898,19278.402,-521.784,7940.712
1512180650,-21.400,4.000,90.500,30090.000,-35640.000,1007320.000,170000.000,229000.000,-72000.000,9.401,36.763,-166.273,15.184,-30.589,-19.434,19052.114,-822.123,8092.476
1512180650,20.500,-7.500,87.200,-13550.000,-82520.000,1009160.000,180000.000,232000.000,-66000.000,9.186,37.810,-152.411,-26.626,-27.402,-13.335,19353.399,-521.662,7940.071
1512180650,-7.500,3.500,91.300,6590.000,-63840.000,995610.000,180000.000,232000.000,-66000.000,9.251,38.347,-157.209,-46.894,-25.553,-6.905,19655.516,-71.207,8125.229
1512180650,-33.200,15.000,94.100,30760.000,-44370.000,984010.000,180000.000,232000.000,-66000.000,11.912,50.098,-156.597,-20.709,-18.670,1.526,19767.751,-108.538,7936.752
1512180650,-61.900,16.900,98.300,-23860.000,-31010.000,1071290.000,180000.000,232000.000,-66000.000,17.713,62.920,-151.669,-41.438,-17.516,-18.821,20218.466,42.135,8008.003
1512180650,-89.300,56.200,93.500,-45840.000,-46390.000,933470.000,172000.000,223000.000,-64000.000,17.591,57.563,-144.761,-23.049,-8.269,-11.402,20669.371,230.306,8116.760
1512180650,35.200,39.000,130.500,32410.000,-72140.000,976260.000,172000.000,223000.000,-64000.000,18.721,47.960,-149.043,-19.450,-10.032,-10.657,20782.583,417.983,7853.386
1512180650,25.300,37.300,90.400,-17880.000,-58110.000,999570.000,172000.000,223000.000,-64000.000,17.999,44.730,-137.871,-12.162,-11.971,-4.121,21269.918,381.209,7849.228
1512180650,-107.500,65.900,89.500,6350.000,-91310.000,899720.000,172000.000,223000.000,-64000.000,14.360,31.387,-143.832,20.349,-14.319,15.884,21683.057,531.828,7770.798
1512180650,105.700,-32.200,87.800,-18310.000,-57680.000,1054020.000,172000.000,223000.000,-64000.000,10.399,29.751,-130.037,-5.300,-11.942,18.790,21528.708,-405.901,7509.140
1512180650,-74.400,52.900,86.400,-91250.000,-25210.000,956480.000,188000.000,225000.000,-79000.000,13.015,21.201,-127.898,-4.104,-1.845,8.997,22171.362,720.061,7691.742
1512180650,81.600,1.200,88.200,-23620.000,-4520.000,1038760.000,188000.000,225000.000,-79000.000,7.055,17.444,-122.134,-6.772,-1.699,15.099,22545.485,570.623,7275.986
1512180650,-183.600,124.600,86.200,-62070.000,-25210.000,957580.000,188000.000,225000.000,-79000.000,9.164,19.047,-120.498,-13.172,9.104,-19.625,22845.655,608.572,7273.452
1512180650,162.900,-65.200,92.300,-47360.000,-15200.000,1016300.000,188000.000,225000.000,-79000.000,3.247,14.759,-117.401,-21.391,16.245,-8.970,22958.418,683.745,7122.536
1512180651,9.700,-20.800,84.700,-10010.000,-8730.000,1018430.000,188000.000,225000.000,-79000.000,-2.030,11.020,-120.688,-6.922,12.559,8.503,23183.996,834.082,6933.189
1512180651,-10.500,-2.000,110.900,-39790.000,-55480.000,962950.000,180000.000,232000.000,-86000.000,0.108,20.637,-120.623,-10.544,16.008,-21.548,23107.275,458.960,6858.650
1512180651,-11.100,12.500,73.500,-18740.000,-24350.000,1052120.000,180000.000,232000.000,-86000.000,1.155,9.958,-119.578,-4.733,23.985,-22.687,23183.661,759.085,6933.159
1512180651,31.300,12.800,75.200,11410.000,-23740.000,996700.000,180000.000,232000.000,-86000.000,-5.273,12.073,-118.602,8.287,12.131,-3.524,23331.594,309.301,6856.667
1512180651,-28.100,40.300,69.600,-13370.000,-41630.000,1033570.000,180000.000,232000.000,-86000.000,-5.402,17.401,-110.055,-35.442,9.793,-5.956,23558.920,834.646,6780.006
1512180651,62.700,-0.500,74.200,37900.000,-40160.000,1059510.000,193000.000,234000.000,-88000.000,-5.354,13.134,-113.267,-10.214,15.500,9.020,23557.501,534.643,6629.860
1512180651,-30.600,51.700,68.600,850.000,-17460.000,1026060.000,193000.000,234000.000,-88000.000,-0.076,14.204,-109.989,13.540,7.682,-10.369,23634.069,909.765,6404.411
1512180651,-55.400,64.400,74.600,-31620.000,-37540.000,952210.000,193000.000,234000.000,-88000.000,-4.426,17.391,-104.711,-28.058,6.759,18.885,23783.316,759.985,6253.059
1512180651,108.400,-2.000,67.500,-65120.000,4330.000,1005070.000,193000.000,234000.000,-88000.000,-4.497,14.179,-100.458,-31.153,7.440,19.780,23784.109,909.979,6478.127
1512180651,71.100,24.200,70.600,-25760.000,6410.000,1013790.000,193000.000,234000.000,-88000.000,0.799,8.845,-98.266,2.463,15.047,-1.139,23558.920,909.643,6105.034
1512180651,-36.000,75.900,65.100,-41320.000,-17640.000,1020690.000,203000.000,237000.000,-108000.000,-0.316,4.561,-96.168,7.282,8.937,0.368,23559.591,1059.652,6105.110
1512180651,62.900,24.100,63.400,-65190.000,-41810.000,960450.000,203000.000,237000.000,-108000.000,1.729,1.351,-90.818,-10.198,3.792,15.177,23410.223,1209.417,6031.456
1512180651,9.900,36.900,56.700,-26550.000,-38210.000,1020870.000,203000.000,237000.000,-108000.000,-0.367,-1.851,-92.991,-9.841,1.857,34.183,23634.115,984.762,5804.436
1512180651,-31.600,48.500,64.700,-54690.000,7140.000,946590.000,203000.000,237000.000,-108000.000,0.712,-8.257,-94.064,3.498,7.272,21.745,23483.877,909.536,6030.678
1512180651,55.700,10.000,51.900,-16480.000,7450.000,1018860.000,198000.000,250000.000,-93000.000,0.742,-11.459,-96.207,52.630,10.583,12.562,23635.122,1209.753,5804.543
1512180651,-10.000,38.700,51.800,-15990.000,-28990.000,1002380.000,198000.000,250000.000,-93000.000,-2.588,-11.483,-88.796,-2.782,5.653,24.370,23483.541,909.536,5355.690
1512180651,-96.800,71.900,49.500,-32900.000,-25630.000,907710.000,198000.000,250000.000,-93000.000,1.652,-21.085,-86.631,-0.451,8.191,15.677,23411.322,1509.420,5506.599
1512180651,148.200,-43.500,47.100,-31740.000,-34300.000,994380.000,198000.000,250000.000,-93000.000,-0.452,-29.630,-88.823,25.025,18.771,17.130,23334.555,1134.314,5357.063
1512180651,-35.000,21.800,41.000,-34910.000,9770.000,1021610.000,198000.000,250000.000,-93000.000,6.910,-24.296,-83.372,0.143,8.488,-15.862,23635.489,1359.762,5204.613
1512180651,76.400,-35.300,39.500,-25090.000,-5130.000,1087460.000,186000.000,237000.000,-98000.000,2.575,-33.922,-79.202,-5.603,26.603,-8.555,23259.604,1134.192,5432.701
1512180651,-32.800,11.500,36.100,-73670.000,-78430.000,1057130.000,186000.000,237000.000,-98000.000,2.591,-32.853,-80.265,-15.718,24.044,-0.128,23335.913,1434.317,5357.201
1512180651,-86.800,52.100,67.800,-25090.000,-22890.000,834840.000,186000.000,237000.000,-98000.000,6.831,-28.573,-78.054,-1.552,26.945,-18.818,23183.737,984.076,5058.266
1512180651,-26.400,35.800,39.100,-17400.000,-32960.000,997310.000,186000.000,237000.000,-98000.000,2.486,-28.594,-73.856,-20.843,16.504,11.848,22809.561,1133.520,5361.519
1512180651,29.800,-4.800,34.500,-45100.000,-550.000,884890.000,186000.000,237000.000,-98000.000,4.575,-24.321,-70.611,-26.031,13.841,-7.173,22656.301,458.288,4912.483
1512180651,1.200,9.200,31.600,-14590.000,-3230.000,1013120.000,170000.000,243000.000,-96000.000,5.596,-24.329,-68.467,-29.218,14.257,0.873,22581.778,533.178,5213.158
1512180651,66.700,-14.200,36.900,-20570.000,-56880.000,1020690.000,170000.000,243000.000,-96000.000,3.488,-21.123,-69.551,-22.505,17.383,-7.255,23334.661,1209.311,4907.097
1512180651,-16.200,32.100,31.600,19710.000,-25700.000,1028200.000,170000.000,243000.000,-96000.000,6.110,-16.853,-66.833,-18.163,23.377,-3.107,22547.171,1208.120,4913.796
1512180651,-39.800,45.000,33.600,-18980.000,-36620.000,885380.000,170000.000,243000.000,-96000.000,5.043,-12.580,-66.300,-33.672,24.003,5.115,22508.574,983.068,4764.000
1512180651,10.400,1.300,110.000,30330.000,11720.000,979490.000,165000.000,245000.000,-101000.000,8.197,-5.636,-63.031,-6.946,11.339,-12.700,22584.898,1245.679,5025.985
1512180651,26.000,-18.900,34.000,13430.000,47060.000,976560.000,165000.000,245000.000,-101000.000,8.204,-8.306,-63.573,-6.484,6.724,10.120,22359.411,1132.841,5065.354
1512180651,2.800,-6.900,33.000,-58780.000,-8540.000,1084530.000,165000.000,245000.000,-101000.000,9.722,-0.309,-59.263,-12.511,-17.896,-5.931,22285.849,1470.236,4916.137
1512180651,-57.300,33.000,23.600,12820.000,-24900.000,1062380.000,165000.000,245000.000,-101000.000,10.757,-7.250,-57.138,-6.971,-62.059,10.823,22098.577,1507.452,5030.251
1512180651,45.500,-26.200,26.500,-29050.000,16170.000,1009520.000,165000.000,245000.000,-101000.000,18.127,-13.123,-51.721,-1.669,-65.199,14.014,21987.310,1807.279,4806.350
1512180651,-62.100,10.800,19.800,-37410.000,-36560.000,1020140.000,180000.000,246000.000,-116000.000,23.423,-11.516,-49.506,6.247,-66.694,-7.935,21158.277,906.049,4850.441
1512180651,60.600,-34.500,18.100,7510.000,-1950.000,991520.000,180000.000,246000.000,-116000.000,22.253,-17.407,-43.681,-2.142,-51.742,-0.860,21273.642,1506.216,5187.264
1512180651,11.200,9.100,17.700,-5800.000,-10740.000,988040.000,180000.000,246000.000,-116000.000,16.924,-9.404,-43.197,3.544,-52.245,-6.523,20487.882,1880.034,5306.633
1512180651,54.500,2.500,13.400,19710.000,7870.000,1033690.000,180000.000,246000.000,-116000.000,10.342,-3.026,-31.543,12.593,-33.321,12.934,19963.644,2029.249,5461.166
1512180651,40.300,16.500,12.300,2260.000,16110.000,985110.000,180000.000,246000.000,-116000.000,2.668,9.753,-18.284,-26.885,-35.877,25.579,19364.759,2253.348,5691.360
1512180652,63.400,20.600,16.800,-4150.000,-34300.000,1045230.000,172000.000,245000.000,-121000.000,-2.644,4.407,-19.445,33.713,-32.969,11.293,18914.541,2177.679,5920.158
1512180652,42.100,7.700,12.500,8540.000,4640.000,981380.000,172000.000,245000.000,-121000.000,-2.789,12.930,-10.892,26.420,-42.484,6.989,18912.130,1577.673,6519.875
1512180652,59.400,-2.100,12.800,6840.000,54020.000,1001160.000,172000.000,245000.000,-121000.000,-5.085,12.912,-0.262,6.496,-2.798,6.723,18465.200,2252.005,6599.007
1512180652,80.300,-20.900,14.400,-23930.000,53160.000,1023380.000,172000.000,245000.000,-121000.000,-4.058,6.500,1.863,17.468,-17.756,11.965,18087.957,1726.431,6826.958
1512180652,-1.900,15.700,26.000,18490.000,53590.000,999390.000,177000.000,229000.000,-126000.000,-0.874,19.319,3.019,59.650,-25.019,7.231,18166.296,2476.553,6751.656
1512180652,41.400,16.000,12.900,13370.000,13370.000,978270.000,177000.000,229000.000,-126000.000,-1.049,20.365,13.680,-2.544,-5.876,9.415,18240.240,2251.669,6675.926
1512180652,20.900,38.700,6.000,14100.000,8180.000,982420.000,177000.000,229000.000,-126000.000,-0.987,13.963,9.394,16.215,-3.155,7.982,17938.192,1726.217,7278.221
1512180652,31.200,24.900,0.800,-9950.000,-28080.000,983090.000,177000.000,229000.000,-126000.000,1.180,16.106,7.300,75.693,0.166,-31.777,17637.915,1725.760,6755.775
1512180652,48.200,4.300,0.400,-11170.000,33260.000,983950.000,177000.000,229000.000,-126000.000,-9.745,6.446,23.100,16.887,-5.495,35.208,17567.495,2700.659,7131.859
1512180652,-26.200,28.500,3.700,-5980.000,3050.000,982300.000,163000.000,239000.000,-113000.000,-4.450,7.519,25.313,-19.184,-16.203,-9.970,17640.585,2250.769,7356.010
1512180652,90.100,-28.400,5.200,-9700.000,38330.000,979060.000,163000.000,239000.000,-113000.000,-7.571,5.383,19.927,46.971,-9.636,-15.264,17565.573,2250.662,7356.651
1512180652,-29.300,22.200,9.300,-14220.000,61160.000,995000.000,163000.000,239000.000,-113000.000,-10.916,8.568,29.487,20.082,-11.312,22.762,17340.612,2250.311,7433.571
1512180652,38.600,-11.200,8.700,-20140.000,16170.000,953310.000,163000.000,239000.000,-113000.000,-5.652,8.570,33.829,9.106,-2.080,-18.339,17640.402,2175.772,7655.983
1512180652,31.700,-10.000,6.000,-49620.000,47000.000,1020080.000,170000.000,229000.000,-116000.000,-16.310,0.005,32.575,31.788,2.298,-10.691,17567.160,2550.665,7806.786
1512180652,14.400,-15.000,4.500,-20940.000,18860.000,970830.000,170000.000,229000.000,-116000.000,-14.225,4.276,35.819,10.883,-19.404,10.114,17642.599,2625.769,8031.181
1512180652,26.000,-14.900,2.500,-21240.000,17210.000,1001100.000,170000.000,229000.000,-116000.000,-14.202,-1.058,34.737,11.345,-12.270,-9.625,17566.290,2325.659,8106.682
1512180652,29.800,-13.400,4.000,8240.000,2690.000,991270.000,170000.000,229000.000,-116000.000,-20.623,10.678,36.817,17.592,-13.331,26.724,17490.835,2250.540,7882.286
1512180652,-15.600,5.100,4.100,-28870.000,6590.000,1032840.000,170000.000,229000.000,-116000.000,-12.142,14.959,40.154,-16.184,-6.155,-11.340,17643.957,2925.772,8031.319
1512180652,19.000,-9.900,-0.400,-7810.000,18490.000,962770.000,173000.000,229000.000,-103000.000,-12.119,10.686,38.005,15.531,8.025,-4.297,17566.961,2475.653,8106.743
1512180652,-36.000,18.500,-0.700,490.000,29110.000,1008420.000,173000.000,229000.000,-103000.000,-19.614,18.146,40.054,-5.018,-10.785,3.590,17643.057,2700.766,8256.218
1512180652,24.800,-6.900,2.300,-44980.000,-180.000,1011660.000,173000.000,229000.000,-103000.000,-10.015,28.841,40.230,-11.319,-26.250,-28.992,17416.403,2325.430,8332.970
1512180652,-51.800,32.100,4.700,-25820.000,18190.000,997010.000,173000.000,229000.000,-103000.000,-13.184,22.431,38.029,18.419,-5.222,0.437,17418.463,2775.442,8408.165
1512180652,77.600,-14.900,4.800,-47610.000,22340.000,1052060.000,158000.000,241000.000,-118000.000,-11.146,33.105,44.493,-23.127,-9.054,14.077,17716.070,2250.875,8330.376
1512180652,-56.700,37.000,5.200,3300.000,25390.000,938480.000,158000.000,241000.000,-118000.000,-4.764,32.047,45.649,-1.950,-27.789,-10.523,17340.200,2025.320,8633.461
1512180652,98.300,-49.100,1.500,-9770.000,30580.000,1011900.000,158000.000,241000.000,-118000.000,-2.721,39.514,51.033,-11.146,-20.426,-8.572,17829.260,2401.052,8366.989
1512180652,-65.000,8.100,-0.500,-70250.000,8670.000,992370.000,158000.000,241000.000,-118000.000,3.108,48.599,53.816,24.288,-27.303,-2.711,18054.693,2476.385,8552.612
1512180652,96.400,-43.000,-2.000,-20080.000,46630.000,996520.000,158000.000,241000.000,-118000.000,9.342,66.214,64.629,-9.071,-31.812,-8.338,18466.596,2364.508,8361.557
1512180652,-20.900,27.200,-5.100,-57430.000,5370.000,995120.000,179000.000,252000.000,-118000.000,6.622,79.552,68.365,1.321,-49.478,5.282,18955.519,2627.745,8845.024
1512180652,61.000,-8.400,-8.000,-29910.000,-4700.000,1015140.000,179000.000,252000.000,-118000.000,7.686,63.003,68.326,27.015,-68.700,-11.296,19140.303,2028.014,8805.656
1512180652,-43.700,28.600,-8.400,9830.000,-13370.000,969420.000,179000.000,252000.000,-118000.000,2.701,60.832,78.904,24.062,-73.472,12.859,19290.457,2028.242,9104.378
1512180652,75.800,-36.900,-8.800,-64330.000,-14160.000,1007510.000,179000.000,252000.000,-118000.000,0.029,57.087,78.851,60.178,-110.237,27.713,19777.838,2028.967,8875.244
1512180652,-77.800,21.000,-9.900,-62620.000,15560.000,942320.000,179000.000,252000.000,-118000.000,-1.393,38.417,67.573,51.460,-84.992,17.886,19890.547,2066.641,8949.302
1512180652,88.300,-41.300,-11.200,-56520.000,11170.000,1035220.000,175000.000,234000.000,-115000.000,-6.108,13.102,-100.489,46.080,-77.727,17.812,20189.673,1879.591,8871.658
1512180652,-34.800,5.900,-8.400,-85020.000,-4640.000,982120.000,175000.000,234000.000,-115000.000,-11.526,1.248,-321.815,34.574,-74.005,-24.560,20342.237,2442.320,8945.649
1512180652,62.200,-36.800,-13.700,-37780.000,46570.000,980100.000,175000.000,234000.000,-115000.000,-17.951,-20.917,-191.925,-18.616,-63.894,0.051,20416.281,2254.927,8719.933
1512180652,-47.100,8.300,-13.300,-51880.000,-14160.000,1013490.000,175000.000,234000.000,-115000.000,-36.102,-12.382,68.491,44.484,-101.847,34.216,20643.141,2667.769,8718.200
1512180652,58.100,-36.000,-18.500,-87040.000,980.000,1004330.000,158000.000,245000.000,-125000.000,-30.489,-14.068,116.007,43.971,-94.472,-19.253,20718.290,2705.381,8680.084
1512180653,-2.400,-13.000,-25.400,-62130.000,5250.000,941280.000,158000.000,245000.000,-125000.000,-32.696,-16.214,120.766,26.587,-96.097,-37.795,20493.444,2705.053,8982.002
1512180653,32.600,-22.000,-28.200,-61160.000,21120.000,1015010.000,158000.000,245000.000,-125000.000,-35.932,-39.723,121.702,1.205,-95.331,-3.816,20641.973,2405.264,8755.577
1512180653,-8.400,-6.700,-32.800,-69460.000,-7810.000,974300.000,158000.000,245000.000,-125000.000,-35.776,-43.977,112.095,46.091,-90.551,-0.621,20567.648,2555.151,8756.294
1512180653,27.800,-26.200,-34.100,-68730.000,23070.000,993650.000,158000.000,245000.000,-125000.000,-35.732,-26.883,110.023,35.714,-98.923,-5.626,20492.422,2480.047,8981.895
1512180653,33.200,-29.200,-32.100,-39920.000,8730.000,986630.000,170000.000,236000.000,-113000.000,-33.753,-30.107,118.566,33.461,-97.344,21.639,20192.572,2554.602,8609.474
1512180653,10.800,-20.800,-34.100,-65000.000,3230.000,1030210.000,170000.000,236000.000,-113000.000,-33.789,-11.945,122.898,-11.941,-118.132,35.758,20565.512,2105.154,8531.090
1512180653,20.800,-25.000,-32.900,-70740.000,24170.000,949460.000,170000.000,236000.000,-113000.000,-23.135,-0.185,123.090,-9.378,-107.243,11.686,20416.784,2404.928,8382.500
1512180653,-28.900,-8.400,-32.100,-56760.000,39120.000,1007320.000,170000.000,236000.000,-113000.000,-17.837,9.430,125.332,40.024,-99.425,-15.806,20113.150,1579.473,8534.660
1512180653,20.100,-26.600,-37.300,-72140.000,13180.000,1010250.000,170000.000,236000.000,-113000.000,-16.848,22.240,130.721,-17.594,-95.133,-30.885,20118.399,2704.489,8910.179
1512180653,-45.400,3.900,-37.700,-86730.000,1950.000,986630.000,173000.000,236000.000,-106000.000,-22.154,11.560,129.545,-0.753,-89.657,-10.449,20342.947,2629.812,8683.235
1512180653,76.600,-40.200,-41.800,-24290.000,28630.000,1008540.000,173000.000,236000.000,-106000.000,-22.144,7.287,128.463,24.777,-85.344,-0.099,20565.329,2030.157,8831.047
1512180653,17.200,-21.200,-45.100,-54870.000,-9950.000,1007020.000,173000.000,236000.000,-106000.000,-18.966,-3.397,128.469,10.024,-90.592,38.364,20338.293,1579.809,8832.756
1512180653,-33.200,-7.600,-41.900,-11470.000,2810.000,998170.000,173000.000,236000.000,-106000.000,-24.250,14.757,126.322,-11.736,-104.785,7.753,20335.409,979.803,8457.466
1512180653,7.200,-12.900,-43.100,-38820.000,-15440.000,986330.000,170000.000,236000.000,-106000.000,-27.427,-0.193,125.162,44.841,-86.336,46.387,20638.708,1655.264,8980.232
1512180653,-29.700,-5.300,-46.700,-60550.000,-10990.000,1011470.000,170000.000,236000.000,-106000.000,-26.391,12.621,127.352,3.982,-78.137,29.860,20714.911,1955.374,8679.741
1512180653,-2.000,-24.100,-45.400,-70500.000,-5980.000,971980.000,170000.000,236000.000,-106000.000,-22.110,9.426,126.338,23.755,-92.072,13.771,20565.405,2030.157,8981.041
1512180653,-11.600,-9.600,-47.900,-31130.000,3970.000,1009030.000,170000.000,236000.000,-106000.000,-27.452,19.028,127.359,56.334,-70.435,-15.716,20789.053,1730.490,8978.996
1512180653,36.400,-33.000,-45.000,-77390.000,-23010.000,954410.000,170000.000,236000.000,-106000.000,-29.670,21.151,132.665,44.000,-65.807,-20.845,21014.166,1805.822,8527.122
1512180653,-51.100,-14.000,-48.500,-87220.000,14400.000,969540.000,173000.000,232000.000,-120000.000,-30.822,10.462,137.944,51.643,-50.740,-22.235,21464.239,1806.509,8673.302
1512180653,17.400,-34.100,-48.200,-38150.000,17030.000,973820.000,173000.000,232000.000,-120000.000,-38.311,4.036,138.877,73.111,-54.329,1.911,21313.940,1731.283,8749.535
1512180653,4.100,-24.800,-46.500,-58720.000,370.000,1014950.000,173000.000,232000.000,-120000.000,-39.390,0.831,139.919,66.218,-42.066,23.692,21013.006,1505.819,8901.985
1512180653,-55.900,-6.400,-44.900,-79960.000,-1710.000,980770.000,173000.000,232000.000,-120000.000,-41.605,-17.340,144.087,97.074,-33.621,8.317,21236.242,1131.155,8749.901
1512180653,-5.200,-27.600,-49.700,-62930.000,13060.000,982060.000,182000.000,216000.000,-118000.000,-44.861,-5.601,148.346,80.680,-40.437,35.279,21389.318,1806.387,8823.936
1512180653,-10.400,-20.600,-50.900,-64390.000,-23930.000,968870.000,182000.000,216000.000,-118000.000,-43.877,2.935,153.720,60.659,-33.796,41.010,21387.213,1356.390,8673.729
1512180653,-20.000,-13.700,-52.100,-45650.000,-7570.000,982120.000,182000.000,216000.000,-118000.000,-48.278,-2.433,161.097,52.050,-42.329,45.674,22062.246,1357.397,8742.989
1512180653,-19.600,-17.000,-47.900,-77580.000,-670.000,985290.000,182000.000,216000.000,-118000.000,-48.316,6.111,164.327,74.588,-41.986,27.198,22062.246,1357.397,8742.989
1512180653,-12.800,-13.700,-52.700,-37230.000,-20870.000,965760.000,182000.000,216000.000,-118000.000,-44.229,7.694,174.517,72.141,-14.546,9.295,22138.365,1620.016,8592.475
1512180653,-22.800,-19.600,-48.200,-52190.000,39980.000,998170.000,173000.000,222000.000,-99000.000,-48.644,-24.910,181.801,94.559,3.198,17.286,22325.643,1582.793,8478.355
1512180653,40.300,-59.800,-52.600,-90520.000,18190.000,1027710.000,173000.000,222000.000,-99000.000,-42.904,-55.358,187.640,57.474,25.895,-23.023,22587.164,1358.191,8551.025
1512180653,-61.400,-9.500,-52.600,-78310.000,14160.000,1013610.000,173000.000,222000.000,-99000.000,-40.676,-74.032,181.213,173.768,-1.540,-34.998,22473.746,1170.515,8401.886
1512180653,-15.000,-6.400,-51.300,-71780.000,10740.000,1002500.000,173000.000,222000.000,-99000.000,-37.273,-61.785,201.559,68.954,14.721,5.254,22736.906,1320.913,8362.228
1512180653,-81.200,10.100,-55.500,-88260.000,-36070.000,941890.000,173000.000,222000.000,-99000.000,-41.639,-3.053,211.298,31.390,-13.166,11.827,22847.136,833.571,8211.052
1512180653,38.900,-42.500,-59.300,-26120.000,23990.000,971680.000,170000.000,236000.000,-106000.000,-42.757,43.931,216.240,2.097,-11.343,40.705,23146.757,759.024,8133.461
1512180653,-44.700,-11.600,-62.100,-62260.000,-24290.000,993160.000,170000.000,236000.000,-106000.000,-51.017,64.181,233.248,-44.495,-17.762,37.733,23256.841,234.190,8019.767
1512180653,5.500,-31.300,-65.800,-56090.000,4150.000,1083370.000,170000.000,236000.000,-106000.000,-51.491,85.015,230.648,23.508,-10.286,13.841,23519.209,197.089,8092.521
1512180653,-80.400,10.900,-64.300,-59080.000,-21610.000,975650.000,170000.000,236000.000,-106000.000,-57.348,95.153,230.598,52.392,-14.867,54.861,23666.074,-477.693,7903.435
1512180653,102.100,-58.100,-71.000,-41440.000,25450.000,1021970.000,168000.000,213000.000,-98000.000,-58.843,102.106,224.738,81.599,9.497,45.419,24379.530,-251.627,7784.981
1512180653,-37.700,3.600,-70.700,-19710.000,8420.000,1029540.000,168000.000,213000.000,-98000.000,-65.330,86.597,229.386,125.897,-1.498,27.267,24377.111,-776.628,7672.249
1512180654,33.200,-35.000,-72.200,-70980.000,35830.000,1002560.000,168000.000,213000.000,-98000.000,-72.758,64.692,226.003,123.369,10.351,32.622,24528.296,-513.895,7671.089
1512180654,-74.000,8.100,-73.200,-56580.000,10010.000,983580.000,168000.000,213000.000,-98000.000,-72.768,45.468,225.937,206.660,6.858,8.844,24226.904,-814.356,7598.503
1512180654,-3.700,-25.400,-75.400,-106810.000,24110.000,969180.000,168000.000,213000.000,-98000.000,-76.166,10.192,236.427,152.641,7.496,36.531,24750.967,-1038.568,7743.935
1512180654,-33.800,-15.200,-79.900,-16600.000,39370.000,1011110.000,163000.000,222000.000,-93000.000,-78.410,-1.574,242.750,113.425,21.377,44.806,24751.944,-813.562,7669.044
1512180654,15.800,-35.600,-79.400,-25700.000,39670.000,1025090.000,163000.000,222000.000,-93000.000,-76.173,-5.828,236.372,162.911,6.323,37.916,24976.126,-963.236,7367.058
1512180654,-57.400,-6.700,-81.600,-39610.000,16420.000,1030400.000,163000.000,222000.000,-93000.000,-69.907,-22.921,243.867,114.110,11.289,4.934,25052.542,-663.111,7516.563
1512180654,-54.700,-4.000,-83.100,-66890.000,-430.000,986570.000,163000.000,222000.000,-93000.000,-72.071,-43.222,244.832,142.067,13.788,33.833,25049.780,-1263.117,7366.280
1512180654,32.800,-34.500,-84.300,-39250.000,34180.000,1046880.000,172000.000,220000.000,-71000.000,-70.027,-33.620,250.223,149.239,0.336,27.830,24975.744,-1038.233,7292.030
1512180654,-99.300,35.400,-82.000,-28750.000,-13490.000,996770.000,172000.000,220000.000,-71000.000,-65.922,-45.385,258.768,103.773,13.435,20.339,24825.476,-1113.459,7443.260
1512180654,11.200,-8.400,-85.500,-32350.000,24540.000,1030520.000,172000.000,220000.000,-71000.000,-63.860,-44.322,263.066,77.695,7.164,2.645,24899.389,-1338.343,7292.519
1512180654,-66.300,16.000,-84.400,-32650.000,-60.000,984190.000,172000.000,220000.000,-71000.000,-64.900,-53.927,261.955,119.295,9.147,27.231,25048.498,-1563.120,7516.151
1512180654,-49.300,6.800,-84.000,-46200.000,32530.000,1010500.000,172000.000,220000.000,-71000.000,-49.007,-41.097,268.627,45.133,47.554,-21.839,24823.828,-1488.459,7518.089
1512180654,-100.400,36.200,-84.800,-72810.000,29720.000,936950.000,172000.000,220000.000,-81000.000,-54.292,-51.788,264.244,50.061,41.363,2.634,24522.299,-1788.904,7145.500
1512180654,-5.600,-0.900,-89.600,-58040.000,24840.000,1026430.000,172000.000,220000.000,-81000.000,-41.364,-32.525,257.036,32.085,58.999,-31.932,24974.478,-1338.236,7441.887
1512180654,-59.500,10.000,-94.000,-91430.000,7630.000,926270.000,172000.000,220000.000,-81000.000,-36.069,-36.792,259.231,15.492,51.872,-41.913,24597.906,-1713.800,7669.899
1512180654,-13.400,-12.900,-94.400,-60550.000,41930.000,989200.000,172000.000,220000.000,-81000.000,-23.107,-15.391,249.899,28.155,9.852,-44.932,24522.970,-1713.907,7820.534
1512180654,-55.900,-2.100,-92.800,-66650.000,12390.000,961240.000,172000.000,220000.000,-81000.000,-31.543,-15.392,244.447,-15.408,-23.840,0.858,24447.638,-1789.026,7821.129
1512180654,-59.000,-13.600,-96.100,-49620.000,36250.000,1003910.000,170000.000,232000.000,-76000.000,-26.116,-26.053,238.092,49.932,-44.238,-12.478,24371.252,-2089.136,7746.635
1512180654,3.200,-44.900,-94.400,-80320.000,12210.000,943480.000,170000.000,232000.000,-76000.000,-24.021,-18.580,240.279,-88.445,51.705,-21.311,24371.664,-2014.139,7896.675
1512180654,-55.800,-15.400,-94.300,-36250.000,21970.000,996150.000,170000.000,232000.000,-76000.000,-33.422,-28.182,228.384,133.877,47.601,-6.100,24220.266,-2314.356,7822.807
1512180654,6.300,-26.100,-93.300,-15630.000,11230.000,1011900.000,170000.000,232000.000,-76000.000,-11.093,26.316,234.226,-26.492,-21.106,-72.576,23994.528,-2464.701,7674.644
1512180654,-44.900,3.300,-96.800,-32470.000,26250.000,1015930.000,182000.000,245000.000,-71000.000,-11.074,27.386,233.164,-6.092,36.552,-22.055,23769.293,-2540.033,7901.527
1512180654,-8.300,-6.500,-103.900,-37410.000,-32900.000,1039250.000,182000.000,245000.000,-71000.000,-20.622,32.720,230.913,108.477,28.530,46.597,24295.126,-2389.246,8197.136
1512180654,-81.000,18.800,-98.500,-44620.000,-5680.000,1008670.000,182000.000,245000.000,-71000.000,-10.171,39.119,243.879,-19.437,-19.579,23.198,24294.973,-2389.246,7897.133
1512180654,1.200,-19.600,-102.100,-20450.000,19230.000,1055910.000,182000.000,245000.000,-71000.000,-14.316,29.515,236.324,38.993,7.093,30.121,24518.438,-2763.910,8195.045
1512180654,-28.000,-0.900,-95.100,-17210.000,13310.000,1034790.000,182000.000,245000.000,-71000.000,-12.220,36.988,238.511,57.006,-32.348,10.013,23842.611,-2914.927,7900.719
1512180654,29.700,-3.700,-98.700,-33390.000,62190.000,1047790.000,182000.000,227000.000,-84000.000,-10.104,15.094,238.466,94.465,-34.043,25.711,24256.177,-2689.310,8009.819
1512180654,-30.200,24.600,-97.300,-52430.000,-3850.000,1007450.000,182000.000,227000.000,-84000.000,-15.890,-2.529,232.991,133.917,-43.306,9.799,24179.747,-3026.926,8197.792
1512180654,-11.300,14.600,-99.200,-7390.000,17520.000,1005920.000,182000.000,227000.000,-84000.000,-26.482,-44.192,226.829,124.054,-47.925,8.132,24402.761,-3476.595,8270.676
1512180654,-22.500,2.900,-97.200,-60730.000,21970.000,948790.000,182000.000,227000.000,-84000.000,-37.182,-86.938,227.058,106.378,-70.401,49.645,23912.764,-4002.322,8012.077
1512180654,-46.600,20.200,-100.900,-67570.000,36250.000,974000.000,191000.000,232000.000,-103000.000,-34.717,-76.276,239.924,116.509,-35.843,-25.393,23837.675,-4039.942,8162.689
1512180654,-0.900,-0.700,-106.900,-49680.000,59510.000,989930.000,191000.000,232000.000,-103000.000,-40.158,-37.846,248.507,40.451,-61.667,14.626,23499.747,-4115.450,7978.027
1512180654,17.200,-7.700,-105.100,-43950.000,39120.000,1019350.000,191000.000,232000.000,-103000.000,-43.037,-10.108,262.419,-9.753,-44.117,37.003,23686.995,-4152.667,7826.424
1512180654,3.100,2.500,-108.100,-4940.000,6650.000,1051510.000,191000.000,232000.000,-103000.000,-38.569,-10.075,250.225,40.391,-47.932,43.203,23724.485,-4190.111,8126.083
1512180654,-28.800,12.900,-109.100,-18370.000,39790.000,1049380.000,191000.000,232000.000,-103000.000,-32.674,-3.658,248.199,-0.058,-13.921,43.754,23460.462,-4528.009,8128.158
1512180654,1.200,-4.500,-111.300,-18250.000,15630.000,1032530.000,180000.000,215000.000,-103000.000,-26.532,3.333,232.324,61.625,-8.647,14.707,23308.554,-4940.729,8016.747
1512180654,-36.400,2.700,-113.600,-6960.000,-4210.000,983890.000,180000.000,215000.000,-103000.000,-21.636,1.747,225.992,54.438,3.101,25.257,23197.431,-4640.901,8092.834
1512180654,86.700,-34.600,-112.500,-1460.000,66280.000,985660.000,180000.000,215000.000,-103000.000,-17.315,-5.715,222.298,62.052,21.949,3.066,22708.906,-4904.131,8396.858
1512180655,20.200,7.900,-114.800,-14650.000,2690.000,1036380.000,180000.000,215000.000,-103000.000,-14.145,-21.741,222.284,64.886,1.716,21.621,22408.758,-4942.087,8436.882
1512180655,3.900,10.700,-111.100,-6960.000,54320.000,963500.000,180000.000,215000.000,-103000.000,-3.462,-30.261,221.347,73.699,-6.903,-10.321,22634.909,-4716.745,8735.085
1512180655,36.100,2.700,-112.000,-5860.000,23680.000,1023800.000,184000.000,222000.000,-106000.000,-1.337,-48.420,220.246,84.286,14.894,29.943,22258.902,-4942.301,8738.167
1512180655,37.300,-1.100,-110.800,-47180.000,37840.000,951480.000,184000.000,222000.000,-106000.000,6.106,-46.268,222.498,45.181,9.851,12.902,22333.151,-5092.188,8587.456
1512180655,-57.400,40.200,-103.500,2930.000,66830.000,969060.000,184000.000,222000.000,-106000.000,11.558,-54.795,214.016,51.491,3.852,11.442,22181.051,-5542.429,8438.530
1512180655,50.600,-11.700,-111.700,-82950.000,73180.000,949830.000,184000.000,222000.000,-106000.000,11.679,-47.307,206.579,83.368,1.847,3.568,21654.745,-5843.210,8517.845
1512180655,-51.000,28.200,-104.400,-68970.000,61280.000,979250.000,177000.000,215000.000,-106000.000,12.700,-32.351,210.914,63.061,-13.554,-7.368,21730.749,-5618.097,8517.311
1512180655,78.300,-19.200,-111.200,-56640.000,84660.000,973140.000,177000.000,215000.000,-106000.000,18.002,-44.096,212.015,7.345,-9.546,32.575,21730.932,-5543.100,8217.354
1512180655,26.200,6.800,-114.100,-17820.000,45100.000,1030640.000,177000.000,215000.000,-106000.000,19.246,-36.597,201.398,26.881,12.735,-7.148,21358.633,-4943.659,8220.818
1512180655,20.900,-1.200,-114.600,-20140.000,78670.000,1003970.000,177000.000,215000.000,-106000.000,23.649,-35.507,192.937,91.656,10.679,-40.097,21430.304,-5693.552,8294.838
1512180655,-186.400,77.400,-123.300,-31740.000,35950.000,1003300.000,177000.000,215000.000,-106000.000,13.894,-45.153,202.357,14.644,-10.496,8.954,20980.047,-5769.220,8448.616
1512180655,129.300,-55.300,-127.400,-62740.000,28870.000,1060180.000,163000.000,218000.000,-110000.000,18.152,-44.081,202.421,-16.985,-4.211,7.881,20525.915,-6669.901,8302.040
1512180655,-3.300,-12.500,-102.400,-8970.000,39310.000,1000550.000,163000.000,218000.000,-110000.000,15.120,-41.928,192.791,76.486,-11.886,-40.689,20754.293,-5919.565,8300.468
1512180655,38.000,-25.200,-130.000,-19040.000,45470.000,971440.000,163000.000,218000.000,-110000.000,11.941,-37.659,191.694,58.056,-6.910,-37.665,20754.065,-5994.562,8525.429
1512180655,-8.800,-3.700,-58.700,-35710.000,42720.000,1047360.000,163000.000,218000.000,-110000.000,10.732,-35.543,200.211,24.286,5.566,-51.923,20527.639,-6294.901,8377.205
1512180655,86.400,-34.600,-52.700,-40040.000,85690.000,1038390.000,163000.000,218000.000,-110000.000,4.424,-30.204,194.807,36.157,1.103,-33.131,20676.992,-6444.681,8450.859
1512180655,55.000,-14.400,-53.700,-10990.000,45100.000,1021480.000,165000.000,216000.000,-104000.000,3.494,-20.574,187.366,29.268,-30.281,-38.797,20451.956,-6445.017,8377.769
1512180655,-6.800,14.900,-18.200,-39920.000,82210.000,1009770.000,165000.000,216000.000,-104000.000,-5.071,-22.728,189.366,12.446,-41.590,25.289,20376.287,-6595.133,8378.334
1512180655,28.800,-0.300,-88.900,-7630.000,72570.000,978030.000,165000.000,216000.000,-104000.000,-6.985,-19.499,176.557,8.037,-28.418,18.700,20451.925,-6445.017,8302.773
1512180655,3.300,7.300,-96.000,-19710.000,66160.000,982060.000,165000.000,216000.000,-104000.000,-12.237,-13.089,172.240,-13.225,-18.696,-15.678,20076.208,-6595.575,8230.888
1512180655,-48.700,37.400,-151.700,-49010.000,77820.000,963870.000,152000.000,218000.000,-150000.000,-9.931,-21.607,161.585,-11.922,1.081,-23.135,19773.916,-7121.027,8383.202
1512180655,81.900,-5.600,-155.000,-31620.000,98390.000,1049800.000,152000.000,218000.000,-150000.000,-15.231,-21.614,159.374,15.834,-27.716,-62.876,19625.692,-6746.256,8534.645
1512180655,26.500,11.500,-161.000,-47490.000,46750.000,1055300.000,152000.000,218000.000,-150000.000,-22.757,-19.495,163.537,-14.700,-28.719,-43.350,19548.880,-7121.363,8310.112
1512180655,26.200,0.900,-160.500,-36070.000,97900.000,1020630.000,152000.000,218000.000,-150000.000,-28.045,-10.954,161.358,-45.413,-27.350,-24.347,19474.188,-7046.488,8235.786
1512180655,-1.900,21.400,-161.800,-31070.000,76420.000,1002010.000,152000.000,218000.000,-150000.000,-33.316,-9.889,157.553,-14.186,-32.687,5.733,19399.099,-7046.587,8048.912
1512180655,-27.400,23.300,-165.400,-24720.000,80260.000,1010310.000,147000.000,216000.000,-145000.000,-20.921,11.508,150.344,38.741,-34.751,20.978,19212.026,-6934.373,7900.566
1512180655,10.900,6.300,-168.000,-49010.000,107540.000,1000430.000,147000.000,216000.000,-145000.000,-4.931,38.239,152.270,14.895,-22.387,-10.605,19099.745,-6897.043,8014.038
1512180655,-9.900,28.600,-170.000,-42480.000,109920.000,1031560.000,147000.000,216000.000,-145000.000,-1.053,37.191,142.727,36.993,-22.137,-23.484,18760.618,-7272.555,8129.234
1512180655,-17.600,43.700,-176.000,-32840.000,71780.000,1014470.000,147000.000,216000.000,-145000.000,-0.478,-0.721,138.338,69.270,-35.398,25.144,18458.678,-7685.503,7981.590
1512180655,-10.700,31.300,-181.400,-18310.000,87590.000,1040770.000,128000.000,229000.000,-147000.000,11.239,-34.349,137.325,99.255,-29.689,24.438,18572.173,-7460.337,7943.237
1512180655,30.600,5.500,-181.500,-54380.000,63420.000,1026000.000,128000.000,229000.000,-147000.000,16.689,-59.427,128.788,91.350,-18.693,10.896,18270.879,-7723.291,7720.672
1512180655,-20.600,34.000,-183.500,-36070.000,94730.000,1030580.000,128000.000,229000.000,-147000.000,14.665,-74.902,121.777,66.734,-5.896,24.690,18083.326,-7723.574,7609.764
1512180655,19.600,25.000,-181.000,-23010.000,117800.000,1004390.000,128000.000,229000.000,-147000.000,13.035,-69.569,123.904,43.554,-14.575,25.812,17856.619,-8098.910,7574.013
1512180655,42.700,16.800,-182.200,-22400.000,131960.000,1037780.000,128000.000,229000.000,-147000.000,19.455,-64.221,121.880,35.211,-7.509,-28.846,17854.521,-8548.922,7423.797
1512180655,-15.700,35.700,-187.200,-10800.000,105040.000,989200.000,138000.000,218000.000,-143000.000,13.436,-58.906,131.941,16.450,-2.416,-6.859,17852.827,-8886.416,7086.151
1512180655,2.100,23.000,-191.700,-68730.000,89050.000,1008540.000,138000.000,218000.000,-143000.000,10.161,-37.026,137.298,-35.816,-32.218,15.558,17777.471,-8961.527,7049.248
1512180655,6.100,30.600,-192.000,-14340.000,115110.000,999760.000,138000.000,218000.000,-143000.000,12.903,-3.898,134.790,6.121,-20.785,-13.238,17513.715,-9224.428,6901.359
1512180656,-14.200,42.300,-194.800,-38760.000,105590.000,972600.000,138000.000,218000.000,-143000.000,16.111,18.005,135.446,-28.809,-9.636,-53.590,17362.402,-9524.652,6977.486
1512180656,-36.500,47.800,-199.900,-22830.000,103940.000,926940.000,138000.000,218000.000,-143000.000,9.767,0.916,132.100,53.926,-20.759,-34.783,17586.721,-9674.311,6975.517
1512180656,53.400,12.700,-194.300,-2870.000,108520.000,1047670.000,130000.000,230000.000,-138000.000,11.825,6.248,136.410,42.750,-27.529,-24.254,17513.754,-9224.436,6976.357
1512180656,-8.700,20.000,-193.900,-108890.000,111690.000,992130.000,130000.000,230000.000,-138000.000,9.643,1.961,138.493,-5.608,-15.510,-25.723,17511.465,-9749.430,7126.122
1512180656,-75.800,52.100,-197.900,-56090.000,100590.000,988710.000,130000.000,230000.000,-138000.000,8.788,-5.489,125.663,53.344,-34.246,-8.245,17735.083,-10049.097,7049.065
1512180656,7.300,30.000,-206.300,-65610.000,102970.000,986880.000,130000.000,230000.000,-138000.000,10.944,-0.141,124.648,68.342,-29.756,11.033,17434.698,-10124.537,6976.570
1512180656,22.800,28.800,-208.300,-37480.000,70680.000,1045040.000,140000.000,206000.000,-145000.000,16.169,8.397,131.148,41.524,2.686,-3.966,17211.462,-9749.872,7128.670
1512180656,-26.200,28.000,-209.900,-37660.000,100650.000,1007510.000,140000.000,206000.000,-145000.000,15.055,14.798,134.353,25.998,-27.899,9.837,17287.207,-9599.771,7278.099
1512180656,-19.000,16.500,-209.300,-34420.000,110660.000,1047060.000,140000.000,206000.000,-145000.000,28.998,16.965,129.232,-12.620,-35.475,-42.925,17433.432,-10424.555,7126.442
1512180656,-60.700,49.700,-212.000,-22640.000,98940.000,1013920.000,140000.000,206000.000,-145000.000,23.774,5.217,121.650,152.143,-16.740,-21.309,17133.093,-10499.994,7128.960
1512180656,25.600,40.900,-215.400,-52670.000,90090.000,1028080.000,140000.000,206000.000,-145000.000,20.289,-2.293,139.701,17.623,-19.344,38.950,17055.014,-11175.119,7054.283
1512180656,12.300,72.800,-217.800,-4390.000,59080.000,976810.000,124000.000,218000.000,-157000.000,26.809,-15.088,131.221,-3.677,3.548,-20.968,17582.861,-10574.320,7350.090
1512180656,10.000,69.000,-218.400,-59450.000,55790.000,972410.000,124000.000,218000.000,-157000.000,20.575,-11.873,121.547,143.297,-21.441,-14.992,17510.717,-9974.436,7651.009
1512180656,-35.400,84.700,-219.800,-20320.000,48830.000,955510.000,124000.000,218000.000,-157000.000,21.349,-14.040,139.676,36.410,-23.466,-5.415,17506.323,-10949.442,7650.566
1512180656,15.400,72.000,-215.200,-34730.000,96370.000,988220.000,124000.000,218000.000,-157000.000,11.867,-24.724,132.038,37.646,0.067,13.455,17281.057,-11024.775,7802.437
1512180656,-24.400,78.300,-212.000,-78860.000,80630.000,1031620.000,124000.000,218000.000,-157000.000,10.823,-31.128,130.937,81.862,8.136,-14.982,17507.269,-10724.436,7500.664
1512180656,52.600,33.300,-213.900,-98820.000,127560.000,1016240.000,133000.000,209000.000,-152000.000,5.448,-33.281,132.981,58.045,20.878,1.067,17280.050,-11174.784,7127.373
1512180656,-17.200,47.300,-212.000,-98270.000,110660.000,955440.000,133000.000,209000.000,-152000.000,11.828,-38.611,134.123,35.587,-30.604,-28.481,17281.286,-10949.778,7577.477
1512180656,63.000,-3.300,-207.700,-83800.000,134640.000,1013180.000,133000.000,209000.000,-152000.000,-3.108,-32.228,134.994,82.442,27.131,0.926,17131.170,-10950.006,7353.752
1512180656,39.100,8.800,-215.200,-83800.000,116820.000,1015620.000,133000.000,209000.000,-152000.000,-6.490,-31.191,145.607,-15.842,33.896,-10.544,16905.157,-11175.348,7355.553
1512180656,-26.200,42.100,-222.400,-49380.000,76900.000,1026180.000,130000.000,206000.000,-148000.000,-4.159,-29.025,133.923,25.147,-15.327,8.355,16979.864,-11250.223,7429.893
1512180656,-2.800,23.200,-222.800,-33330.000,46940.000,987240.000,130000.000,206000.000,-148000.000,0.193,-16.187,129.768,78.440,11.242,25.839,17130.011,-11249.994,7728.615
1512180656,67.400,-26.500,-222.900,-40710.000,75440.000,1057860.000,130000.000,206000.000,-148000.000,6.443,-15.129,138.390,4.164,20.895,-3.517,16677.694,-11700.678,7132.225
1512180656,-110.800,39.900,-217.400,-102110.000,87160.000,1047000.000,130000.000,206000.000,-148000.000,9.780,-21.514,129.888,-20.889,22.327,-28.684,16978.216,-11625.223,7504.707
1512180656,5.700,2.500,-219.000,-50050.000,117860.000,927120.000,130000.000,206000.000,-148000.000,7.822,-17.226,119.213,53.223,26.752,-33.784,16830.053,-11250.452,7806.160
1512180656,44.900,2.700,-210.500,-79280.000,108150.000,1030880.000,126000.000,202000.000,-142000.000,6.729,-27.913,120.226,35.768,14.144,5.694,16453.588,-11551.020,7584.206
1512180656,-96.700,74.000,-217.600,-44310.000,46020.000,985600.000,126000.000,202000.000,-142000.000,9.012,-26.289,111.203,-19.270,21.451,15.159,16413.236,-12151.079,7284.256
1512180656,62.500,-18.900,-213.200,-65550.000,102360.000,1041200.000,126000.000,202000.000,-142000.000,3.242,-26.819,105.789,14.813,21.484,-4.396,16416.014,-11588.572,7772.004
1512180656,-51.400,9.900,-214.800,-102600.000,99850.000,1038090.000,126000.000,202000.000,-142000.000,6.064,-27.330,96.233,26.201,31.375,-39.493,16300.871,-12188.745,7885.186
1512180656,-90.900,40.500,-205.600,-55420.000,101870.000,935120.000,124000.000,190000.000,-157000.000,12.992,-34.263,95.775,1.885,44.779,-37.000,15702.628,-11814.646,8040.451
1512180656,31.600,10.500,-217.600,-95700.000,127200.000,1044310.000,124000.000,190000.000,-157000.000,11.579,-33.175,84.565,1.955,32.877,-10.282,15664.678,-11889.704,7815.742
1512180656,-5.100,24.600,-221.200,-134830.000,78980.000,984370.000,124000.000,190000.000,-157000.000,11.716,-31.024,76.045,-21.530,34.369,24.817,15363.103,-12227.647,7705.642
1512180656,11.600,13.200,-219.600,-79160.000,85820.000,1010990.000,124000.000,190000.000,-157000.000,11.283,-27.274,70.189,-13.268,28.047,20.805,15439.543,-11890.039,7555.160
1512180656,0.100,14.400,-218.400,-139340.000,64150.000,983030.000,124000.000,190000.000,-157000.000,15.696,-16.569,61.762,-20.999,28.489,0.104,15364.417,-11965.143,7968.254
1512180656,-58.200,50.300,-219.600,-81910.000,82640.000,943850.000,108000.000,202000.000,-152000.000,13.591,-13.899,60.141,-23.037,43.730,10.895,14988.310,-12190.707,7783.844
1512180656,36.600,9.100,-211.700,-118100.000,73970.000,1039490.000,108000.000,202000.000,-152000.000,5.818,-14.418,46.701,7.496,50.626,14.142,15140.646,-11665.484,7745.308
1512180656,-39.000,39.700,-220.200,-103580.000,85820.000,1014590.000,108000.000,202000.000,-152000.000,-8.593,-11.237,48.102,-6.276,60.179,-21.563,15065.786,-11628.092,7670.967
1512180656,48.700,-13.600,-211.900,-110290.000,89230.000,1000980.000,108000.000,202000.000,-152000.000,-8.606,9.592,50.308,-35.342,26.218,11.168,14952.085,-11890.764,7634.301
1512180657,-48.900,26.500,-219.800,-107300.000,88320.000,1071170.000,108000.000,202000.000,-152000.000,-12.144,6.402,37.985,-0.042,54.498,14.786,15101.675,-12003.031,7820.473
1512180657,48.200,-7.700,-218.800,-83070.000,79590.000,1035030.000,119000.000,185000.000,-148000.000,-13.250,8.529,40.106,-24.926,49.466,24.366,15477.316,-11852.472,7742.348
1512180657,-22.600,38.200,-224.100,-111150.000,90880.000,974430.000,119000.000,185000.000,-148000.000,-11.123,-7.487,40.083,4.303,32.552,11.165,15100.958,-12153.040,7745.399
1512180657,64.700,7.500,-224.500,-76900.000,57190.000,1031560.000,119000.000,185000.000,-148000.000,-6.798,-11.747,35.866,31.472,42.751,21.100,15323.736,-12602.716,7368.279
1512180657,41.300,19.400,-228.200,-77760.000,73970.000,1052610.000,119000.000,185000.000,-148000.000,-12.149,-11.760,36.853,17.182,50.691,-0.277,15323.782,-12602.716,7443.291
1512180657,19.800,11.100,-227.700,-93200.000,54990.000,999880.000,108000.000,174000.000,-155000.000,-14.196,-17.093,31.475,14.976,55.600,-11.475,15173.819,-12602.945,7519.554
1512180657,63.500,-7.700,-225.600,-100710.000,87280.000,980830.000,108000.000,174000.000,-155000.000,-12.054,-3.203,31.554,-39.417,15.771,22.210,15552.450,-11777.369,7366.753
1512180657,29.200,13.700,-224.600,-76900.000,44860.000,968570.000,108000.000,174000.000,-155000.000,-6.523,-15.988,18.797,20.520,42.696,21.515,15551.779,-11927.362,7366.676
1512180657,63.400,-12.900,-218.400,-88870.000,89480.000,959590.000,108000.000,174000.000,-155000.000,-13.979,-15.997,18.690,57.818,37.809,-31.967,15326.330,-12002.710,7143.562
1512180657,27.300,-5.700,-213.600,-121280.000,97900.000,967900.000,108000.000,174000.000,-155000.000,-14.133,-13.878,28.290,-26.867,63.871,5.003,15701.437,-12002.146,7365.379
1512180657,-50.200,24.400,-208.400,-112920.000,95700.000,954710.000,101000.000,178000.000,-148000.000,-18.410,-22.434,28.197,-49.103,41.727,-28.232,15777.945,-11627.024,6989.906
1512180657,69.900,-19.600,-207.100,-74950.000,109250.000,1055180.000,101000.000,178000.000,-148000.000,-11.785,-22.396,14.435,32.212,27.615,-16.466,15545.523,-13277.384,6991.066
1512180657,-91.100,41.500,-207.600,-106260.000,83440.000,1022830.000,101000.000,178000.000,-148000.000,-15.084,-5.320,21.911,-38.387,42.883,-21.428,15778.509,-11552.027,7439.949
1512180657,-16.600,-2.000,-203.500,-108280.000,89050.000,1013850.000,101000.000,178000.000,-148000.000,-15.099,-10.666,21.889,-45.500,59.158,-7.130,15625.662,-12152.262,7140.938
1512180657,5.900,-19.400,-204.700,-83980.000,98390.000,1050480.000,93000.000,162000.000,-147000.000,-16.087,-2.106,18.711,-7.547,37.352,27.281,15702.078,-11852.152,7290.443
1512180657,14.600,-16.000,-205.600,-115170.000,79470.000,985960.000,93000.000,162000.000,-147000.000,-10.840,9.633,23.087,-42.553,33.392,-24.432,15851.675,-11926.920,7139.137
1512180657,39.000,-18.200,-202.300,-73490.000,86550.000,988770.000,93000.000,162000.000,-147000.000,-12.867,-18.128,15.499,11.871,57.051,-3.071,15547.323,-12827.372,6541.267
1512180657,-13.000,-1.500,-200.400,-84660.000,63960.000,973210.000,93000.000,162000.000,-147000.000,-11.783,-12.784,14.467,-26.108,38.018,7.035,15553.015,-11627.359,7141.823
1512180657,-27.800,-10.300,-197.200,-73910.000,41320.000,997070.000,93000.000,162000.000,-147000.000,-4.229,-8.489,9.261,-16.482,40.836,3.576,15776.525,-11927.027,6839.775
1512180657,-43.400,-3.600,-194.100,-88440.000,70920.000,996640.000,96000.000,162000.000,-154000.000,-8.410,-12.759,3.855,14.700,37.506,19.423,15626.593,-11927.256,6991.051
1512180657,13.800,-20.200,-188.800,-80870.000,85080.000,994080.000,96000.000,162000.000,-154000.000,-6.247,-12.746,2.824,27.556,38.943,-10.553,15852.987,-11626.917,7064.278
1512180657,-49.800,21.700,-185.900,-66100.000,74340.000,999270.000,96000.000,162000.000,-154000.000,-13.772,-21.312,5.882,-23.582,51.066,39.353,15700.583,-12152.155,6990.303
1512180657,0.000,6.500,-184.700,-102360.000,59330.000,1026060.000,96000.000,162000.000,-154000.000,-7.350,-19.159,4.919,-19.199,43.023,-25.568,15624.914,-12302.256,6990.868
1512180657,-8.400,5.700,-180.600,-65920.000,56640.000,978270.000,96000.000,162000.000,-154000.000,-11.454,-20.221,-5.809,39.400,48.448,-20.210,15852.041,-11851.923,7214.180
1512180657,26.800,-5.900,-179.000,-48220.000,55300.000,1031560.000,93000.000,172000.000,-150000.000,-15.872,-20.245,3.722,-6.549,46.836,-2.149,15701.742,-11927.149,7290.413
1512180657,-4.900,9.500,-173.900,-88320.000,56090.000,980100.000,93000.000,172000.000,-150000.000,-16.979,-7.433,6.949,-62.812,37.429,-3.041,15702.078,-11852.152,7290.443
1512180657,40.700,-14.600,-175.100,-84960.000,69520.000,1005370.000,93000.000,172000.000,-150000.000,-20.627,-10.634,1.554,11.308,46.924,-2.811,15702.459,-11739.642,7027.992
1512180657,2.800,-1.600,-172.600,-49190.000,54080.000,996280.000,93000.000,172000.000,-150000.000,-19.216,-27.741,12.711,-35.991,37.358,29.849,15852.476,-11739.420,7064.217
1512180657,40.900,-31.400,-164.800,-88620.000,60300.000,1040770.000,93000.000,172000.000,-150000.000,-15.953,-22.392,8.510,9.480,35.742,12.152,15665.029,-11739.695,7178.306
1512180657,-63.100,31.300,-165.200,-48160.000,86670.000,989990.000,89000.000,162000.000,-154000.000,-14.262,-10.627,3.780,-20.290,34.907,23.918,15625.341,-12189.761,6840.927
1512180657,67.800,-24.000,-163.300,-76900.000,74220.000,984310.000,89000.000,162000.000,-154000.000,-13.697,-12.224,1.650,-12.062,28.256,33.310,16077.329,-11776.583,7099.793
1512180657,-84.600,42.700,-164.800,-49440.000,53280.000,989200.000,89000.000,162000.000,-154000.000,-14.242,-14.898,2.166,-17.632,-7.339,17.848,16076.712,-11889.086,6874.748
1512180657,77.900,-29.700,-158.200,-54320.000,42660.000,1000490.000,89000.000,162000.000,-154000.000,-12.100,-8.482,2.220,-18.596,-16.858,2.142,16038.458,-12076.647,7062.470
1512180657,-86.300,36.500,-159.000,-58410.000,64880.000,1006650.000,84000.000,156000.000,-145000.000,-8.383,0.066,3.369,-4.899,-24.509,-12.506,16151.411,-11963.968,6949.067
1512180657,4.000,5.600,-154.200,-63840.000,32780.000,939700.000,84000.000,156000.000,-145000.000,-9.505,0.589,6.552,-24.864,-26.587,17.728,16040.372,-11626.635,6837.677
1512180657,-2.500,24.000,-151.300,-28440.000,16420.000,998230.000,84000.000,156000.000,-145000.000,-8.391,-1.541,3.362,8.702,-30.529,11.046,16154.432,-11288.965,6911.880
1512180657,-17.200,35.400,-151.100,-66890.000,13240.000,940860.000,84000.000,156000.000,-145000.000,-12.149,-17.037,4.320,0.901,-27.836,46.145,16002.012,-11814.195,6800.415
1512180657,-73.200,62.100,-145.000,-60790.000,21970.000,975770.000,84000.000,156000.000,-145000.000,-5.122,-10.068,-0.883,13.206,-9.665,-14.370,15812.880,-12189.478,6914.337
1512180658,66.800,-2.500,-142.500,-109310.000,41380.000,1042240.000,82000.000,148000.000,-140000.000,-10.482,-14.887,0.622,0.482,-0.905,-17.312,15778.021,-11627.024,7139.915
1512180658,-59.300,48.700,-138.200,-44680.000,72880.000,1014100.000,82000.000,148000.000,-140000.000,-16.853,-20.237,-1.623,-4.896,-2.030,-4.457,16452.566,-11701.014,6909.142
1512180658,78.600,-27.000,-126.900,-97960.000,55240.000,1046810.000,82000.000,148000.000,-140000.000,-21.085,-8.489,-2.708,-29.023,-7.600,-2.411,16377.981,-11626.123,7059.807
1512180658,-116.800,47.100,-123.400,-67260.000,29050.000,969120.000,82000.000,148000.000,-140000.000,-25.365,-7.429,-1.701,-24.012,-1.806,19.617,16225.134,-12226.358,6760.811
1512180658,-64.400,-14.100,-116.500,-71410.000,46140.000,857360.000,91000.000,132000.000,-155000.000,-27.518,-2.098,-0.649,-7.137,0.210,-6.676,15926.779,-11851.801,6688.530
1512180658,107.900,-118.100,-112.400,-86610.000,58650.000,1054500.000,91000.000,132000.000,-155000.000,-27.582,-19.195,2.489,-20.162,2.033,45.012,16155.050,-11176.462,7136.925
1512180658,-14.100,-27.000,-112.800,-31190.000,82030.000,1081670.000,91000.000,132000.000,-155000.000,-26.449,-18.111,-0.686,-32.199,-2.778,8.775,16453.253,-11551.020,6909.203
1512180658,-47.800,28.500,-114.500,-77760.000,34060.000,1069090.000,91000.000,132000.000,-155000.000,-24.340,-15.977,0.417,4.101,9.017,-1.337,16077.536,-11701.578,6837.334
1512180658,-95.600,42.200,-107.600,-42300.000,-8910.000,955570.000,91000.000,132000.000,-155000.000,-27.500,-9.570,-1.740,7.850,-0.839,23.556,15926.931,-11851.801,6988.533
1512180658,95.200,-58.300,-109.500,3540.000,6960.000,1015140.000,80000.000,163000.000,-138000.000,-27.599,0.031,4.689,-54.173,0.329,23.062,16377.844,-11626.123,6759.804
1512180658,-45.100,6.000,-103.500,-26060.000,-27340.000,1065060.000,80000.000,163000.000,-138000.000,-22.170,13.937,-0.514,-15.266,17.276,-10.680,16223.455,-12601.358,6760.628
1512180658,-49.800,42.500,-98.500,-21910.000,-14830.000,1037660.000,80000.000,163000.000,-138000.000,-26.409,10.726,-2.721,12.271,8.465,-7.123,16377.279,-11776.133,6984.734
1512180658,-63.100,49.700,-84.800,-17760.000,8180.000,972110.000,80000.000,163000.000,-138000.000,-28.606,6.445,1.498,-50.179,19.747,18.165,16304.678,-11251.245,7060.631
1512180658,102.000,-20.200,-80.700,-17820.000,-8910.000,1092350.000,80000.000,163000.000,-138000.000,-31.739,5.378,-2.816,-21.875,25.519,19.064,16378.622,-11476.130,6984.871
1512180658,-12.300,51.900,-71.100,-38570.000,-24900.000,996580.000,84000.000,132000.000,-162000.000,-31.712,16.063,-3.844,6.484,14.024,-29.739,16376.486,-11926.126,6759.666
1512180658,-25.800,51.700,-68.200,-49010.000,16780.000,1010440.000,84000.000,132000.000,-162000.000,-36.069,10.704,1.404,-26.082,13.209,12.791,16524.313,-12375.910,6458.199
1512180658,-46.500,51.000,-55.800,-67140.000,-2140.000,931460.000,84000.000,132000.000,-162000.000,-36.030,22.456,-0.688,-37.136,30.578,8.443,16753.927,-11400.568,6906.731
1512180658,16.100,24.400,-62.200,10990.000,24660.000,1038090.000,84000.000,132000.000,-162000.000,-29.561,23.543,-4.854,20.298,38.814,-39.176,16677.908,-11625.681,6907.265
1512180658,7.600,33.600,-59.300,-59330.000,9400.000,1037720.000,63000.000,160000.000,-142000.000,-37.125,19.250,1.419,-21.498,35.570,-20.663,16602.880,-11625.788,6832.909
1512180658,-35.300,65.500,-63.000,-9640.000,30700.000,1016480.000,63000.000,160000.000,-142000.000,-32.792,5.383,-2.828,-33.525,19.950,3.421,16677.237,-11775.675,6907.188
1512180658,44.600,45.900,-56.700,-35830.000,14400.000,987610.000,63000.000,160000.000,-142000.000,-32.647,0.057,-12.441,31.374,28.125,8.322,16676.458,-11925.684,6682.121
1512180658,22.800,58.300,-57.300,-41810.000,-3050.000,1087770.000,63000.000,160000.000,-142000.000,-33.797,6.453,-7.106,28.876,20.612,8.969,16677.130,-11775.675,6682.198
1512180658,-9.100,49.400,-51.100,-30090.000,-4270.000,1009520.000,63000.000,160000.000,-142000.000,-27.530,10.723,1.531,-41.251,31.152,13.430,16679.602,-11250.681,6907.433
1512180658,-29.800,39.100,-44.900,-40470.000,23250.000,991030.000,61000.000,148000.000,-147000.000,-29.584,3.251,-3.856,-4.592,35.880,31.758,16678.930,-11400.675,6907.372
1512180658,18.900,-4.500,-35.800,-65800.000,7260.000,977660.000,61000.000,148000.000,-147000.000,-22.690,6.462,-1.613,20.223,21.159,13.559,16641.202,-11438.235,6795.166
1512180658,5.700,0.500,-25.700,-38760.000,36800.000,986150.000,61000.000,148000.000,-147000.000,-15.844,4.855,2.742,-13.690,24.072,30.631,16679.487,-11250.681,6682.434
1512180658,33.600,-8.500,-16.100,-24540.000,15140.000,1010560.000,61000.000,148000.000,-147000.000,-8.849,-1.530,-0.908,-0.113,27.454,14.011,16715.300,-11625.620,6681.946
1512180658,-34.500,24.800,-14.400,-8000.000,-21180.000,985410.000,80000.000,142000.000,-148000.000,-5.688,7.549,1.835,-18.392,26.657,2.865,16640.280,-11625.735,6645.081
1512180658,20.200,-10.000,-0.300,790.000,16420.000,981320.000,80000.000,142000.000,-148000.000,-7.813,15.555,1.296,-6.579,22.580,5.310,16488.425,-12038.469,6646.164
1512180658,-47.800,18.600,-1.200,4390.000,-32780.000,1054380.000,80000.000,142000.000,-148000.000,-11.495,18.226,-1.412,-21.078,14.748,-4.623,16790.320,-11625.513,6718.811
1512180658,40.200,-12.400,6.800,14400.000,-15440.000,1012450.000,80000.000,142000.000,-148000.000,-20.000,14.476,-3.147,-20.885,11.779,38.618,16564.513,-11775.851,6458.153
1512180658,-53.300,34.900,16.200,-29790.000,-29480.000,961790.000,80000.000,142000.000,-148000.000,-16.204,14.492,-6.823,10.191,23.185,1.623,16828.924,-11362.948,6568.611
1512180658,0.000,8.000,24.000,-10800.000,-26370.000,984740.000,61000.000,151000.000,-160000.000,-15.244,2.731,-0.986,-17.273,24.114,14.651,16753.248,-11513.064,6569.176
1512180658,-21.700,14.600,30.200,-14890.000,-1530.000,961180.000,61000.000,151000.000,-160000.000,-13.539,5.950,-7.348,9.330,15.646,26.827,17241.819,-11249.834,6340.148
1512180658,4.800,24.400,39.700,-6290.000,-34730.000,982790.000,61000.000,151000.000,-160000.000,-7.186,24.645,-3.993,-38.298,20.984,10.756,17428.122,-11512.057,6300.934
1512180658,10.800,22.800,51.300,-5490.000,12880.000,1012570.000,61000.000,151000.000,-160000.000,-7.681,11.298,-6.710,-2.565,31.946,-13.828,17053.740,-11362.620,6191.696
1512180658,-52.500,41.500,57.300,-22220.000,-9280.000,978640.000,61000.000,151000.000,-160000.000,-7.623,-1.512,-11.019,-16.559,25.293,-12.633,17615.942,-11436.777,6261.879
1512180659,21.400,0.000,68.400,-36500.000,-2690.000,1025630.000,72000.000,144000.000,-157000.000,-6.053,0.091,-8.857,-14.710,28.426,-22.105,17503.546,-11399.439,6150.352
1512180659,-24.400,28.200,70.700,4760.000,-82150.000,1036560.000,72000.000,144000.000,-157000.000,-7.088,2.227,-10.999,-14.304,39.182,-0.904,17653.250,-11474.222,6224.037
1512180659,3.700,-10.700,85.200,28560.000,-48400.000,950560.000,72000.000,144000.000,-157000.000,-4.951,10.775,-10.938,0.766,28.820,-5.320,17277.197,-11699.778,6152.122
1512180659,44.700,-36.900,83.200,27100.000,-83370.000,1054990.000,72000.000,144000.000,-157000.000,-3.898,9.709,-9.859,-8.065,8.175,4.955,17728.552,-11399.103,6148.445
1512180659,-39.300,5.900,82.600,18740.000,-43520.000,1047970.000,56000.000,160000.000,-152000.000,-3.897,11.845,-9.852,-47.841,24.123,26.731,17200.628,-11999.887,5702.644
1512180659,-1.700,-3.900,88.900,44070.000,-74770.000,989620.000,56000.000,160000.000,-152000.000,-3.846,10.783,-13.053,-37.546,31.526,-36.681,17504.416,-11174.448,5850.456
1512180659,43.100,-23.000,91.600,24350.000,5800.000,929020.000,56000.000,160000.000,-152000.000,-4.914,3.306,-13.094,-31.930,10.539,20.843,17655.722,-10874.216,5774.330
1512180659,35.800,-32.800,99.700,4210.000,-49190.000,985110.000,56000.000,160000.000,-152000.000,-2.715,15.062,-17.288,-58.119,33.645,-2.964,17579.000,-11249.323,5699.791
1512180659,-41.400,-11.500,106.000,33570.000,-11170.000,1013490.000,56000.000,160000.000,-152000.000,-4.803,24.677,-19.417,-28.912,26.004,-18.619,17352.728,-11549.677,5851.570
1512180659,54.600,-61.800,108.800,-12880.000,28140.000,958310.000,68000.000,158000.000,-150000.000,-5.878,23.610,-18.368,-28.209,18.716,-8.193,17878.897,-11248.880,5472.237
1512180659,-13.200,-24.200,115.700,40160.000,-28750.000,1033020.000,68000.000,158000.000,-150000.000,-10.122,23.600,-20.566,-56.445,20.817,34.638,17881.216,-10723.871,5397.484
1512180659,25.000,-16.500,123.400,45780.000,9220.000,962400.000,68000.000,158000.000,-150000.000,-9.026,23.610,-21.613,-49.684,8.216,40.765,18104.269,-11173.548,5545.372
1512180659,28.400,-1.500,134.800,41630.000,-63420.000,1082820.000,68000.000,158000.000,-150000.000,-4.693,24.692,-25.810,10.129,11.272,35.814,18178.213,-11398.432,5469.627
1512180659,9.500,6.900,145.700,38450.000,-16360.000,962160.000,68000.000,158000.000,-150000.000,-4.720,23.618,-24.751,-58.228,5.741,18.590,17955.282,-10948.771,5546.745
1512180659,13.800,15.700,171.600,50720.000,-42420.000,1074040.000,66000.000,163000.000,-138000.000,-7.807,4.401,-32.324,-29.989,8.942,54.076,18405.462,-10873.087,5242.958
1512180659,-1.500,35.000,212.400,49070.000,-29910.000,1094600.000,66000.000,163000.000,-138000.000,-6.622,6.558,-38.693,27.592,5.996,-22.253,17726.110,-11849.100,5323.250
1512180659,40.500,26.200,235.200,27100.000,-30400.000,1004390.000,66000.000,163000.000,-138000.000,-13.074,14.014,-35.565,-16.788,4.649,2.342,18480.688,-10797.968,5017.357
1512180659,76.300,20.400,277.400,45230.000,-28140.000,1000980.000,66000.000,163000.000,-138000.000,-13.159,9.727,-31.320,-49.240,15.247,13.021,18255.285,-10873.316,4869.225
1512180659,9.900,42.700,316.300,33630.000,-31800.000,998600.000,75000.000,190000.000,-177000.000,-15.207,9.739,-35.610,-23.018,15.836,22.647,18555.960,-10722.864,4866.753
1512180659,-18.100,22.200,302.700,42420.000,-14650.000,976560.000,75000.000,190000.000,-177000.000,-14.059,25.772,-39.802,-6.746,15.802,-14.429,18403.631,-11248.087,4942.787
1512180659,-44.600,14.900,304.800,45530.000,-23500.000,1071110.000,75000.000,190000.000,-177000.000,-14.112,21.495,-36.619,-51.136,0.978,11.336,18399.206,-12148.096,4192.375
1512180659,-45.700,10.900,246.600,38940.000,9890.000,1010620.000,75000.000,190000.000,-177000.000,-9.816,16.158,-39.777,-58.658,13.386,-9.764,18631.445,-10572.748,4491.173
1512180659,-18.600,5.900,190.300,-20320.000,-6530.000,969240.000,75000.000,190000.000,-177000.000,-13.961,9.764,-46.252,-31.178,18.896,-13.738,18855.017,-10872.416,4339.134
1512180659,16.100,-2.400,190.400,51270.000,-23560.000,906620.000,82000.000,204000.000,-225000.000,-10.773,8.696,-46.211,-31.540,1.502,-24.279,19003.973,-11097.193,4262.749
1512180659,-3.300,-11.100,196.100,56640.000,-18620.000,909970.000,82000.000,204000.000,-225000.000,-12.922,6.556,-45.183,-55.009,9.831,6.023,19228.445,-11171.854,3885.811
1512180659,-2.400,-19.600,194.500,70560.000,-59510.000,958920.000,82000.000,204000.000,-225000.000,-13.910,20.448,-49.414,-57.252,14.324,9.110,19230.093,-10796.854,3810.982
1512180659,-43.500,-9.900,202.400,51570.000,-58590.000,969420.000,82000.000,204000.000,-225000.000,-7.958,32.752,-54.082,-51.684,23.856,-2.709,19414.610,-11434.076,3584.091
1512180659,-8.300,-22.000,203.600,52800.000,-44250.000,977970.000,82000.000,204000.000,-225000.000,-3.011,32.244,-63.073,-61.269,30.555,-18.117,19831.259,-10495.951,3431.023
1512180659,9.300,-11.600,207.500,74710.000,-25020.000,980160.000,84000.000,209000.000,-213000.000,2.891,13.562,-66.786,-23.591,24.212,-30.678,19866.110,-11058.397,3205.445
1512180659,13.400,-16.600,221.000,35520.000,-46200.000,1023860.000,84000.000,209000.000,-213000.000,11.514,-0.832,-73.107,-35.423,35.829,-18.191,19939.840,-11283.289,2679.703
1512180659,28.200,-14.500,236.400,44430.000,-11230.000,987790.000,84000.000,209000.000,-213000.000,18.971,-2.424,-73.005,-1.247,27.136,-34.541,20202.726,-11170.396,2452.530
1512180659,-48.100,13.200,232.900,35030.000,-47850.000,1002560.000,84000.000,209000.000,-213000.000,23.274,3.996,-75.052,-42.046,28.792,-14.060,20201.819,-11320.390,1964.966
1512180659,19.600,-14.200,234.600,50290.000,-11960.000,978940.000,96000.000,215000.000,-221000.000,26.515,3.475,-77.137,-24.929,28.195,-11.674,20425.047,-11695.062,1812.881
1512180659,0.500,-11.200,229.400,24720.000,-45350.000,942870.000,96000.000,215000.000,-221000.000,22.834,-0.797,-80.404,-67.261,5.571,27.747,20162.008,-11807.955,1740.059
1512180659,28.200,-15.600,232.600,34060.000,-32170.000,966370.000,96000.000,215000.000,-221000.000,21.893,-3.455,-88.423,-60.719,26.652,11.765,20422.499,-12220.072,1437.638
1512180659,-42.600,19.300,237.000,62190.000,-22710.000,972110.000,96000.000,215000.000,-221000.000,16.704,9.904,-96.447,-72.762,16.308,17.191,20724.600,-11769.610,1585.297
1512180659,47.000,-16.600,231.000,45720.000,-27710.000,963500.000,96000.000,215000.000,-221000.000,12.040,21.662,-103.936,-83.015,20.290,16.887,20796.324,-12482.004,1434.327
1512180659,1.100,8.000,233.700,67810.000,-19840.000,1029050.000,89000.000,211000.000,-211000.000,4.644,30.739,-107.210,-92.536,8.879,20.026,20981.985,-12931.727,1807.526
1512180660,52.600,-38.100,237.400,-1830.000,14950.000,987430.000,89000.000,211000.000,-211000.000,8.340,38.746,-105.532,-93.741,4.609,8.918,21168.921,-13043.940,1693.382
1512180660,-29.000,-2.300,283.800,29910.000,-36560.000,959050.000,89000.000,211000.000,-211000.000,9.382,22.725,-104.505,-72.723,23.012,22.858,21093.390,-13194.056,1993.950
1512180660,16.200,-11.600,331.400,41020.000,-38210.000,980530.000,89000.000,211000.000,-211000.000,8.323,24.863,-104.512,-39.484,23.959,17.480,21090.246,-13869.059,1768.639
1512180660,128.600,98.100,501.700,1160.000,13310.000,1271060.000,89000.000,211000.000,-211000.000,15.718,39.817,-100.090,-55.961,13.700,4.245,21015.997,-13719.172,1919.350
1512180660,41.000,25.200,624.200,31680.000,-16420.000,938900.000,101000.000,248000.000,-257000.000,16.826,32.345,-103.299,-94.493,15.364,0.677,21544.302,-13043.375,2440.178
1512180660,374.700,210.300,882.300,-3540.000,39670.000,959960.000,101000.000,248000.000,-257000.000,20.179,25.961,-112.867,-51.692,13.420,41.011,21391.104,-13718.607,2141.151
1512180660,1250.800,1578.500,1062.200,335940.000,-281310.000,1009580.000,101000.000,248000.000,-257000.000,24.641,29.197,-124.517,5.037,11.533,-1.986,21467.230,-13493.494,2365.608
1512180660,-22.000,500.800,847.700,430.000,100830.000,1280520.000,101000.000,248000.000,-257000.000,24.543,24.910,-119.205,-37.739,10.930,8.984,21237.356,-14543.848,2067.055
1512180660,-132.400,-689.500,547.100,-96860.000,22030.000,581120.000,131000.000,324000.000,-384000.000,23.511,35.597,-120.247,-80.809,17.926,-5.355,21240.591,-13793.833,1767.403
1512180660,134.900,-381.900,600.500,114500.000,77580.000,1469420.000,131000.000,324000.000,-384000.000,23.609,15.318,-126.710,13.542,-4.732,-19.505,21315.023,-14018.717,2666.649
1512180660,36.600,-29.200,349.100,9460.000,47550.000,803100.000,131000.000,324000.000,-384000.000,18.163,12.088,-120.406,-61.481,11.840,-15.810,21392.538,-13493.601,2966.255
1512180660,283.100,297.300,136.100,-8970.000,77030.000,1101560.000,131000.000,324000.000,-384000.000,21.410,13.165,-123.555,-67.745,28.726,-23.443,21766.562,-13718.042,3037.971
1512180660,22.200,8.800,222.600,4270.000,36870.000,999820.000,131000.000,324000.000,-384000.000,20.459,6.767,-131.054,-38.721,28.789,-45.119,21692.572,-13493.158,3038.704
1512180660,-53.700,-82.400,285.000,-13370.000,11410.000,964230.000,145000.000,377000.000,-428000.000,15.097,1.418,-129.017,-47.414,33.793,-34.025,21994.787,-13042.704,3411.369
1512180660,-6.500,81.200,253.900,21670.000,-13370.000,970950.000,145000.000,377000.000,-428000.000,9.670,-9.284,-123.803,-76.636,9.351,17.142,22144.751,-13042.475,3335.091
1512180660,-32.200,-48.100,265.400,-8850.000,-10860.000,984440.000,145000.000,377000.000,-428000.000,11.946,-10.330,-132.301,-49.319,-4.362,33.900,21994.528,-13117.701,3561.317
1512180660,-36.000,-4.900,254.700,13610.000,-490.000,960510.000,145000.000,377000.000,-428000.000,14.014,-6.067,-129.061,-32.170,20.507,24.004,21995.611,-12892.694,3711.433
1512180660,-20.600,14.600,256.300,20940.000,12080.000,1056210.000,147000.000,389000.000,-433000.000,14.009,15.300,-126.851,-90.562,26.331,3.363,21768.805,-13268.045,3488.167
1512180660,-20.100,-3.100,264.900,-46690.000,29790.000,1051030.000,147000.000,389000.000,-433000.000,16.161,3.554,-128.995,-75.064,21.876,-0.294,21695.837,-12818.155,3489.021
1512180660,-91.200,-78.700,270.000,5680.000,20260.000,969180.000,147000.000,389000.000,-433000.000,15.125,16.374,-130.030,-109.214,8.217,-21.322,21617.910,-13493.265,3714.333
1512180660,-38.600,33.700,265.700,19040.000,-18250.000,973020.000,147000.000,389000.000,-433000.000,11.005,19.589,-138.607,-114.858,21.243,-15.834,21997.793,-12442.698,4011.635
1512180660,-66.300,-44.700,275.500,28810.000,-21550.000,972720.000,147000.000,389000.000,-433000.000,11.080,13.187,-143.961,-66.133,22.915,-20.919,21924.093,-12142.817,3937.416
1512180660,-37.000,17.000,278.000,39670.000,-50110.000,968020.000,147000.000,386000.000,-423000.000,9.993,5.707,-142.936,-45.399,23.269,-35.207,22299.444,-12067.240,3934.258
