unixtime,rx,ry,rz,ax,ay,az,mx,my,mz,apprx,appry,apprz,appax,appay,appaz,appmx,appmy,appmz
1512180864,-5.600,-23.200,-47.000,-92220.000,-86430.000,805730.000,291000.000,495000.000,-435000.000,-33.546,-16.251,428.636,181.280,38.583,35.833,11692.457,20120.371,4866.631
1512180864,12.700,68.400,-28.400,-64030.000,-112240.000,1076540.000,291000.000,495000.000,-435000.000,-28.278,-8.765,434.074,159.747,60.513,43.542,11993.513,20345.819,4939.186
1512180864,7.700,-27.300,-27.000,-226500.000,-46330.000,961180.000,291000.000,495000.000,-435000.000,-35.732,-5.577,432.908,154.727,34.618,7.093,11918.959,20495.707,4489.891
1512180864,33.700,-45.800,-45.900,-108220.000,-99430.000,1039920.000,291000.000,495000.000,-435000.000,-36.797,-22.663,432.837,173.177,31.064,23.933,11916.227,19895.700,4414.604
1512180864,87.600,27.700,-40.700,-197810.000,-88440.000,1019650.000,286000.000,490000.000,-416000.000,-38.932,-30.149,431.710,187.727,40.261,15.147,12141.188,19896.036,4337.700
1512180864,-46.700,-49.400,-30.000,-150150.000,-95760.000,943660.000,286000.000,490000.000,-416000.000,-35.648,-20.517,427.529,128.696,38.337,33.929,12367.567,20196.375,4410.927
1512180864,-34.000,4.700,-35.300,-126220.000,-91920.000,1069460.000,286000.000,490000.000,-416000.000,-31.232,-21.562,417.994,181.845,58.448,-8.309,12517.241,20121.607,4409.615
1512180864,14.400,13.000,-44.500,-110720.000,-57500.000,946170.000,286000.000,490000.000,-416000.000,-37.689,-37.600,421.043,242.348,71.701,1.930,12365.355,19671.381,4710.686
1512180864,35.200,12.100,-45.100,-141050.000,-104060.000,1046020.000,288000.000,474000.000,-435000.000,-34.506,-32.256,422.174,143.387,45.661,-21.826,12738.600,19296.946,4557.320
1512180864,48.900,-18.200,-49.700,-155820.000,-99730.000,1032170.000,288000.000,474000.000,-435000.000,-34.426,-39.725,416.818,169.402,48.980,-3.849,12967.131,20047.281,4855.751
1512180864,36.400,-7.100,-48.500,-144170.000,-38820.000,941350.000,288000.000,474000.000,-435000.000,-42.920,-44.005,414.548,220.759,36.609,33.510,12963.942,19372.278,4555.443
1512180864,60.900,31.300,-55.000,-188110.000,-89360.000,1039000.000,288000.000,474000.000,-435000.000,-38.730,-54.687,418.837,130.137,22.010,66.928,13414.732,19522.959,4776.695
1512180864,-16.600,-81.600,-55.300,-119320.000,-62930.000,934630.000,288000.000,474000.000,-435000.000,-38.632,-52.543,412.447,142.426,38.836,60.849,13489.622,19523.066,4551.048
1512180864,116.400,79.600,-48.300,-144100.000,-35580.000,1082280.000,289000.000,479000.000,-429000.000,-30.155,-57.873,415.751,188.108,56.442,41.423,13639.021,19373.285,4699.715
1512180864,151.700,20.500,-54.300,-170100.000,120.000,948670.000,289000.000,479000.000,-429000.000,-29.170,-48.269,421.129,142.379,32.529,21.950,13790.373,19673.517,4698.570
1512180864,39.700,-40.100,-57.400,-168580.000,-34730.000,1043760.000,289000.000,479000.000,-429000.000,-36.595,-46.140,418.897,163.325,45.140,22.089,13788.649,19298.517,4623.390
1512180864,153.300,25.400,-57.900,-179020.000,-22710.000,939090.000,289000.000,479000.000,-429000.000,-33.426,-21.577,421.157,146.008,57.542,14.792,13712.034,18923.395,4773.857
1512180864,104.400,-32.800,-56.300,-137940.000,-5680.000,997740.000,289000.000,479000.000,-429000.000,-35.611,-42.942,424.253,90.812,24.820,37.036,13937.742,19073.740,4847.008
1512180864,96.700,-19.700,-51.900,-185850.000,-35220.000,1044250.000,303000.000,483000.000,-436000.000,-31.271,-31.185,419.022,169.669,51.228,21.521,14387.709,19074.411,4768.196
1512180864,22.200,-36.100,-56.100,-171570.000,-61950.000,898560.000,303000.000,483000.000,-436000.000,-38.847,-16.252,427.496,225.920,50.438,2.915,14459.288,18324.518,4692.207
1512180864,7.700,25.000,-55.700,-123170.000,-105900.000,1044680.000,303000.000,483000.000,-436000.000,-35.893,-21.614,442.447,98.014,27.029,15.703,14160.688,18624.079,4769.905
1512180864,5.900,-88.000,-54.600,-181760.000,-64030.000,959410.000,303000.000,483000.000,-436000.000,-41.055,-6.650,432.829,80.307,39.029,11.999,14158.506,18174.067,4469.688
1512180864,65.400,58.200,-60.200,-167540.000,-72020.000,990110.000,282000.000,483000.000,-429000.000,-43.076,-2.366,426.419,200.560,32.864,29.919,14610.609,18624.750,4616.066
1512180864,61.400,-37.600,-52.900,-198180.000,-87830.000,1045040.000,282000.000,483000.000,-429000.000,-43.238,-9.862,435.985,137.884,38.507,40.331,14535.948,18699.640,4616.737
1512180864,90.000,-46.100,-48.700,-228390.000,-64450.000,973330.000,282000.000,483000.000,-429000.000,-41.040,-4.513,431.770,83.094,39.012,40.142,14909.330,18325.190,4763.390
1512180864,94.800,1.300,-54.300,-158750.000,-16170.000,1007510.000,282000.000,483000.000,-429000.000,-50.420,-13.043,418.813,124.828,48.112,26.634,14909.636,18400.202,4688.423
1512180864,115.400,-47.300,-54.200,-185000.000,-63960.000,1042480.000,282000.000,483000.000,-429000.000,-48.863,-0.232,421.543,196.196,32.488,42.030,15245.969,18138.200,4722.931
1512180864,137.800,-50.300,-55.500,-139710.000,-62010.000,972660.000,286000.000,465000.000,-433000.000,-31.884,14.202,426.635,106.862,61.996,-9.758,15844.816,17876.596,4755.211
1512180864,144.200,48.700,-56.200,-174260.000,-35100.000,994320.000,286000.000,465000.000,-433000.000,-44.726,5.100,429.618,235.503,39.325,40.334,16330.732,17539.827,4638.412
1512180864,84.600,-114.500,-58.700,-152470.000,-36320.000,1064390.000,286000.000,465000.000,-433000.000,-30.418,10.985,434.642,61.200,33.869,17.483,16743.521,17615.450,4522.438
1512180864,90.300,5.600,-59.800,-178890.000,-26310.000,1043700.000,286000.000,465000.000,-433000.000,-37.190,4.586,424.927,207.851,61.302,28.736,17191.198,17128.611,4255.890
1512180864,68.200,-50.300,-69.200,-146790.000,-24600.000,968260.000,302000.000,484000.000,-435000.000,-43.059,-5.571,424.807,125.210,19.892,54.648,17189.154,16641.108,4555.664
1512180864,54.100,-69.100,-67.100,-154240.000,-8730.000,1050840.000,302000.000,484000.000,-435000.000,-54.696,-10.384,419.292,184.269,25.589,56.339,17564.390,16679.178,4702.492
1512180864,25.200,-19.600,-69.500,-165650.000,-54810.000,983460.000,302000.000,484000.000,-435000.000,-51.510,-18.924,419.842,172.015,43.269,26.023,17863.439,16454.630,4812.332
1512180864,24.400,-52.700,-69.500,-195860.000,-26250.000,974550.000,302000.000,484000.000,-435000.000,-52.008,-50.434,415.459,179.839,55.832,2.197,18200.926,16455.126,4771.965
1512180864,52.300,-20.200,-71.000,-154790.000,-17150.000,1017150.000,302000.000,484000.000,-435000.000,-50.436,-38.148,418.191,166.399,67.753,4.846,18462.317,16193.025,4919.617
1512180864,-12.400,-36.600,-78.400,-152100.000,-35580.000,930240.000,291000.000,474000.000,-424000.000,-47.233,-32.268,418.258,175.036,63.992,-19.235,18385.626,15817.904,4920.082
1512180864,18.000,-43.800,-77.500,-136600.000,-41750.000,982420.000,291000.000,474000.000,-424000.000,-50.572,-40.302,426.176,163.293,50.699,25.039,18947.286,15631.258,4915.214
1512180865,38.000,23.200,-76.200,-208800.000,-8300.000,941650.000,291000.000,474000.000,-424000.000,-46.357,-54.722,428.319,144.200,40.437,23.303,19096.632,15481.470,4951.363
1512180865,-53.000,-61.500,-78.700,-183780.000,10130.000,994930.000,291000.000,474000.000,-424000.000,-43.058,-60.045,421.952,172.543,59.783,34.548,19171.629,15481.592,4950.722
1512180865,36.500,-4.300,-79.200,-203190.000,-58040.000,1060970.000,291000.000,474000.000,-424000.000,-44.110,-63.242,421.930,183.457,75.328,-16.100,19019.911,15106.363,4876.839
1512180865,-6.500,-19.400,-84.300,-117740.000,-41380.000,927060.000,279000.000,468000.000,-423000.000,-46.271,-75.000,422.922,194.536,29.609,33.786,18942.961,14731.241,4352.303
1512180865,-10.700,-39.800,-85.800,-129150.000,-43950.000,1021730.000,279000.000,468000.000,-423000.000,-43.118,-79.275,425.084,182.475,61.127,50.538,19090.147,14131.464,4125.755
1512180865,-11.900,-13.700,-92.000,-139470.000,-42910.000,1025210.000,279000.000,468000.000,-423000.000,-47.355,-80.350,422.884,192.131,54.544,38.339,19317.350,14581.812,4499.046
1512180865,-29.400,-0.400,-92.400,-163940.000,-48340.000,959900.000,279000.000,468000.000,-423000.000,-47.484,-75.022,431.432,216.595,36.084,41.473,19467.024,14507.029,4497.734
1512180865,10.300,-48.200,-96.300,-161870.000,-22640.000,996580.000,302000.000,467000.000,-431000.000,-43.210,-73.949,430.429,141.566,62.867,64.525,19240.370,14131.693,4574.471
1512180865,-16.000,-2.100,-101.100,-154850.000,-43030.000,962040.000,302000.000,467000.000,-431000.000,-42.128,-84.624,429.343,199.189,60.821,41.650,19315.489,14131.800,4798.836
1512180865,11.600,-40.200,-94.800,-168580.000,-4390.000,1049560.000,302000.000,467000.000,-431000.000,-38.912,-61.118,429.472,235.141,60.188,16.946,19389.280,13906.916,4423.088
1512180865,-3.700,-1.700,-98.300,-162660.000,-37540.000,945010.000,302000.000,467000.000,-431000.000,-43.352,-38.716,441.212,149.190,86.252,-4.059,19164.015,13831.583,4574.974
1512180865,-8.800,-25.600,-98.100,-187070.000,-16540.000,1049130.000,302000.000,467000.000,-431000.000,-41.237,-39.782,442.306,103.668,74.136,0.107,19314.390,13906.809,4648.735
1512180865,-11.900,-19.600,-99.100,-178040.000,-10990.000,944820.000,284000.000,456000.000,-424000.000,-55.089,-36.591,443.187,180.839,46.634,9.557,19463.865,13832.026,4272.423
1512180865,-17.700,-27.000,-103.900,-175540.000,-58840.000,1006160.000,284000.000,456000.000,-424000.000,-48.754,0.788,447.669,171.106,48.052,-8.161,19536.573,13307.138,4421.547
1512180865,43.300,-37.000,-95.600,-202450.000,21000.000,960140.000,284000.000,456000.000,-424000.000,-54.216,-8.850,455.018,112.636,36.539,15.947,19612.974,13607.248,4496.040
1512180865,5.700,-62.300,-105.700,-149540.000,-10800.000,953920.000,284000.000,456000.000,-424000.000,-53.106,-12.050,451.823,138.507,74.958,29.991,19611.509,13307.245,4270.912
1512180865,-44.200,-76.800,-106.500,-189270.000,-67630.000,887020.000,284000.000,456000.000,-424000.000,-52.084,-18.457,455.017,151.206,56.175,-24.422,19757.902,12482.462,4494.255
1512180865,-13.800,40.900,-112.100,-191350.000,10130.000,945860.000,291000.000,456000.000,-421000.000,-57.286,-26.997,446.382,174.560,34.460,37.259,19834.959,12932.581,4568.825
1512180865,139.200,-75.900,-118.400,-189820.000,26920.000,1066410.000,291000.000,456000.000,-421000.000,-55.292,-27.009,454.940,155.957,39.308,29.394,19984.297,12782.801,4567.482
1512180865,183.200,-52.700,-119.400,-176940.000,8000.000,984070.000,291000.000,456000.000,-421000.000,-47.732,-20.582,448.672,155.741,62.637,49.868,20133.024,12483.027,4716.057
1512180865,185.000,-16.400,-129.400,-164180.000,49740.000,995540.000,291000.000,456000.000,-421000.000,-38.072,-2.401,445.678,231.394,68.064,-25.193,19833.128,12482.584,4943.596
1512180865,219.600,-113.300,-133.000,-155880.000,93570.000,1087100.000,284000.000,453000.000,-414000.000,-39.125,1.875,445.680,144.482,49.441,5.775,19830.320,11882.578,4718.330
1512180865,259.500,-53.700,-134.100,-163760.000,67870.000,958800.000,284000.000,453000.000,-414000.000,-34.859,-12.005,444.626,159.952,69.163,52.529,20358.931,12708.368,4489.250
1512180865,220.200,-18.900,-141.100,-116090.000,19780.000,1070430.000,284000.000,453000.000,-414000.000,-26.311,1.893,443.731,163.119,79.422,-12.977,20732.237,12333.933,4485.893
1512180865,125.600,-178.400,-127.300,-155330.000,94060.000,1052610.000,284000.000,453000.000,-414000.000,-30.033,0.294,444.209,148.892,65.031,-17.422,20729.772,11771.425,4635.635
1512180865,157.000,70.800,-146.200,-126890.000,75990.000,995000.000,284000.000,453000.000,-414000.000,-32.091,-10.918,438.808,142.885,61.572,14.187,21064.391,11134.424,4594.971
1512180865,27.800,-107.900,-149.100,-106020.000,-19710.000,1047120.000,272000.000,454000.000,-409000.000,-39.153,-1.332,447.268,179.316,48.473,23.944,21363.829,11022.379,4479.866
1512180865,117.200,60.600,-154.300,-147640.000,31250.000,991700.000,272000.000,454000.000,-409000.000,-37.992,-12.535,440.849,158.524,48.593,11.745,21586.538,10497.705,4627.716
1512180865,26.500,-2.900,-157.300,-115910.000,-24960.000,1098940.000,272000.000,454000.000,-409000.000,-38.556,-15.748,441.893,189.773,47.274,35.956,21622.671,10235.262,4252.281
1512180865,-6.700,-22.900,-160.500,-180300.000,19040.000,986080.000,272000.000,454000.000,-409000.000,-40.785,0.795,448.849,126.237,58.424,89.449,21807.752,9673.044,4475.426
1512180865,75.000,17.000,-165.600,-137880.000,57620.000,1065430.000,282000.000,461000.000,-389000.000,-39.099,6.683,444.097,189.942,59.263,32.739,21916.669,8885.706,4399.102
1512180865,93.900,40.300,-175.900,-122130.000,1830.000,966670.000,282000.000,461000.000,-389000.000,-45.627,-4.025,451.427,134.959,55.471,49.790,22030.226,9110.872,4473.251
1512180865,55.700,-113.600,-176.700,-96800.000,18740.000,987120.000,282000.000,461000.000,-389000.000,-48.303,5.582,452.487,195.999,44.011,52.072,22252.378,8473.711,4508.545
1512180865,81.200,94.900,-175.400,-173030.000,77940.000,1046690.000,282000.000,461000.000,-389000.000,-47.332,0.235,458.348,139.145,61.221,-9.323,22102.171,8435.984,4434.799
1512180865,57.300,-142.100,-179.000,-189150.000,85750.000,948000.000,282000.000,461000.000,-389000.000,-53.669,-35.014,453.337,228.182,70.244,36.747,22248.831,7686.205,4508.179
1512180865,127.800,-70.600,-169.400,-168150.000,49800.000,1024900.000,288000.000,456000.000,-391000.000,-49.444,-48.897,454.949,236.240,61.974,30.196,22284.414,7273.752,4395.164
1512180865,49.500,49.800,-183.900,-112370.000,29600.000,953860.000,288000.000,456000.000,-391000.000,-46.263,-56.906,455.500,171.412,60.332,48.611,22620.123,6861.757,4504.616
1512180866,109.300,-87.000,-183.000,-117370.000,45290.000,1106510.000,288000.000,456000.000,-391000.000,-39.196,-64.357,446.514,243.698,55.372,37.780,22732.939,6936.930,4466.194
1512180866,190.100,56.600,-185.100,-125370.000,59750.000,1008420.000,288000.000,456000.000,-391000.000,-43.582,-54.761,455.015,238.462,56.995,34.606,22729.826,6261.927,4315.880
1512180866,-83.900,-6.700,-179.400,-121520.000,9890.000,1059690.000,298000.000,460000.000,-411000.000,-42.641,-62.257,461.395,147.255,51.092,15.696,22654.219,6111.811,4466.454
1512180866,-49.800,-73.500,-176.000,-104130.000,1650.000,1079220.000,298000.000,460000.000,-411000.000,-42.556,-70.790,456.037,150.981,86.090,52.178,22800.993,5437.037,4089.867
1512180866,-116.800,87.900,-166.400,-133970.000,38020.000,1007930.000,298000.000,460000.000,-411000.000,-46.844,-77.209,457.018,121.322,51.095,36.636,23100.294,5287.485,4012.230
1512180866,-136.500,-45.800,-167.500,-102230.000,3360.000,1072270.000,298000.000,460000.000,-411000.000,-45.656,-80.396,449.562,113.746,44.421,14.432,23026.747,5587.366,4238.014
1512180866,-143.800,-30.600,-157.700,-166440.000,-11110.000,944580.000,298000.000,460000.000,-411000.000,-54.150,-63.315,448.433,136.258,68.147,43.387,23026.106,5437.372,4312.950
1512180866,-94.900,37.700,-165.200,-150820.000,-30880.000,1009340.000,300000.000,479000.000,-429000.000,-62.877,-72.964,460.000,245.280,50.137,56.092,22874.006,4987.146,4164.009
1512180866,-84.700,-98.900,-159.100,-143550.000,-38210.000,1099120.000,300000.000,479000.000,-429000.000,-57.662,-49.476,467.617,148.935,52.250,47.045,23248.182,4837.702,3860.756
1512180866,5.900,71.500,-169.000,-99610.000,-41750.000,1017150.000,300000.000,479000.000,-429000.000,-55.488,-29.170,466.656,83.343,46.424,-19.501,23324.995,5212.809,4085.289
1512180866,-9.900,-9.700,-169.500,-119870.000,-18250.000,1061710.000,300000.000,479000.000,-429000.000,-62.766,-43.044,454.775,167.916,42.417,58.316,23248.411,4837.702,4310.753
1512180866,27.000,-84.800,-173.000,-103940.000,-71110.000,1046940.000,300000.000,479000.000,-429000.000,-62.903,-18.494,464.454,206.969,8.656,34.017,23022.367,4612.360,4237.572
1512180866,44.200,67.500,-173.100,-141050.000,13310.000,926210.000,286000.000,468000.000,-429000.000,-60.811,-5.683,466.658,73.874,67.135,63.629,23020.826,4312.357,3862.434
1512180866,-11.100,-88.800,-165.600,-149480.000,23620.000,948610.000,286000.000,468000.000,-429000.000,-59.542,21.055,457.181,-21.892,81.821,-0.312,23245.558,4237.696,4010.475
1512180866,127.200,-0.400,-167.800,-166750.000,55910.000,979000.000,286000.000,468000.000,-429000.000,-60.478,38.149,448.692,220.065,39.115,-28.094,23244.627,4012.690,4160.378
1512180866,130.600,37.400,-175.600,-124020.000,81970.000,898070.000,286000.000,468000.000,-429000.000,-59.502,69.119,456.279,111.096,73.241,-25.811,23469.633,4013.041,4158.470
1512180866,74.800,-25.600,-168.600,-181270.000,52550.000,1027340.000,288000.000,453000.000,-424000.000,-70.204,68.034,459.321,28.894,32.201,0.616,23542.784,3563.135,4532.616
1512180866,150.100,11.500,-176.200,-98820.000,54020.000,1027160.000,288000.000,453000.000,-424000.000,-78.556,75.515,448.563,123.108,48.856,70.080,23392.424,3487.909,4458.855
1512180866,130.100,41.400,-184.300,-162540.000,53470.000,1020260.000,288000.000,453000.000,-424000.000,-73.262,95.814,451.910,96.610,45.682,-16.343,23542.006,3413.141,4307.549
1512180866,159.800,-117.600,-175.800,-147890.000,45960.000,1029300.000,288000.000,453000.000,-424000.000,-75.465,87.260,456.114,73.897,27.692,-3.851,23766.737,3338.480,4455.605
1512180866,199.300,121.300,-192.700,-104860.000,64820.000,1020570.000,288000.000,453000.000,-424000.000,-82.834,74.433,448.494,134.269,15.605,76.705,23988.325,2588.816,4378.334
1512180866,43.000,-113.100,-181.600,-124210.000,57370.000,1145940.000,286000.000,437000.000,-419000.000,-83.827,99.015,446.438,175.600,39.905,47.117,23762.281,2363.474,4305.153
1512180866,170.800,53.000,-195.300,-148190.000,90150.000,1020020.000,286000.000,437000.000,-419000.000,-82.942,101.128,457.117,154.739,56.020,62.068,23763.700,2663.477,4455.299
1512180866,220.400,-7.200,-189.500,-148500.000,93140.000,1176510.000,286000.000,437000.000,-419000.000,-82.897,94.724,453.897,116.369,40.246,9.254,23986.631,2213.800,4378.166
1512180866,17.000,-72.700,-202.100,-155700.000,62380.000,1026670.000,286000.000,437000.000,-419000.000,-93.323,82.992,439.849,233.712,40.662,39.042,24136.259,2139.032,4301.857
1512180866,138.600,40.300,-190.100,-170040.000,93200.000,1026310.000,286000.000,437000.000,-419000.000,-91.312,74.432,446.243,213.020,38.521,65.425,24358.335,1464.365,4524.635
1512180866,99.200,-14.400,-192.100,-129460.000,21730.000,1071840.000,286000.000,440000.000,-409000.000,-98.081,49.341,435.397,167.111,67.217,49.326,24547.094,1727.152,4673.165
1512180866,15.400,-38.500,-201.100,-132870.000,70860.000,964970.000,286000.000,440000.000,-409000.000,-94.767,14.647,426.796,222.941,72.530,-13.885,24545.279,1314.646,4747.978
1512180866,62.300,106.500,-210.100,-125370.000,27340.000,1080570.000,286000.000,440000.000,-409000.000,-84.098,-44.614,423.547,233.772,83.401,3.575,24655.920,902.316,4746.826
1512180866,22.100,-41.100,-213.200,-146300.000,72200.000,1017940.000,286000.000,440000.000,-409000.000,-75.051,-69.703,423.057,205.175,84.286,-3.833,25180.906,903.101,4704.864
1512180866,105.900,60.200,-218.000,-165830.000,86670.000,1069150.000,286000.000,437000.000,-436000.000,-64.436,-93.726,424.192,252.018,76.036,22.121,25177.793,228.098,4554.550
1512180866,200.500,4.100,-210.100,-203740.000,98570.000,1132320.000,286000.000,437000.000,-436000.000,-45.829,-118.270,425.975,175.098,118.815,-29.923,24799.422,-522.467,4557.396
1512180866,34.500,20.600,-230.800,-110050.000,70860.000,1005490.000,286000.000,437000.000,-436000.000,-28.207,-157.227,421.829,210.603,65.462,-24.564,24987.165,-447.187,4368.339
1512180866,98.300,47.300,-228.200,-100890.000,70980.000,1161250.000,286000.000,437000.000,-436000.000,-19.789,-128.918,430.582,112.523,96.221,-7.770,24684.958,-935.149,4370.659
1512180866,58.300,0.900,-227.400,-123350.000,80930.000,1006530.000,286000.000,437000.000,-436000.000,-15.379,-88.839,423.856,139.912,-6.726,10.058,24496.473,-1122.931,4072.166
1512180866,103.900,87.200,-233.400,-114070.000,127320.000,1096130.000,282000.000,440000.000,-423000.000,-34.645,-15.178,432.362,-17.863,73.557,128.414,24456.983,-1572.981,4147.285
1512180866,-49.400,24.500,-227.700,-222900.000,83920.000,1170900.000,282000.000,440000.000,-423000.000,-20.099,41.468,425.306,85.386,-28.988,61.048,24418.005,-1910.543,4222.442
1512180866,-63.400,-2.300,-253.400,-120540.000,51030.000,938110.000,282000.000,440000.000,-423000.000,-31.286,76.168,426.864,19.518,62.316,63.706,24642.004,-2135.206,4257.927
1512180867,5.900,18.000,-237.000,-163640.000,31620.000,1130800.000,282000.000,440000.000,-423000.000,-42.047,101.240,434.259,94.680,13.688,41.206,24565.046,-2585.318,4370.857
1512180867,27.600,135.300,-258.600,-198430.000,73180.000,889590.000,282000.000,440000.000,-423000.000,-50.740,95.865,443.708,11.216,25.973,76.881,25012.342,-3184.652,4366.753
1512180867,-138.200,9.300,-250.900,-140500.000,59270.000,980650.000,288000.000,424000.000,-418000.000,-56.911,109.768,430.874,91.612,20.068,89.015,25388.624,-2884.085,4213.707
1512180867,-34.500,69.500,-242.700,-211550.000,77940.000,1004150.000,288000.000,424000.000,-418000.000,-71.659,125.790,421.123,145.933,8.501,31.029,25237.226,-3184.317,4139.839
1512180867,23.200,152.500,-256.900,-154790.000,68600.000,1045290.000,288000.000,424000.000,-418000.000,-79.140,122.564,420.998,136.260,31.357,67.291,24783.247,-4084.997,4293.251
1512180867,-100.900,-52.200,-257.800,-114260.000,81600.000,1140080.000,288000.000,424000.000,-418000.000,-83.367,124.699,418.812,107.578,17.600,58.847,25610.060,-3708.761,4511.406
1512180867,-71.400,84.300,-261.400,-119870.000,16240.000,888490.000,272000.000,426000.000,-433000.000,-92.803,104.415,409.014,134.435,20.549,61.057,25835.051,-3708.426,4509.499
1512180867,-48.200,63.000,-257.000,-106690.000,26550.000,1126220.000,272000.000,426000.000,-433000.000,-89.534,96.954,404.773,198.863,31.325,38.541,25683.104,-4158.651,4660.561
1512180867,-85.200,70.700,-268.400,-107670.000,31740.000,862120.000,272000.000,426000.000,-433000.000,-102.328,68.096,403.421,159.594,6.449,46.561,25758.482,-4083.532,4734.962
1512180867,-27.300,70.400,-253.800,-160280.000,36800.000,1123840.000,272000.000,426000.000,-433000.000,-103.238,39.275,392.647,173.053,46.018,32.922,25681.044,-4608.648,4585.365
1512180867,-26.600,144.700,-253.800,-203430.000,11660.000,917540.000,272000.000,426000.000,-433000.000,-104.265,38.204,389.427,201.869,75.830,-5.783,26207.579,-4307.867,4956.032
1512180867,2.300,-15.200,-252.200,-152830.000,62810.000,963200.000,279000.000,401000.000,-429000.000,-100.911,19.008,379.818,169.123,79.377,-11.844,26357.542,-4307.638,4879.753
1512180867,85.600,62.100,-243.000,-237670.000,129520.000,1010560.000,279000.000,401000.000,-429000.000,-100.731,-2.331,368.020,194.415,52.878,-7.262,25832.685,-4308.416,5184.212
1512180867,58.100,59.800,-242.300,-224000.000,88130.000,957820.000,279000.000,401000.000,-429000.000,-100.626,-11.929,361.594,199.353,57.182,-24.101,26132.399,-4382.971,5256.630
1512180867,-2.900,-44.700,-254.500,-112430.000,40650.000,1027950.000,279000.000,401000.000,-429000.000,-102.890,-24.772,367.908,207.721,72.445,-12.350,25831.602,-4533.422,5034.111
1512180867,90.100,96.400,-245.900,-232180.000,77330.000,1095700.000,277000.000,410000.000,-431000.000,-96.466,-33.304,365.839,135.525,48.644,-9.202,26207.212,-4457.861,5555.962
1512180867,-45.400,-91.200,-248.200,-127560.000,69400.000,999760.000,277000.000,410000.000,-431000.000,-93.115,-59.983,355.134,159.432,53.600,-18.058,26131.117,-4682.974,5406.487
1512180867,124.500,112.300,-246.300,-122620.000,51640.000,1128540.000,277000.000,410000.000,-431000.000,-89.811,-61.033,348.782,222.652,50.796,-16.036,25905.439,-4833.319,5408.333
1512180867,70.400,-1.500,-252.100,-172730.000,47850.000,1012450.000,277000.000,410000.000,-431000.000,-78.215,-62.094,357.479,114.053,69.542,-34.939,25681.303,-4683.645,5785.316
1512180867,11.500,-61.400,-259.700,-127750.000,86360.000,988280.000,277000.000,410000.000,-431000.000,-74.942,-73.830,352.154,61.685,44.624,-15.997,25606.337,-4683.767,5860.954
1512180867,123.300,36.400,-249.400,-199340.000,109620.000,1040710.000,272000.000,409000.000,-440000.000,-57.704,-64.168,341.777,117.926,60.864,-15.974,25305.861,-4759.207,5563.469
1512180867,76.400,-6.900,-258.300,-179440.000,90210.000,1015990.000,272000.000,409000.000,-440000.000,-45.982,-40.653,343.095,119.332,32.950,-65.342,25380.033,-4984.106,5937.721
1512180867,68.800,-16.500,-251.400,-136660.000,113160.000,1049560.000,272000.000,409000.000,-440000.000,-40.712,-43.858,346.357,57.503,68.372,-1.162,25529.921,-4983.877,5711.449
1512180867,75.800,62.300,-242.500,-167850.000,62320.000,973330.000,272000.000,409000.000,-440000.000,-28.720,-24.580,331.675,2.111,41.918,6.720,25528.608,-5283.880,5786.308
1512180867,32.800,-32.000,-243.100,-137570.000,25150.000,972350.000,272000.000,409000.000,-440000.000,-17.792,-40.559,313.650,111.717,-18.497,22.311,24853.086,-5434.896,6091.988
1512180867,25.200,6.100,-243.700,-128110.000,66530.000,1002620.000,274000.000,393000.000,-424000.000,-10.150,-28.778,303.141,84.089,-5.277,15.860,24929.655,-5134.771,6541.481
1512180867,6.000,-13.600,-246.700,-138060.000,64510.000,974430.000,274000.000,393000.000,-424000.000,-11.632,-67.212,294.994,85.819,123.100,-43.477,24477.736,-5547.964,6432.617
1512180867,0.300,-32.200,-250.700,-148860.000,40830.000,925480.000,274000.000,393000.000,-424000.000,-16.161,-48.496,279.535,69.219,7.527,3.055,24101.141,-5923.521,6623.131
1512180867,102.000,92.300,-252.100,-168030.000,77030.000,1040340.000,274000.000,393000.000,-424000.000,-26.145,-48.493,270.862,78.270,19.825,-10.544,23762.220,-6261.534,6813.332
1512180867,9.900,-26.200,-249.800,-118770.000,75680.000,1037540.000,260000.000,414000.000,-435000.000,-26.592,-38.872,266.092,34.080,31.263,48.156,23312.880,-6112.203,6779.724
1512180867,61.900,-12.000,-239.200,-141970.000,58170.000,1022280.000,260000.000,414000.000,-435000.000,-26.356,-14.808,253.387,38.713,5.853,59.471,22899.298,-6375.319,7008.110
1512180867,116.900,-2.300,-240.000,-193300.000,83740.000,940370.000,260000.000,414000.000,-435000.000,-17.749,-3.039,248.755,-5.677,8.624,80.203,22297.559,-6788.725,7238.022
1512180867,83.000,-83.000,-236.500,-110470.000,90700.000,974000.000,260000.000,414000.000,-435000.000,-6.816,-11.001,231.828,30.027,18.792,67.773,21846.845,-6976.904,7504.257
1512180867,194.900,26.200,-221.800,-150700.000,85020.000,1047000.000,260000.000,414000.000,-435000.000,9.402,7.211,219.335,15.937,26.170,48.234,21545.095,-7352.354,7394.135
1512180867,78.300,15.400,-214.400,-209840.000,78740.000,1002380.000,263000.000,379000.000,-424000.000,1.557,21.636,210.743,-11.071,0.982,35.636,21247.518,-6827.810,7509.430
1512180867,71.600,-104.000,-206.800,-202210.000,91800.000,1013850.000,263000.000,379000.000,-424000.000,3.321,17.917,200.093,66.293,-28.291,8.449,21021.765,-7015.639,7698.761
1512180867,125.800,12.300,-209.500,-166440.000,71110.000,1020510.000,263000.000,379000.000,-424000.000,-0.310,-0.765,193.581,54.261,-32.316,16.612,20683.119,-7278.646,7776.505
1512180867,111.500,-63.400,-201.500,-134400.000,18800.000,1028810.000,263000.000,379000.000,-424000.000,-2.204,-20.501,178.026,73.764,-9.801,-15.840,20382.650,-7391.600,7854.004
1512180868,111.500,-42.200,-203.500,-102660.000,59810.000,991150.000,263000.000,379000.000,-424000.000,-6.912,-40.255,172.027,96.570,-3.611,-13.506,20570.372,-7316.320,7627.449
1512180868,118.600,-4.400,-188.400,-160400.000,93510.000,1027530.000,263000.000,375000.000,-445000.000,-6.830,-40.247,166.697,60.850,-7.632,-4.007,19895.109,-7392.324,7783.134
1512180868,53.400,-85.600,-183.200,-158630.000,53100.000,990480.000,263000.000,375000.000,-445000.000,-9.950,-40.239,162.389,49.370,-11.969,-0.932,20194.136,-7616.873,7855.492
1512180868,92.700,-4.300,-180.400,-106630.000,42050.000,953430.000,263000.000,375000.000,-445000.000,-7.748,-42.363,158.150,42.904,-26.528,-1.694,19516.218,-8217.901,7410.942
1512180868,73.100,24.000,-185.200,-98210.000,1890.000,1018800.000,263000.000,375000.000,-445000.000,-3.458,-44.493,156.071,68.851,-12.991,13.954,19742.567,-7917.562,7409.172
1512180868,-10.900,-54.300,-170.200,-93930.000,-65730.000,972530.000,249000.000,375000.000,-418000.000,-3.436,-58.376,153.890,44.321,-21.363,12.222,19669.142,-7617.666,7859.947
1512180868,123.600,-120.100,-144.700,-178890.000,157100.000,927550.000,249000.000,375000.000,-418000.000,-5.509,-63.716,149.575,62.631,-32.407,35.773,19367.216,-7993.124,7412.331
1512180868,163.000,199.900,-167.600,-163450.000,13920.000,976070.000,249000.000,375000.000,-418000.000,0.914,-60.495,148.615,35.407,-8.169,31.163,19215.208,-8443.350,7413.399
1512180868,-226.400,-390.300,-141.300,-164550.000,-25020.000,872130.000,249000.000,375000.000,-418000.000,7.392,-70.087,143.346,26.751,9.062,-26.002,19441.542,-8143.011,7411.613
1512180868,202.700,328.200,-154.100,-109070.000,-48400.000,916560.000,249000.000,375000.000,-418000.000,13.967,-65.783,132.796,114.453,29.418,-27.818,19140.059,-8443.457,7114.037
1512180868,-98.100,-216.900,-134.900,-92770.000,-14710.000,1016240.000,249000.000,368000.000,-421000.000,9.628,-59.394,137.017,49.179,32.075,-31.824,19290.312,-8443.243,7637.764
1512180868,-36.200,62.300,-131.200,-82090.000,-51700.000,916080.000,249000.000,368000.000,-421000.000,8.580,-67.928,136.979,10.654,15.656,-26.422,18917.524,-7918.798,7341.194
1512180868,-90.500,-55.900,-140.900,-137330.000,20080.000,883790.000,249000.000,368000.000,-421000.000,9.836,-52.957,125.318,94.623,20.382,-47.583,19216.810,-8068.350,7263.573
1512180868,-158.700,-121.200,-127.600,-161740.000,56270.000,878780.000,249000.000,368000.000,-421000.000,-5.197,-50.859,131.502,60.824,-0.154,-16.090,18989.973,-8443.686,6965.309
1512180868,-135.600,145.000,-147.100,-108340.000,20390.000,916260.000,242000.000,361000.000,-435000.000,-9.557,-38.053,138.950,-27.309,11.038,-8.830,18914.000,-8668.798,7040.840
1512180868,-242.300,-126.100,-135.200,-96370.000,-23190.000,1097290.000,242000.000,361000.000,-435000.000,-20.013,-27.371,126.039,7.096,17.766,-9.701,18690.458,-8369.131,7267.891
1512180868,-51.800,21.600,-133.200,-159790.000,10010.000,896790.000,242000.000,361000.000,-435000.000,-16.768,-15.610,123.996,38.408,21.244,-10.159,18539.183,-8669.363,7419.029
1512180868,-57.300,-83.200,-135.800,-80020.000,-49130.000,1150150.000,242000.000,361000.000,-435000.000,-18.023,-25.250,134.603,-4.843,6.574,-43.468,18914.640,-8518.805,6965.919
1512180868,-63.800,5.700,-117.400,-138240.000,-97960.000,880980.000,242000.000,361000.000,-435000.000,-24.217,-36.978,122.750,-9.293,-17.788,-2.593,18164.854,-8519.918,7422.279
1512180868,-9.300,60.500,-117.600,-101010.000,8540.000,1047120.000,258000.000,352000.000,-440000.000,-22.017,-15.604,119.658,38.088,18.853,-32.679,18313.322,-8819.708,7045.876
1512180868,63.400,6.100,-114.500,-89170.000,-14770.000,1012880.000,258000.000,352000.000,-440000.000,-25.347,-3.876,128.179,-17.295,25.495,-35.228,18085.096,-9495.047,6672.478
1512180868,43.300,-19.300,-113.100,-84170.000,13370.000,1111690.000,258000.000,352000.000,-440000.000,-27.505,3.595,130.306,-4.217,7.004,-38.495,18239.592,-8519.812,6896.660
1512180868,153.900,-46.600,-98.700,-124690.000,23380.000,1036930.000,258000.000,352000.000,-440000.000,-26.532,18.539,136.769,-34.470,-11.288,-25.166,18463.850,-8669.470,6744.667
1512180868,91.700,136.000,-121.600,-610.000,-45720.000,996220.000,258000.000,352000.000,-440000.000,-24.313,29.231,131.506,-25.417,-4.605,7.785,18239.790,-8444.815,6596.687
1512180868,8.700,-83.100,-106.700,-75930.000,2690.000,1063720.000,253000.000,357000.000,-428000.000,-18.873,44.203,125.239,32.143,5.183,19.544,18163.877,-8669.928,6822.212
1512180868,39.000,94.700,-108.800,-83370.000,-16600.000,896180.000,253000.000,357000.000,-428000.000,-12.487,42.080,126.393,49.398,2.851,18.223,18009.428,-9645.163,6673.042
1512180868,13.400,60.500,-112.400,-93140.000,-6470.000,1222170.000,253000.000,357000.000,-428000.000,-7.668,35.144,124.304,33.252,0.842,26.567,18350.988,-8744.650,6708.092
1512180868,25.200,-5.700,-112.500,-95280.000,-2010.000,827450.000,253000.000,357000.000,-428000.000,1.435,18.609,121.182,99.568,18.562,-34.851,18087.721,-8895.041,6522.758
1512180868,28.500,-18.200,-97.700,-62010.000,15320.000,954160.000,240000.000,363000.000,-433000.000,4.230,-27.834,110.933,65.012,0.495,32.932,18237.661,-8894.812,6408.989
1512180868,28.000,157.700,-98.700,-156740.000,-51700.000,1126100.000,240000.000,363000.000,-433000.000,11.694,-56.657,109.876,150.141,15.384,10.301,17973.158,-9307.715,6111.023
1512180868,153.500,-132.200,-75.100,-36620.000,204530.000,1097110.000,240000.000,363000.000,-433000.000,15.414,-76.415,109.328,96.922,1.052,12.992,18009.115,-9645.163,6073.052
1512180868,114.800,11.500,-72.200,-37780.000,-136290.000,882930.000,240000.000,363000.000,-433000.000,19.154,-88.157,108.275,86.361,3.570,37.742,17932.806,-9907.774,5811.058
1512180868,163.900,28.600,-58.500,-101010.000,13550.000,1000180.000,240000.000,363000.000,-433000.000,21.215,-87.629,112.570,39.097,-22.001,23.513,17856.741,-10132.887,5699.096
1512180868,-24.800,7.100,-69.400,-6900.000,-135440.000,1035160.000,237000.000,349000.000,-436000.000,30.747,-81.215,116.462,12.382,-10.221,-9.810,17667.288,-10545.667,5513.001
1512180868,-185.800,-91.500,-22.800,-107790.000,-119020.000,852970.000,237000.000,349000.000,-436000.000,26.580,-75.333,111.093,-4.951,-4.741,4.463,17631.605,-10133.222,5438.515
1512180868,-85.500,143.000,-40.700,1100.000,-59880.000,774480.000,237000.000,349000.000,-436000.000,22.983,-53.959,104.186,-3.000,-8.787,-12.850,17328.886,-10733.687,5403.282
1512180868,-186.800,-47.400,-19.000,-39430.000,-50600.000,1107910.000,237000.000,349000.000,-436000.000,27.434,-26.693,94.218,-0.983,-8.263,-22.229,17101.996,-11146.521,5330.001
1512180868,-128.600,105.100,-21.300,-81850.000,-30460.000,929260.000,237000.000,349000.000,-436000.000,22.166,-14.945,90.984,-39.051,-6.244,-9.799,16915.258,-10996.801,5519.172
1512180869,-17.000,-108.000,-7.700,-76600.000,-65800.000,1131350.000,233000.000,363000.000,-423000.000,29.801,-4.766,81.002,-3.137,42.908,-46.009,16951.429,-11296.743,5556.206
1512180869,41.900,132.200,-3.900,-50350.000,-103820.000,1096010.000,233000.000,363000.000,-423000.000,14.914,-2.649,78.662,-23.627,8.140,-26.375,16800.673,-11446.966,5407.417
1512180869,4.000,-114.200,3.500,-37050.000,-116270.000,1050230.000,233000.000,363000.000,-423000.000,42.644,-3.672,77.994,12.980,-59.449,-59.735,16725.859,-11372.091,5108.086
1512180869,-0.800,-80.400,42.500,-38940.000,-124760.000,875000.000,233000.000,363000.000,-423000.000,20.266,2.703,77.692,25.659,18.216,44.856,16949.553,-11671.759,5181.038
1512180869,70.300,135.000,9.200,34730.000,-64210.000,1013430.000,245000.000,354000.000,-424000.000,30.902,12.331,80.013,-2.840,6.646,-36.943,17250.273,-11521.292,5253.563
1512180869,-16.000,-80.200,34.600,-38450.000,-77640.000,1078920.000,245000.000,354000.000,-424000.000,37.342,11.275,76.903,16.112,-34.313,-42.068,16876.051,-11371.862,5481.819
1512180869,37.200,93.900,43.900,-53710.000,-114560.000,997130.000,245000.000,354000.000,-424000.000,21.359,13.389,76.679,-3.372,8.949,32.952,17172.300,-12196.417,5403.893
1512180869,31.300,33.700,45.100,19530.000,-31190.000,1041200.000,245000.000,354000.000,-424000.000,34.216,17.686,72.615,-17.623,3.415,-8.459,17022.642,-12121.634,5405.190
1512180869,40.300,29.600,55.500,-15870.000,-118710.000,942140.000,245000.000,354000.000,-424000.000,31.121,5.948,66.134,41.578,29.424,-39.642,16949.705,-11671.759,5481.041
1512180869,43.300,-15.800,68.400,-132810.000,-38700.000,994260.000,224000.000,343000.000,-431000.000,18.420,7.007,60.623,52.510,-2.558,-16.381,16944.746,-12721.762,5030.556
1512180869,99.600,49.700,66.200,-67930.000,-25570.000,1099120.000,224000.000,343000.000,-431000.000,24.728,10.210,66.056,-4.455,-9.305,-28.740,17247.343,-12196.310,5478.249
1512180869,57.300,-56.200,63.800,-47420.000,-23010.000,1008300.000,224000.000,343000.000,-431000.000,5.649,6.990,59.373,-3.666,33.505,-27.939,17247.908,-12046.301,5253.319
1512180869,72.700,76.700,75.600,-101810.000,-127080.000,1026490.000,224000.000,343000.000,-431000.000,12.110,-4.739,55.162,72.259,-19.021,-37.292,17096.785,-12271.536,5029.488
1512180869,-48.200,25.200,75.900,-30030.000,-56950.000,882260.000,226000.000,363000.000,-419000.000,9.980,-13.291,54.033,19.594,5.618,26.719,17244.123,-12871.313,5102.928
1512180869,-35.600,-78.200,87.400,4580.000,-142330.000,1129390.000,226000.000,363000.000,-419000.000,3.660,-25.042,48.569,12.048,12.995,44.925,17395.430,-12571.081,5026.802
1512180869,-23.400,171.000,86.600,45840.000,-43520.000,1012390.000,226000.000,363000.000,-419000.000,14.490,-18.593,39.156,28.391,-5.068,-3.744,17321.852,-12271.200,5177.574
1512180869,-81.800,-151.100,85.100,-8670.000,-117370.000,1087220.000,226000.000,363000.000,-419000.000,9.160,-33.550,39.030,55.135,10.645,19.910,17245.283,-12646.307,5403.038
1512180869,94.900,240.600,95.700,490.000,-74890.000,956670.000,226000.000,363000.000,-419000.000,15.592,-36.746,35.910,4.880,11.268,1.661,17170.286,-12646.414,5403.679
1512180869,-169.000,-69.000,91.900,41020.000,-97470.000,1007260.000,245000.000,368000.000,-445000.000,20.953,-44.210,33.831,5.299,28.081,21.024,17545.988,-12495.855,5475.563
1512180869,42.500,40.100,104.800,-6710.000,-46630.000,981810.000,245000.000,368000.000,-445000.000,22.124,-43.127,27.455,53.084,36.214,-1.240,17469.908,-12720.968,5326.088
1512180869,7.700,45.700,118.500,-60000.000,-48460.000,1088930.000,245000.000,368000.000,-445000.000,17.830,-34.594,29.554,-5.062,33.897,-5.237,17246.031,-12496.298,5553.108
1512180869,-77.800,-25.600,121.300,-53530.000,-56520.000,1028260.000,245000.000,368000.000,-445000.000,15.629,-31.402,33.797,-24.706,55.975,-2.263,16717.619,-13247.091,5482.231
1512180869,1.600,64.800,116.600,-36130.000,-30940.000,995850.000,245000.000,368000.000,-445000.000,15.750,-30.313,27.410,-35.675,44.391,-25.038,17246.336,-12421.301,5478.142
1512180869,104.800,28.800,120.400,-19530.000,-43640.000,1098450.000,230000.000,363000.000,-436000.000,21.077,-38.855,26.388,25.551,43.890,-18.389,17097.792,-12121.527,5704.552
1512180869,-22.200,-73.500,124.600,980.000,-106930.000,934200.000,230000.000,363000.000,-436000.000,17.273,-31.927,31.154,-29.216,58.348,-7.660,16983.717,-12459.196,5592.858
1512180869,34.000,55.700,126.600,21790.000,-79770.000,979310.000,230000.000,363000.000,-436000.000,17.920,-20.160,25.343,-22.188,39.921,-4.886,16983.084,-12609.206,5667.785
1512180869,82.000,-14.400,130.500,-10680.000,-39980.000,1079100.000,230000.000,363000.000,-436000.000,20.665,-3.054,21.713,-11.773,41.154,-14.511,16910.665,-12046.804,5781.182
1512180869,-48.600,-13.600,132.100,-8060.000,-21910.000,1039610.000,223000.000,380000.000,-446000.000,15.822,4.406,24.332,-37.338,46.136,8.370,16796.156,-12496.985,5819.435
1512180869,45.800,70.000,140.700,-47360.000,-35890.000,1060970.000,223000.000,380000.000,-446000.000,18.070,10.297,17.455,-10.887,30.774,11.784,16835.028,-12196.928,5856.751
1512180869,75.500,5.600,141.400,-33570.000,-54990.000,963620.000,223000.000,380000.000,-446000.000,3.673,1.198,17.749,-4.537,43.560,-2.979,16646.383,-12422.201,5595.741
1512180869,91.900,23.600,144.100,-92040.000,-112670.000,964660.000,223000.000,380000.000,-446000.000,-15.421,-4.698,11.053,17.164,39.674,11.116,16608.526,-12497.266,5558.525
1512180869,-23.300,-6.100,156.300,-62440.000,-80380.000,927980.000,223000.000,380000.000,-446000.000,-19.257,-3.646,17.933,2.088,34.227,40.447,16685.988,-11972.143,5745.628
1512180869,-85.500,7.700,145.800,-58530.000,-146790.000,982970.000,247000.000,384000.000,-436000.000,-10.174,-11.104,16.440,26.326,49.148,13.955,16797.079,-12309.476,5969.513
1512180869,-188.200,7.300,166.600,-58410.000,-107850.000,1032840.000,247000.000,384000.000,-436000.000,-12.379,-11.652,20.670,-3.892,32.806,7.155,16686.079,-11934.637,5595.650
1512180869,-45.400,33.200,148.900,23990.000,-111630.000,925600.000,247000.000,384000.000,-436000.000,-14.928,-12.709,13.701,25.663,59.827,19.271,16724.043,-11859.586,5857.864
1512180869,-202.900,-134.600,171.400,32470.000,-188290.000,1053770.000,247000.000,384000.000,-436000.000,-16.551,-19.123,14.720,-2.220,45.171,12.418,16910.833,-12046.812,6118.682
1512180869,-173.800,118.800,159.500,19530.000,-142700.000,902710.000,247000.000,384000.000,-436000.000,-15.454,-14.312,13.153,-4.185,42.614,-7.919,16648.412,-12009.702,5933.434
1512180870,-177.500,-85.800,166.200,29720.000,-167850.000,1043520.000,237000.000,387000.000,-429000.000,-12.694,-6.818,7.890,-16.525,51.426,10.190,16725.004,-11672.094,6082.954
1512180870,-126.400,-16.000,163.400,-29420.000,-128970.000,860900.000,237000.000,387000.000,-429000.000,-10.554,-10.021,6.842,6.590,45.838,2.504,16500.257,-11597.433,5934.898
1512180870,-54.900,84.700,156.500,610.000,-127560.000,997800.000,237000.000,387000.000,-429000.000,-9.544,-13.231,10.044,16.880,35.388,2.902,16648.466,-11972.204,5708.443
1512180870,-76.000,-77.900,164.800,28630.000,-122130.000,996890.000,237000.000,387000.000,-429000.000,-14.937,-6.837,14.252,-21.125,31.221,8.876,16350.111,-11597.647,5636.177
1512180870,38.300,49.400,161.900,66220.000,-108090.000,1019710.000,238000.000,396000.000,-428000.000,-11.687,-6.826,11.101,-13.193,34.177,23.870,16576.200,-11372.305,5784.370
1512180870,23.700,-21.600,174.300,-25820.000,-77330.000,1002380.000,238000.000,396000.000,-428000.000,-10.566,-6.817,7.920,27.643,38.663,17.705,16950.010,-11671.759,6081.032
1512180870,-67.100,-4.500,176.000,14830.000,-79710.000,955380.000,238000.000,396000.000,-428000.000,-13.795,0.650,10.031,6.760,33.090,13.230,16650.373,-11597.204,6158.623
1512180870,31.300,16.100,189.000,-25570.000,-77760.000,1086430.000,238000.000,396000.000,-428000.000,-5.285,-4.678,11.203,-0.543,56.815,13.382,16798.399,-12046.972,6232.140
1512180870,45.100,10.500,189.900,45840.000,-72020.000,1039310.000,238000.000,396000.000,-428000.000,-10.588,-11.093,8.971,30.069,44.919,-2.707,16574.705,-11747.305,6159.187
1512180870,-65.600,-34.200,201.200,29910.000,-108280.000,1000000.000,245000.000,407000.000,-428000.000,-12.728,-16.439,8.920,30.017,38.576,1.207,16345.915,-12572.653,6010.719
1512180870,-55.500,-4.500,200.900,-10310.000,-103150.000,951660.000,245000.000,407000.000,-428000.000,-15.888,-15.371,6.746,1.369,57.324,-30.864,16873.655,-11971.869,6081.535
1512180870,4.900,-81.100,205.300,47970.000,-64090.000,955080.000,245000.000,407000.000,-428000.000,-24.328,-19.638,2.350,5.154,51.920,12.572,17099.928,-11671.530,5929.756
1512180870,48.200,57.900,210.700,-17700.000,-117980.000,925050.000,245000.000,407000.000,-428000.000,-22.172,-15.365,0.260,29.488,36.878,2.231,16873.243,-12046.865,5931.496
1512180870,27.400,-46.900,217.000,42540.000,-96920.000,1073060.000,256000.000,393000.000,-438000.000,-26.454,-14.306,1.267,30.294,49.517,28.095,17098.173,-12046.530,5779.594
1512180870,102.800,-56.700,220.900,14830.000,-117610.000,1026490.000,256000.000,393000.000,-438000.000,-24.420,-13.244,7.699,-9.055,32.625,21.612,16795.393,-12646.978,5631.859
1512180870,78.400,7.900,235.300,-5000.000,-65980.000,955200.000,256000.000,393000.000,-438000.000,-28.584,-17.512,1.226,10.001,31.151,26.323,17250.090,-11671.301,6228.493
1512180870,112.500,-75.500,240.700,8360.000,-41690.000,982970.000,256000.000,393000.000,-438000.000,-25.422,-31.399,2.288,-31.777,48.137,34.487,17474.669,-11745.962,6076.546
1512180870,144.200,20.000,253.900,-44740.000,-72390.000,1015440.000,256000.000,393000.000,-438000.000,-23.208,-37.795,-3.033,6.501,45.795,23.934,16798.536,-11971.975,5857.170
1512180870,113.200,-100.900,240.000,28690.000,-63170.000,962770.000,249000.000,424000.000,-414000.000,-17.937,-31.382,1.332,53.885,37.195,-4.266,17023.237,-12046.637,5930.229
1512180870,223.200,-33.800,255.700,-61460.000,-78550.000,944760.000,249000.000,424000.000,-414000.000,-20.271,-26.075,13.040,-24.807,27.635,45.669,16948.133,-12046.759,5705.864
1512180870,237.800,35.300,259.400,77940.000,-74220.000,1132320.000,249000.000,424000.000,-414000.000,-13.830,-22.852,11.015,-40.036,42.718,49.617,16570.768,-12572.317,5708.809
1512180870,122.400,-14.400,265.900,30460.000,-60790.000,1002140.000,249000.000,424000.000,-414000.000,-15.804,-19.633,1.402,32.172,41.070,18.880,16800.825,-11446.966,5707.420
1512180870,-57.800,-138.800,277.000,490.000,-151180.000,965150.000,249000.000,424000.000,-414000.000,-11.660,-17.504,8.932,2.353,46.352,29.879,16499.556,-11747.427,5859.825
1512180870,191.200,108.500,270.400,56820.000,-34850.000,1101500.000,238000.000,421000.000,-438000.000,-14.838,-10.032,7.845,-42.631,46.279,8.735,16949.186,-11821.753,5780.968
1512180870,12.500,-79.200,271.200,57680.000,-189580.000,1020080.000,238000.000,421000.000,-438000.000,-17.936,-10.019,2.473,23.134,44.562,7.830,17025.297,-11596.640,6005.440
1512180870,-64.700,-58.600,290.000,106260.000,-104920.000,1059940.000,238000.000,421000.000,-438000.000,-17.008,0.644,11.051,-2.787,47.546,17.164,16871.107,-12496.862,5706.291
1512180870,-8.700,112.900,280.300,120480.000,-86240.000,1103270.000,238000.000,421000.000,-438000.000,-17.544,5.980,11.059,-5.362,49.574,19.886,17061.079,-11971.578,5929.939
1512180870,-102.300,-205.600,302.300,34180.000,-131770.000,1052120.000,258000.000,423000.000,-443000.000,-13.736,-2.013,6.291,12.765,34.783,29.372,17173.941,-11896.422,5966.522
1512180870,-38.900,107.900,292.100,97050.000,-139040.000,975160.000,258000.000,423000.000,-443000.000,-11.036,2.270,4.747,-12.066,38.431,9.252,16986.769,-11821.692,5968.147
1512180870,22.000,-18.000,302.000,110170.000,-93260.000,1150510.000,258000.000,423000.000,-443000.000,-14.248,3.866,5.773,5.417,32.222,0.239,16950.850,-11446.753,5743.637
1512180870,-82.700,-25.200,311.600,98630.000,-102600.000,929380.000,258000.000,423000.000,-443000.000,-17.876,-4.136,-0.703,23.021,34.900,-6.075,17061.888,-11784.078,5855.026
1512180870,13.200,-32.000,324.500,106690.000,-112240.000,958070.000,258000.000,423000.000,-443000.000,-21.183,-7.897,5.097,-15.317,42.492,3.651,16873.396,-12009.359,5894.020
1512180870,80.800,134.500,317.800,115600.000,-149660.000,1121340.000,268000.000,423000.000,-446000.000,-23.270,-4.688,2.947,16.242,30.285,-8.539,16987.615,-11634.192,5968.239
1512180870,-252.100,-188.400,353.100,139100.000,-146730.000,827510.000,268000.000,423000.000,-446000.000,-29.729,-12.718,6.022,17.677,33.901,18.159,16949.255,-11821.753,5930.970
1512180870,-179.800,139.800,352.200,83560.000,-195310.000,1073300.000,268000.000,423000.000,-446000.000,-28.642,-4.700,5.535,-2.143,33.327,14.546,17247.725,-12121.298,5553.276
1512180870,-251.000,28.600,331.600,135990.000,-122010.000,900330.000,268000.000,423000.000,-446000.000,-32.319,-6.304,1.744,6.535,24.995,31.806,17288.954,-11333.738,5928.322
1512180870,-210.100,-97.600,355.800,117490.000,-196780.000,993650.000,258000.000,437000.000,-440000.000,-27.505,-0.419,1.302,-9.692,33.651,5.346,17248.167,-12046.301,5778.312
1512180870,-171.900,152.300,352.100,78980.000,-228090.000,884640.000,258000.000,437000.000,-440000.000,-26.545,2.240,7.721,-6.656,39.155,-19.607,17401.282,-11371.069,5927.353
1512180871,-216.900,-60.500,350.900,192200.000,-241460.000,1001770.000,258000.000,437000.000,-440000.000,-21.204,10.262,7.827,-4.741,21.124,-2.963,16800.383,-11596.975,6157.356
1512180871,-132.600,-80.700,379.500,65120.000,-168090.000,961850.000,258000.000,437000.000,-440000.000,-22.234,10.265,5.680,4.924,40.920,-19.136,17554.243,-10695.837,5776.390
1512180871,-7.200,177.200,369.900,68050.000,-80750.000,973510.000,258000.000,437000.000,-440000.000,-27.570,9.186,5.598,-4.640,29.322,7.451,17023.726,-11896.643,5555.290
1512180871,-164.300,-158.900,367.000,204710.000,-131530.000,1046450.000,274000.000,446000.000,-458000.000,-24.390,13.459,6.724,14.449,10.521,21.322,17022.642,-12196.646,6080.162
1512180871,105.200,65.100,373.900,133120.000,-116460.000,996030.000,274000.000,446000.000,-458000.000,-25.459,5.981,6.683,-4.294,32.918,38.570,17327.665,-11071.188,6003.136
1512180871,125.000,29.700,395.900,54140.000,-43640.000,1014280.000,274000.000,446000.000,-458000.000,-26.506,3.847,5.595,5.573,18.804,20.401,17478.010,-10995.962,6001.884
1512180871,67.200,-45.900,394.000,114870.000,-66470.000,1077150.000,274000.000,446000.000,-458000.000,-26.508,8.117,5.609,29.859,27.447,1.031,17475.645,-11520.956,6001.640
1512180871,129.600,45.300,400.800,91800.000,-111020.000,988220.000,274000.000,446000.000,-458000.000,-24.335,9.196,3.513,22.133,24.419,46.903,17476.286,-11370.962,5926.720
1512180871,43.700,64.600,398.700,117920.000,-133120.000,1053530.000,275000.000,447000.000,-440000.000,-18.058,22.007,11.110,-12.642,22.110,20.726,17399.336,-11821.081,6077.141
1512180871,-17.300,-30.900,398.000,123600.000,-171390.000,1123720.000,275000.000,447000.000,-440000.000,-15.887,25.220,9.021,-14.065,31.961,11.651,16872.007,-12271.872,5481.392
1512180871,-50.100,16.400,414.500,102420.000,-152590.000,1018680.000,275000.000,447000.000,-440000.000,-13.731,20.958,7.974,6.642,29.928,6.805,17627.668,-11070.730,6000.587
1512180871,-107.200,62.600,428.000,74460.000,-113400.000,938720.000,275000.000,447000.000,-440000.000,-12.636,12.418,5.828,-12.541,26.483,0.124,17175.261,-11596.411,5929.161
1512180871,-172.400,-6.100,413.100,101140.000,-226260.000,1018130.000,274000.000,449000.000,-438000.000,-16.861,7.071,2.547,18.083,37.657,33.466,17401.060,-11371.069,5477.348
1512180871,-121.000,80.600,411.700,144290.000,-206420.000,1028810.000,274000.000,449000.000,-438000.000,-8.429,19.890,9.111,4.544,34.381,-22.804,17325.193,-11596.197,5777.885
1512180871,-140.900,21.400,417.100,123470.000,-163880.000,1045900.000,274000.000,449000.000,-438000.000,-8.483,14.544,12.290,-30.411,35.355,-5.132,17625.608,-11520.742,5925.362
1512180871,-175.500,59.100,417.500,173770.000,-234990.000,966860.000,274000.000,449000.000,-438000.000,-9.487,16.682,8.016,-3.763,35.137,14.732,17476.576,-11295.965,5851.753
1512180871,-215.800,54.500,422.500,68730.000,-52730.000,966490.000,274000.000,449000.000,-438000.000,-5.123,22.045,2.770,34.678,27.502,-18.565,17402.296,-11146.078,5927.452
1512180871,99.200,59.400,427.200,73610.000,-114690.000,1123350.000,286000.000,475000.000,-436000.000,-13.725,17.750,6.894,-2.926,15.699,15.130,17400.496,-11521.078,5702.278
1512180871,79.400,-63.600,431.000,-11230.000,-75070.000,970700.000,286000.000,475000.000,-436000.000,-10.491,11.353,4.788,-33.066,38.142,25.134,17624.861,-11670.736,5775.307
1512180871,115.300,25.600,426.900,103520.000,-117130.000,1021970.000,286000.000,475000.000,-436000.000,-11.481,6.017,-0.577,29.224,31.143,7.815,17401.503,-11296.072,5702.385
1512180871,114.000,2.300,418.600,157590.000,-77640.000,1078920.000,286000.000,475000.000,-436000.000,-13.597,3.879,-1.681,44.211,17.218,-6.616,17775.190,-11595.510,5774.071
1512180871,127.300,23.300,422.600,219240.000,-108400.000,1058780.000,286000.000,475000.000,-436000.000,-15.832,-0.407,4.669,6.118,24.867,14.703,18001.463,-11295.172,5622.292
1512180871,214.100,141.700,432.100,55050.000,-41380.000,1070800.000,300000.000,479000.000,-443000.000,-12.620,-2.537,3.642,7.053,37.071,-6.706,17701.841,-11220.617,5699.867
1512180871,43.900,3.900,412.300,94970.000,-33390.000,1141050.000,300000.000,479000.000,-443000.000,-14.715,-4.670,1.473,34.706,26.272,7.356,17626.509,-11295.736,5700.478
1512180871,114.500,-21.300,425.200,77880.000,-19780.000,1033450.000,300000.000,479000.000,-443000.000,-7.369,-1.473,7.984,12.984,41.891,7.755,17547.270,-12195.852,5325.691
1512180871,174.800,52.600,434.900,86610.000,-32900.000,932190.000,300000.000,479000.000,-443000.000,-11.643,3.860,9.007,27.026,24.791,6.706,17251.173,-11371.298,5703.621
1512180871,105.100,-32.400,440.000,62070.000,-430.000,950930.000,281000.000,484000.000,-428000.000,-12.776,6.525,13.800,1.906,15.639,18.072,17588.835,-11333.288,5700.783
1512180871,141.000,64.800,438.900,33630.000,-37230.000,953310.000,281000.000,484000.000,-428000.000,-8.982,-5.214,9.014,18.440,29.799,11.023,17662.527,-11633.184,5775.002
1512180871,41.500,-15.600,451.100,45650.000,-83560.000,1000980.000,281000.000,484000.000,-428000.000,-3.591,-2.524,5.907,-10.031,26.263,1.083,17662.634,-11558.180,5325.035
1512180871,144.300,75.600,453.300,21480.000,-67690.000,1095460.000,281000.000,484000.000,-428000.000,-0.935,1.749,6.492,-1.420,28.213,10.114,18302.068,-11107.221,5132.332
1512180871,70.800,9.200,454.500,37230.000,-99180.000,977840.000,281000.000,484000.000,-428000.000,6.095,-0.899,0.187,-36.963,23.660,1.503,18524.236,-11706.885,4867.637
1512180871,76.400,-15.800,447.400,89420.000,-105530.000,1025330.000,289000.000,504000.000,-450000.000,-0.658,-3.558,-10.580,-37.594,22.612,-8.470,18900.327,-11443.823,4677.078
1512180871,154.500,85.500,447.900,25570.000,-61160.000,1090210.000,289000.000,504000.000,-450000.000,-1.482,-8.871,-25.535,-78.475,19.747,-10.437,19274.275,-11630.766,4261.306
1512180871,101.900,-26.100,443.300,26920.000,-96250.000,1021670.000,289000.000,504000.000,-450000.000,-6.519,-9.377,-43.199,-86.819,8.882,33.773,19573.042,-11855.314,3808.647
1512180871,122.800,26.200,448.300,52550.000,-69400.000,1053220.000,289000.000,504000.000,-450000.000,-1.875,-1.848,-66.026,-84.483,16.591,18.869,20362.028,-11479.124,3389.634
1512180871,167.500,66.800,455.800,43700.000,-51760.000,1073670.000,289000.000,504000.000,-450000.000,-9.090,-12.511,-81.626,-94.980,12.322,25.418,20623.266,-11741.240,3237.274
1512180871,39.800,-42.600,458.900,99730.000,-114200.000,997310.000,282000.000,507000.000,-429000.000,-7.671,-8.195,-102.913,-90.944,-35.784,-1.362,21524.549,-11439.886,3079.773
1512180871,46.500,114.900,467.900,50350.000,-66890.000,971920.000,282000.000,507000.000,-429000.000,-4.245,1.985,-116.152,-131.910,-27.337,2.758,21937.368,-11326.765,2701.317
1512180872,53.000,-16.000,471.000,51640.000,-75810.000,1058840.000,282000.000,507000.000,-429000.000,1.340,10.566,-131.501,-69.489,-40.407,-40.117,22351.515,-10988.638,2960.472
1512180872,62.500,3.700,480.400,23010.000,-121400.000,945010.000,282000.000,507000.000,-429000.000,0.242,11.630,-129.381,-109.396,-39.993,-11.775,22426.146,-10988.531,2209.831
1512180872,177.600,29.800,480.700,56880.000,-81120.000,973390.000,277000.000,530000.000,-428000.000,3.444,11.638,-129.333,-106.912,-44.129,-1.292,22577.986,-10613.302,2508.720
1512180872,167.800,31.600,486.700,-12450.000,-67930.000,1047730.000,277000.000,530000.000,-428000.000,4.634,20.197,-136.750,-129.613,-50.428,-23.600,22502.302,-10763.418,2509.300
1512180872,139.200,-19.600,476.400,19100.000,-150150.000,981380.000,277000.000,530000.000,-428000.000,3.736,35.168,-146.306,-59.150,-62.267,-28.636,22576.933,-10838.308,2433.632
1512180872,93.700,49.500,479.800,43400.000,-109070.000,1010070.000,277000.000,530000.000,-428000.000,7.938,42.645,-141.954,-100.932,-33.926,-21.997,22501.860,-10838.415,2284.264
1512180872,49.100,43.100,489.800,1710.000,-97410.000,1072810.000,277000.000,530000.000,-428000.000,4.840,39.447,-148.407,-141.222,-40.093,7.481,22576.445,-10913.305,2133.583
1512180872,-2.700,11.300,486.800,18550.000,-134090.000,957820.000,281000.000,541000.000,-435000.000,14.637,53.371,-159.943,-68.922,-18.518,-28.692,22875.273,-11137.854,1830.940
1512180872,-53.900,108.000,495.100,-46450.000,-137510.000,1026060.000,281000.000,541000.000,-435000.000,12.469,58.702,-157.825,-78.798,-19.094,-46.241,23026.823,-10837.637,2204.811
1512180872,-65.200,18.200,489.900,-24900.000,-142270.000,1016050.000,281000.000,541000.000,-435000.000,17.784,51.236,-156.706,-108.747,-36.291,-25.392,23252.913,-10537.298,1678.032
1512180872,-104.100,33.800,483.000,32650.000,-162960.000,940190.000,281000.000,541000.000,-435000.000,15.698,54.438,-159.925,-54.032,-32.313,-24.115,23477.613,-10611.959,1751.076
1512180872,1.600,75.200,489.200,43760.000,-116640.000,1022090.000,270000.000,551000.000,-431000.000,23.193,51.250,-161.960,-39.952,-43.158,-61.725,23252.165,-10687.292,1527.962
1512180872,-40.300,25.300,486.300,13730.000,-144650.000,1002930.000,270000.000,551000.000,-431000.000,27.419,34.167,-159.823,-54.429,-46.046,-24.238,23328.093,-10462.179,1377.419
1512180872,-68.000,31.700,492.800,41380.000,-155460.000,943180.000,270000.000,551000.000,-431000.000,29.521,23.484,-158.765,-31.138,-37.814,5.577,23477.308,-10611.959,1151.085
1512180872,-34.500,80.300,491.200,-18250.000,-118290.000,1072880.000,270000.000,551000.000,-431000.000,35.910,27.762,-158.659,-10.288,-37.204,-12.135,23250.319,-11062.307,1227.791
1512180872,-46.900,55.100,487.500,-13240.000,-159730.000,984620.000,270000.000,551000.000,-431000.000,34.794,25.619,-155.484,-32.800,-37.402,14.280,23250.242,-11062.307,1077.797
1512180872,-120.800,26.400,488.800,-42790.000,-162960.000,953610.000,253000.000,572000.000,-438000.000,35.772,28.814,-150.129,-58.512,-46.068,8.969,23324.797,-11137.182,852.119
1512180872,-27.800,118.400,484.300,-18130.000,-127010.000,1069400.000,253000.000,572000.000,-438000.000,32.669,23.484,-155.520,-45.273,-55.649,9.873,23098.677,-11362.524,628.929
1512180872,-51.700,18.000,474.300,22220.000,-129210.000,997740.000,253000.000,572000.000,-438000.000,32.654,21.348,-154.461,-18.062,-47.426,-5.037,22799.604,-11137.976,481.590
1512180872,-101.500,69.400,476.800,-7390.000,-143620.000,936830.000,253000.000,572000.000,-438000.000,31.473,20.261,-148.087,-40.358,-46.163,-7.832,22797.651,-11587.988,631.371
1512180872,-148.600,90.000,469.000,-16240.000,-172300.000,939510.000,253000.000,572000.000,-438000.000,36.753,23.467,-144.801,-78.258,-30.254,-37.140,22869.658,-12262.869,705.421
1512180872,-83.800,11.900,477.800,-50350.000,-171510.000,987300.000,274000.000,569000.000,-438000.000,25.035,4.226,-146.103,-23.191,-47.762,11.694,23322.218,-11662.191,401.878
1512180872,-100.800,30.900,478.300,-51390.000,-178340.000,889890.000,274000.000,569000.000,-438000.000,21.812,4.215,-145.086,-55.793,-47.254,40.405,23019.514,-12262.640,404.152
1512180872,-104.700,91.900,476.800,-89780.000,-177670.000,1002320.000,274000.000,569000.000,-438000.000,10.214,-0.058,-152.730,-66.727,-52.122,42.918,23174.040,-11287.420,703.331
1512180872,-118.500,-38.500,483.400,-61100.000,-194340.000,1013310.000,274000.000,569000.000,-438000.000,13.399,13.299,-151.037,-66.478,-46.008,29.525,23129.736,-12749.983,252.968
1512180872,-51.700,87.200,484.700,-86000.000,-166630.000,922420.000,247000.000,599000.000,-419000.000,12.858,20.771,-150.487,-63.963,-38.134,8.457,23245.940,-11999.807,889.862
1512180872,-193.500,6.100,489.200,-77580.000,-187560.000,1010130.000,247000.000,599000.000,-419000.000,11.168,15.955,-144.662,-68.917,-18.934,2.639,23243.322,-12599.814,1077.087
1512180872,-116.400,31.200,488.300,-20810.000,-159970.000,1004700.000,247000.000,599000.000,-419000.000,12.814,11.153,-148.389,-59.936,-16.342,23.089,23130.865,-12637.480,1490.516
1512180872,-106.900,39.400,487.000,-88500.000,-189090.000,1002690.000,247000.000,599000.000,-419000.000,21.962,7.439,-153.599,-44.282,-15.398,0.073,23283.171,-12149.747,1714.462
1512180872,-81.800,33.000,486.700,-83560.000,-142090.000,993100.000,247000.000,599000.000,-419000.000,19.828,14.913,-153.071,-110.010,-10.444,-16.186,23357.855,-12262.129,2088.776
1512180872,-179.800,14.500,502.300,-121150.000,-156130.000,1022160.000,251000.000,585000.000,-436000.000,18.441,5.862,-165.913,-52.152,-21.847,5.646,23546.820,-11961.844,2312.324
1512180872,-115.400,26.600,497.300,-76660.000,-166500.000,991270.000,251000.000,585000.000,-436000.000,16.821,9.057,-164.862,-84.072,-25.600,5.412,23546.896,-11999.350,2799.805
1512180872,-101.900,35.400,487.400,28320.000,-174010.000,1023500.000,251000.000,585000.000,-436000.000,17.863,16.532,-163.222,-112.043,-9.376,-34.189,23432.493,-12412.023,2725.570
1512180872,-36.400,26.500,501.900,-42180.000,-146910.000,1031860.000,251000.000,585000.000,-436000.000,14.169,34.687,-164.812,-98.054,2.125,-42.292,23585.402,-11774.290,2799.591
1512180872,-9.700,12.000,502.900,-28810.000,-156560.000,1017880.000,251000.000,585000.000,-436000.000,6.326,19.741,-174.571,-113.550,-2.818,-15.824,23587.332,-11399.298,3287.247
1512180872,18.600,8.100,507.900,-79040.000,-106080.000,1022340.000,231000.000,618000.000,-438000.000,0.577,0.518,-182.718,-81.379,-8.805,-14.017,23776.617,-11024.001,3473.336
1512180872,80.200,1.200,507.100,-111880.000,-59080.000,1094600.000,231000.000,618000.000,-438000.000,-8.811,1.064,-195.112,-77.548,3.088,-54.873,23776.961,-10949.004,3473.366
1512180873,50.900,-46.600,510.700,-114750.000,-66960.000,980900.000,231000.000,618000.000,-438000.000,-18.826,-5.346,-202.208,-62.780,6.611,-16.159,23928.129,-10686.285,3472.221
1512180873,-40.200,12.400,496.700,-63600.000,-95150.000,1025760.000,231000.000,618000.000,-438000.000,-17.773,-9.616,-201.140,-62.549,-10.329,-18.859,23855.345,-10236.395,3848.061
1512180873,-71.200,-34.500,497.900,-60910.000,-57370.000,1060420.000,209000.000,617000.000,-436000.000,-17.825,-11.764,-199.020,-101.511,14.128,6.369,23704.969,-10311.621,3774.300
1512180873,38.100,-63.800,492.400,-36010.000,-86060.000,1060910.000,209000.000,617000.000,-436000.000,-13.464,-13.878,-204.291,-70.030,8.498,-11.154,23707.640,-9711.615,3699.577
1512180873,-178.400,27.000,490.400,-86240.000,-111880.000,972720.000,209000.000,617000.000,-436000.000,-6.043,0.015,-200.936,-97.873,0.767,-39.123,23931.852,-9936.270,4147.560
1512180873,-315.100,-127.300,499.500,-86980.000,-101500.000,1071470.000,209000.000,617000.000,-436000.000,-3.966,-6.396,-197.730,-136.003,18.119,-0.970,23931.990,-9861.273,3772.591
1512180873,-67.100,7.300,487.500,-78250.000,-82950.000,1000490.000,209000.000,617000.000,-436000.000,1.376,-2.117,-198.705,-89.781,19.819,7.562,23783.842,-9486.502,4074.043
1512180873,-199.300,-92.500,479.600,-8540.000,-127560.000,1021000.000,228000.000,636000.000,-441000.000,9.860,20.318,-195.308,-160.073,10.686,-11.354,24005.796,-10161.169,4071.815
1512180873,-191.300,-33.800,484.200,-49500.000,-153870.000,1027530.000,228000.000,636000.000,-441000.000,14.197,28.885,-198.410,-134.676,40.931,8.302,24008.757,-9486.166,3922.127
1512180873,-178.400,-44.900,483.100,-29170.000,-168580.000,1008000.000,228000.000,636000.000,-441000.000,22.718,44.911,-198.235,-119.468,22.771,-15.883,24159.544,-9335.943,4145.927
1512180873,-168.300,-57.700,481.400,-71110.000,-179140.000,965640.000,228000.000,636000.000,-441000.000,23.822,36.376,-200.378,-172.927,26.869,-16.013,24086.164,-8961.050,3996.727
1512180873,-151.700,-40.600,478.200,-26250.000,-135380.000,939760.000,212000.000,631000.000,-436000.000,23.960,28.917,-208.930,-73.601,25.434,23.989,23934.813,-9261.267,3997.871
1512180873,-12.700,-51.100,477.800,-21120.000,-127810.000,913150.000,212000.000,631000.000,-436000.000,34.542,51.352,-203.370,-98.785,11.992,4.516,23935.179,-9186.270,4072.914
1512180873,25.800,-62.600,470.000,-47670.000,-200870.000,978820.000,212000.000,631000.000,-436000.000,28.098,43.864,-200.288,-126.022,14.729,24.013,24237.700,-8660.818,4370.598
1512180873,99.500,-55.800,475.800,-98210.000,-138670.000,971130.000,212000.000,631000.000,-436000.000,36.698,60.971,-204.371,-124.882,10.363,-20.872,24385.679,-9110.586,4369.118
1512180873,129.600,-61.500,469.000,40340.000,-207640.000,981260.000,212000.000,631000.000,-436000.000,32.554,68.459,-210.799,-76.129,24.398,3.469,24238.295,-8510.809,4220.665
1512180873,94.500,-20.600,476.300,10130.000,-148990.000,992860.000,219000.000,620000.000,-436000.000,38.877,67.392,-206.447,-91.195,25.106,-48.467,24084.593,-9336.050,4221.565
1512180873,175.900,12.700,481.000,-31130.000,-126160.000,1164790.000,219000.000,620000.000,-436000.000,34.644,58.845,-208.670,-123.892,26.823,0.140,24010.450,-9186.163,4597.267
1512180873,199.200,41.000,481.100,-7570.000,-165650.000,1052730.000,219000.000,620000.000,-436000.000,31.490,52.435,-211.938,-69.775,19.453,-9.543,24161.650,-8885.931,4296.135
1512180873,-18.000,94.300,478.800,31740.000,-177370.000,1120670.000,219000.000,620000.000,-436000.000,34.639,40.683,-209.802,-43.666,4.934,0.299,24386.351,-8960.592,4369.179
1512180873,84.000,124.400,482.800,33200.000,-92710.000,1192690.000,219000.000,620000.000,-436000.000,29.197,23.574,-203.543,-110.348,5.833,49.868,24389.128,-8360.586,4519.463
1512180873,145.700,89.100,478.200,-13610.000,-152530.000,1170780.000,209000.000,652000.000,-433000.000,33.588,21.462,-210.947,-82.985,16.772,29.842,24314.650,-8210.699,4220.177
1512180873,-26.900,175.100,480.200,-21060.000,-133730.000,1067380.000,209000.000,652000.000,-433000.000,26.177,27.862,-214.232,-52.575,4.497,-9.424,24314.726,-8210.699,4370.171
1512180873,24.200,171.100,491.200,-26730.000,-127620.000,1081600.000,209000.000,652000.000,-433000.000,25.042,24.649,-209.995,-70.473,13.187,18.066,24690.779,-7985.128,4442.085
1512180873,15.600,149.500,492.600,-83310.000,-155640.000,926640.000,209000.000,652000.000,-433000.000,17.644,25.718,-213.294,-84.407,14.788,-7.036,24392.683,-7535.589,4219.841
1512180873,103.900,213.100,485.400,-149170.000,-112790.000,905820.000,202000.000,655000.000,-443000.000,15.514,29.979,-214.381,-81.983,24.091,-2.631,24616.484,-7835.257,4517.784
1512180873,107.700,121.000,485.100,-134890.000,-122380.000,948610.000,202000.000,655000.000,-443000.000,15.013,13.431,-216.576,-80.300,23.573,-16.880,24729.368,-7760.084,4591.866
1512180873,31.600,161.000,489.800,-90150.000,-105590.000,821780.000,202000.000,655000.000,-443000.000,10.164,-5.811,-214.582,-95.756,21.812,-15.893,24616.827,-7760.244,4517.830
1512180873,-17.700,104.000,495.900,-131530.000,-142520.000,901370.000,202000.000,655000.000,-443000.000,13.934,-2.058,-216.110,-82.538,37.839,-19.377,24806.158,-7347.463,4478.920
1512180873,24.200,93.300,493.200,-127930.000,-131100.000,913700.000,202000.000,655000.000,-443000.000,24.512,4.886,-211.672,-85.914,32.584,-24.383,24919.547,-7159.796,4553.062
1512180873,-49.400,101.200,496.100,-198970.000,-126280.000,966740.000,193000.000,668000.000,-455000.000,32.439,10.234,-206.740,-86.899,37.972,-44.084,24883.024,-6934.851,4478.477
1512180873,-36.000,53.100,488.700,-134160.000,-165890.000,1052860.000,193000.000,668000.000,-455000.000,35.700,6.510,-210.435,-110.377,33.002,-43.190,24883.284,-6859.847,4328.506
1512180873,2.700,41.000,481.500,-98880.000,-148800.000,989440.000,193000.000,668000.000,-455000.000,38.803,25.724,-204.464,-97.642,41.825,-47.339,25033.994,-6709.623,4402.306
1512180873,-127.400,100.700,477.900,-99910.000,-196660.000,1016720.000,193000.000,668000.000,-455000.000,39.400,33.208,-208.161,-102.147,19.076,-0.583,24809.179,-6672.460,4441.734
1512180873,-145.800,-49.900,483.500,-88130.000,-169010.000,1035340.000,193000.000,668000.000,-455000.000,48.829,20.387,-198.473,-72.713,33.513,-21.191,24997.771,-6409.674,4252.762
1512180873,-91.500,93.700,484.400,-125310.000,-201290.000,1027470.000,177000.000,673000.000,-457000.000,54.219,29.479,-202.096,-68.025,26.817,-14.060,24847.471,-6484.900,4329.002
1512180873,-143.900,9.600,491.500,-76290.000,-158390.000,1057920.000,177000.000,673000.000,-457000.000,56.216,25.197,-193.551,-95.035,24.080,12.675,24848.883,-6184.904,4441.642
1512180873,-90.900,-25.300,501.500,-99550.000,-177860.000,968080.000,177000.000,673000.000,-457000.000,54.776,20.942,-203.181,-34.832,21.639,6.948,24699.308,-6072.622,4292.969
1512180874,-67.900,102.400,501.500,-83190.000,-215270.000,1024720.000,177000.000,673000.000,-457000.000,51.347,13.968,-189.395,-67.051,11.505,24.111,24698.805,-6185.125,4292.915
1512180874,-152.900,-30.100,516.400,-164610.000,-183900.000,956850.000,180000.000,687000.000,-446000.000,49.162,13.958,-186.229,-53.335,12.047,58.934,25150.419,-5809.439,4139.259
1512180874,-11.700,31.400,513.900,-91370.000,-199830.000,1124450.000,180000.000,687000.000,-446000.000,48.061,4.342,-184.144,-57.626,11.924,34.532,25000.074,-5884.665,4140.511
1512180874,-3.100,41.700,501.700,-140440.000,-199160.000,1003720.000,180000.000,687000.000,-446000.000,55.484,-2.066,-182.997,-53.393,31.145,2.517,25226.423,-5584.341,4138.725
1512180874,-35.300,10.700,509.100,-16240.000,-209660.000,1023440.000,180000.000,687000.000,-446000.000,51.246,3.273,-184.105,-66.901,52.211,-24.893,25377.028,-5509.115,4662.498
1512180874,14.400,70.800,510.100,-108760.000,-199830.000,1066960.000,180000.000,687000.000,-446000.000,60.865,2.219,-186.103,-49.463,9.925,-61.159,25151.548,-5584.448,4364.372
1512180874,43.100,46.300,527.000,-74460.000,-82400.000,1092590.000,151000.000,685000.000,-458000.000,57.690,5.423,-187.203,-61.265,45.090,-26.156,25152.250,-5434.439,4439.445
1512180874,-101.900,40.600,535.800,-135310.000,-127080.000,1034910.000,151000.000,685000.000,-458000.000,50.144,-10.622,-183.105,-84.162,31.875,13.716,25150.526,-5809.439,4364.265
1512180874,-21.800,61.700,546.200,-99240.000,-132450.000,1110600.000,151000.000,685000.000,-458000.000,59.769,-23.418,-185.141,-36.828,40.724,-3.209,25377.928,-5284.109,4437.599
1512180874,-46.300,-107.700,557.000,-102970.000,-90580.000,1076540.000,151000.000,685000.000,-458000.000,56.513,-31.975,-182.019,-63.129,28.753,-0.111,25303.938,-5059.210,4438.332
1512180874,-148.200,39.700,556.200,-161320.000,-156560.000,981020.000,158000.000,689000.000,-448000.000,61.908,-45.841,-186.252,-79.436,19.689,17.557,25303.526,-5134.222,4288.307
1512180874,-174.000,-130.600,561.700,-198000.000,-159240.000,1061950.000,158000.000,689000.000,-448000.000,56.631,-55.453,-189.558,-27.695,29.789,-6.542,25378.874,-5059.103,4287.697
1512180874,-151.700,-83.200,553.800,-188480.000,-203310.000,950380.000,158000.000,689000.000,-448000.000,58.696,-59.735,-186.348,-66.227,22.207,-29.648,25000.715,-5734.671,4065.575
1512180874,-168.600,-107.100,541.200,-205020.000,-220830.000,1008000.000,158000.000,689000.000,-448000.000,60.789,-67.212,-184.211,-39.883,39.845,-24.156,25003.569,-5134.665,4365.852
1512180874,-141.900,-147.100,543.600,-199400.000,-182070.000,925170.000,158000.000,689000.000,-448000.000,52.171,-57.627,-178.975,-55.190,43.119,-8.149,24856.153,-4534.887,4142.403
1512180874,-37.400,-63.500,544.200,-140990.000,-216490.000,1137940.000,131000.000,705000.000,-443000.000,52.160,-50.152,-177.883,-85.189,24.697,-20.686,24779.585,-4910.009,4367.867
1512180874,88.800,-139.900,541.700,-164980.000,-162840.000,1009770.000,131000.000,705000.000,-443000.000,48.906,-39.480,-173.627,-83.703,33.341,-16.123,24704.908,-4835.119,4368.538
1512180874,130.400,-76.300,515.300,-8180.000,-271300.000,1187930.000,131000.000,705000.000,-443000.000,42.524,-35.212,-173.702,-101.861,15.669,6.328,24929.136,-4984.777,4141.563
1512180874,208.700,-40.700,512.900,-71410.000,-228880.000,1164730.000,131000.000,705000.000,-443000.000,39.403,-20.256,-177.961,-76.687,35.154,13.172,24626.951,-5435.232,3843.910
1512180874,182.800,-188.600,502.400,-25210.000,-265690.000,1082760.000,131000.000,705000.000,-443000.000,32.830,-21.356,-167.400,-94.847,37.943,10.764,24703.749,-5060.110,4068.443
1512180874,122.000,46.100,496.700,15140.000,-268800.000,1085510.000,135000.000,712000.000,-457000.000,31.706,-27.781,-165.311,-88.677,27.998,-1.743,24854.918,-4834.890,4367.256
1512180874,104.800,-81.800,494.100,24720.000,-243350.000,983460.000,135000.000,712000.000,-457000.000,30.702,-11.747,-167.398,-56.091,38.787,-27.709,24856.459,-4459.890,4067.436
1512180874,181.100,-23.800,496.000,-10310.000,-203550.000,1004460.000,135000.000,712000.000,-457000.000,26.343,4.255,-161.010,-112.468,43.702,-2.735,24706.297,-4460.119,3768.715
1512180874,200.700,34.800,501.700,-78860.000,-210140.000,984560.000,135000.000,712000.000,-457000.000,28.586,8.545,-167.358,-103.993,42.621,-15.273,24779.646,-4834.997,3842.903
1512180874,-49.800,15.600,514.100,-114320.000,-249880.000,873170.000,115000.000,689000.000,-438000.000,26.550,23.506,-172.667,-64.345,49.087,-16.604,24702.177,-5360.113,3618.294
1512180874,-15.300,19.700,520.900,-191650.000,-217650.000,839170.000,115000.000,689000.000,-438000.000,29.694,33.114,-169.392,-85.281,41.943,-67.383,24780.775,-4610.006,4068.016
1512180874,34.400,100.400,512.500,-163150.000,-222660.000,883730.000,115000.000,689000.000,-438000.000,21.685,14.415,-168.502,-54.726,39.836,-31.127,24781.019,-4535.002,3880.539
1512180874,-1.300,9.100,504.700,-146480.000,-212650.000,933780.000,115000.000,689000.000,-438000.000,20.090,24.024,-168.493,-65.698,28.193,-34.608,25007.093,-4309.660,3991.234
1512180874,76.400,66.700,501.300,-172850.000,-172970.000,1007810.000,115000.000,689000.000,-438000.000,24.908,21.363,-170.032,-39.610,40.482,-18.994,25270.643,-4046.767,3726.624
1512180874,12.300,47.500,494.300,-161250.000,-187870.000,1005370.000,73000.000,703000.000,-448000.000,28.471,7.464,-160.434,-68.297,27.289,-15.456,25233.785,-3934.324,3989.495
1512180874,15.800,17.000,496.100,-182500.000,-183840.000,1001950.000,73000.000,703000.000,-448000.000,26.920,-10.691,-164.251,-16.042,22.629,4.051,25121.710,-3859.495,4177.986
1512180874,48.300,54.300,494.000,-205810.000,-166810.000,1028140.000,73000.000,703000.000,-448000.000,29.507,-12.298,-159.421,-70.117,17.042,17.888,25047.201,-3747.099,4141.175
1512180874,-24.000,39.400,476.200,-129580.000,-205320.000,1054810.000,73000.000,703000.000,-448000.000,28.395,-17.648,-157.326,-43.172,18.896,0.882,25083.929,-3934.553,4290.771
1512180874,-33.700,-5.900,479.000,-146970.000,-197810.000,1019230.000,73000.000,703000.000,-448000.000,32.137,5.324,-156.657,-71.885,16.154,-19.705,25122.549,-3671.995,4178.078
1512180874,24.900,84.400,475.100,-164060.000,-191280.000,1049620.000,86000.000,715000.000,-443000.000,24.163,-16.047,-158.980,-50.532,14.949,36.000,25087.339,-3147.039,4028.633
1512180874,-120.600,-39.700,471.100,-120240.000,-223020.000,1017760.000,86000.000,715000.000,-443000.000,21.087,-32.591,-167.077,-48.447,12.826,21.056,24898.085,-3522.322,3880.051
1512180874,-78.200,84.200,473.900,-126400.000,-247500.000,991820.000,86000.000,715000.000,-443000.000,10.530,-36.334,-173.639,-54.222,26.992,-7.601,24860.335,-3597.379,4067.840
1512180874,-101.700,-8.400,475.600,-122920.000,-231930.000,1053890.000,86000.000,715000.000,-443000.000,4.660,-29.934,-172.635,-52.425,12.431,-5.881,25051.885,-2697.096,4066.666
1512180875,-91.600,10.500,482.600,-148070.000,-260440.000,973450.000,57000.000,701000.000,-436000.000,-0.208,-12.863,-167.850,-76.664,29.738,8.074,24936.262,-3409.765,4217.293
1512180875,-113.300,61.800,477.500,-160950.000,-206670.000,933960.000,57000.000,701000.000,-436000.000,-6.672,-13.948,-163.683,-68.225,6.586,13.550,24939.512,-2659.765,3992.622
1512180875,-80.300,-34.400,471.200,-115360.000,-229250.000,1084110.000,57000.000,701000.000,-436000.000,-1.375,-6.468,-161.449,-77.123,12.051,20.974,25089.109,-2734.533,3841.331
1512180875,28.400,56.900,465.000,-177190.000,-152340.000,1001770.000,57000.000,701000.000,-436000.000,-4.669,0.994,-155.073,-87.665,43.914,-7.629,25314.512,-2659.201,3989.449
1512180875,34.100,-49.800,461.300,-252260.000,-156310.000,1006410.000,57000.000,701000.000,-436000.000,-2.637,-2.224,-149.727,-54.857,32.782,-2.743,25166.578,-2209.417,4065.926
1512180875,107.200,32.500,447.400,-196230.000,-149480.000,957700.000,52000.000,696000.000,-448000.000,-1.610,11.660,-146.465,-107.037,42.456,-43.019,25239.256,-2734.320,4140.053
1512180875,104.700,33.200,435.800,-216060.000,-98020.000,1048220.000,52000.000,696000.000,-448000.000,-2.570,12.746,-151.801,-102.444,25.895,-22.283,25315.535,-2434.195,3989.540
1512180875,126.500,-29.400,430.000,-193600.000,-107790.000,964480.000,52000.000,696000.000,-448000.000,-2.524,12.749,-155.000,-52.986,26.962,3.554,25243.345,-1834.311,4215.462
1512180875,155.300,47.000,418.200,-149480.000,-99730.000,1003230.000,52000.000,696000.000,-448000.000,-0.447,15.949,-151.762,-51.393,27.065,4.533,25393.980,-1684.088,4139.259
1512180875,64.800,-0.900,410.300,-130680.000,-122800.000,1071040.000,28000.000,710000.000,-438000.000,-0.430,23.425,-152.803,-64.895,25.095,-19.584,25392.897,-1909.079,3989.159
1512180875,56.200,8.000,403.100,-146060.000,-117430.000,934450.000,28000.000,710000.000,-438000.000,-4.687,22.354,-152.867,-44.495,21.551,-1.287,25093.122,-1834.524,3766.731
1512180875,7.700,52.700,408.400,-137450.000,-106450.000,1028440.000,28000.000,710000.000,-438000.000,-0.409,29.842,-152.776,-43.316,11.731,-4.985,25018.263,-1834.646,4067.375
1512180875,4.900,-23.300,400.500,-139710.000,-87100.000,1007020.000,28000.000,710000.000,-438000.000,2.680,36.240,-146.315,-27.379,35.186,-24.467,25018.827,-1684.637,3842.445
1512180875,-17.600,7.200,391.000,-124510.000,-130860.000,943050.000,28000.000,710000.000,-438000.000,-0.584,43.703,-142.073,-54.211,15.538,-10.625,24946.074,-1234.747,4293.297
1512180875,-47.700,-8.800,385.100,-121220.000,-102110.000,964780.000,19000.000,694000.000,-453000.000,6.799,39.430,-137.717,-24.625,23.138,-8.501,24721.083,-1235.098,4295.204
1512180875,3.100,5.500,384.700,-145940.000,-68970.000,992550.000,19000.000,694000.000,-453000.000,1.453,27.675,-136.767,5.200,38.524,3.388,24572.050,-1010.321,4221.581
1512180875,18.100,-58.200,380.400,-196290.000,-76720.000,1012760.000,19000.000,694000.000,-453000.000,9.796,23.391,-126.002,2.227,4.424,-15.750,24495.024,-1460.424,4222.008
1512180875,28.800,12.100,368.800,-147890.000,-99240.000,926210.000,19000.000,694000.000,-453000.000,6.477,15.898,-118.612,-45.234,22.460,29.788,24795.408,-1384.985,4294.502
1512180875,-11.900,5.600,355.300,-138850.000,-117980.000,1036130.000,19000.000,694000.000,-453000.000,10.781,11.633,-121.765,17.493,39.530,-10.616,24273.176,-785.757,4449.242
1512180875,-12.800,-73.900,353.800,-114140.000,-60060.000,993350.000,22000.000,705000.000,-443000.000,10.716,9.492,-117.507,29.741,10.106,-13.646,24423.445,-710.531,4297.997
1512180875,36.600,23.400,345.700,-153930.000,-117250.000,989870.000,22000.000,705000.000,-443000.000,6.314,-5.486,-110.161,-40.089,22.596,21.574,24198.103,-785.879,4299.873
1512180875,31.600,-59.100,335.200,-123230.000,-145450.000,1041930.000,22000.000,705000.000,-443000.000,12.772,-9.743,-114.348,7.151,22.338,8.947,24423.994,-560.537,4073.067
1512180875,5.600,27.000,323.300,-114690.000,-85450.000,930420.000,22000.000,705000.000,-443000.000,6.341,-6.554,-112.299,29.523,12.539,18.333,24046.782,-1086.096,4375.999
1512180875,25.600,-44.500,323.200,-140200.000,-118290.000,1043270.000,8000.000,694000.000,-443000.000,5.668,-10.305,-103.257,-20.428,26.308,-3.957,23974.454,-486.212,4301.926
1512180875,49.000,12.000,306.100,-135190.000,-147460.000,949460.000,8000.000,694000.000,-443000.000,2.946,1.965,-99.524,-31.506,29.650,0.388,24087.454,-373.541,4301.018
1512180875,29.600,14.200,302.400,-103940.000,-65550.000,1003050.000,8000.000,694000.000,-443000.000,2.829,-11.401,-93.176,-24.228,19.520,11.111,23825.049,-336.431,4153.266
1512180875,66.300,1.700,302.400,-151670.000,-114560.000,1029420.000,8000.000,694000.000,-443000.000,3.356,-5.527,-92.615,-50.119,23.976,22.927,24049.276,-523.596,4301.270
1512180875,-7.500,55.100,290.600,-104550.000,-113280.000,948850.000,8000.000,694000.000,-443000.000,10.863,-2.306,-95.161,-10.840,27.256,26.128,23789.053,1.009,4116.242
1512180875,-17.300,13.600,288.600,-97960.000,-99180.000,1050420.000,12000.000,698000.000,-433000.000,21.245,11.564,-77.371,-39.332,27.018,24.337,23675.825,-186.659,4342.109
1512180875,-11.700,18.800,285.000,-125920.000,-110350.000,987670.000,12000.000,698000.000,-433000.000,27.090,16.376,-76.204,-22.806,23.455,0.000,23489.706,113.062,4418.846
1512180875,-40.600,21.700,285.200,-94850.000,-90700.000,1000850.000,12000.000,698000.000,-433000.000,16.307,21.686,-68.346,-17.477,26.493,11.506,23565.267,225.672,4530.754
1512180875,-3.100,24.600,278.600,-126710.000,-81180.000,1057980.000,12000.000,698000.000,-433000.000,10.874,46.766,-60.874,-44.911,32.081,19.984,23116.972,600.008,4572.258
1512180875,-45.700,-36.200,274.300,-116760.000,-95640.000,985900.000,-10000.000,710000.000,-435000.000,10.912,49.971,-63.531,-2.025,6.819,-42.620,23079.114,524.951,4535.034
1512180875,-12.900,16.000,265.300,-72810.000,-101620.000,999450.000,-10000.000,710000.000,-435000.000,14.518,17.387,-57.194,3.770,55.655,-10.993,23192.664,750.116,4609.192
1512180875,42.900,-38.500,269.400,-106200.000,-57920.000,1028140.000,-10000.000,710000.000,-435000.000,13.017,-3.432,-64.218,60.802,10.943,-42.062,22740.210,186.937,4762.749
1512180875,37.200,2.900,261.700,-137150.000,-85820.000,930360.000,-10000.000,710000.000,-435000.000,15.529,-6.650,-55.131,1.625,11.271,25.490,22892.386,674.662,4724.198
1512180875,6.400,-12.800,253.300,-74830.000,-84350.000,1070500.000,-10000.000,710000.000,-435000.000,29.922,-26.388,-56.056,37.958,-3.384,-41.691,22854.712,637.110,4724.502
1512180876,24.100,7.200,244.900,-50960.000,-86360.000,1004390.000,-15000.000,684000.000,-443000.000,38.348,-48.285,-51.215,8.217,-67.666,5.998,22780.638,861.994,4537.743
1512180876,-10.800,-17.400,243.100,-82150.000,-67500.000,976870.000,-15000.000,684000.000,-443000.000,39.427,-46.141,-51.189,-6.005,-24.584,-13.281,22629.286,561.777,4538.887
1512180876,21.200,31.600,240.500,-103270.000,-70620.000,1018490.000,-15000.000,684000.000,-443000.000,26.630,-40.826,-51.359,-3.956,-24.191,32.160,22479.734,636.545,4765.190
1512180876,-40.200,8.500,234.400,-104060.000,-84840.000,969670.000,-15000.000,684000.000,-443000.000,38.373,-10.900,-51.085,-32.250,-18.821,-15.708,22480.330,786.554,4615.257
1512180876,6.000,31.600,240.700,-107600.000,-47360.000,1037540.000,-15000.000,684000.000,-443000.000,34.097,-13.042,-50.087,-6.117,-5.258,-17.911,22407.850,1311.441,4916.130
1512180876,8.700,-43.400,233.300,-146910.000,-72450.000,972170.000,-26000.000,687000.000,-446000.000,29.733,-18.397,-43.770,-45.857,-30.600,16.066,22256.346,1011.209,4617.287
1512180876,14.600,87.000,228.000,-123110.000,-44490.000,947880.000,-26000.000,687000.000,-446000.000,36.060,-22.666,-39.428,-22.083,-58.735,-19.577,22181.501,1011.103,4917.900
1512180876,-41.700,-17.700,222.800,-153560.000,-77700.000,1002620.000,-26000.000,687000.000,-446000.000,21.162,-17.352,-41.761,4.182,-25.670,18.218,22257.627,1236.216,5142.372
1512180876,36.900,32.900,209.300,-132870.000,-84720.000,963070.000,-26000.000,687000.000,-446000.000,26.403,-6.669,-35.249,-19.409,6.782,-36.379,22260.618,1911.219,5067.680
1512180876,26.100,36.800,206.100,-151060.000,-40470.000,973330.000,-22000.000,680000.000,-440000.000,22.098,-16.301,-34.284,3.312,5.664,-30.604,22182.539,1236.109,4993.019
1512180876,23.200,-36.200,202.500,-172060.000,-66960.000,1038760.000,-22000.000,680000.000,-440000.000,23.069,-23.781,-27.895,19.616,-32.999,-22.085,21957.579,1235.758,5069.923
1512180876,-8.100,42.300,186.300,-143370.000,-71110.000,897090.000,-22000.000,680000.000,-440000.000,22.973,-24.864,-22.572,18.526,-8.983,13.057,21131.865,1084.528,5001.869
1512180876,20.500,11.500,182.200,-122920.000,-33510.000,1062380.000,-22000.000,680000.000,-440000.000,17.612,-22.738,-20.510,5.685,11.564,34.615,21133.635,1459.528,5152.031
1512180876,63.600,7.500,171.000,-115720.000,-61770.000,1007020.000,-22000.000,680000.000,-440000.000,20.766,-23.803,-17.267,20.996,-23.601,-15.567,20757.917,1308.969,5080.162
1512180876,-19.300,0.300,175.000,-186400.000,-45960.000,946660.000,-28000.000,678000.000,-438000.000,19.666,-13.131,-15.115,8.740,-18.756,-34.955,21360.014,1759.867,5225.273
1512180876,-7.200,12.300,168.300,-135500.000,-67200.000,994380.000,-28000.000,678000.000,-438000.000,18.553,-21.685,-13.031,39.259,-3.341,-8.818,20759.382,1608.973,5305.290
1512180876,72.800,-13.200,159.400,-152220.000,-21240.000,1065980.000,-28000.000,678000.000,-438000.000,17.431,-30.237,-9.878,57.858,-35.760,19.731,20685.575,1908.854,5006.081
1512180876,55.800,-30.500,155.800,-122740.000,-62810.000,917970.000,-28000.000,678000.000,-438000.000,17.366,-23.836,-5.592,10.640,-19.378,43.655,20234.449,1608.179,5459.755
1512180876,16.400,53.300,152.600,-175050.000,-43460.000,967350.000,-28000.000,678000.000,-438000.000,14.096,-20.647,-1.365,27.212,-4.201,50.813,20008.970,1457.834,5836.601
1512180876,6.400,-50.600,148.300,-170410.000,-26060.000,1026120.000,-26000.000,676000.000,-446000.000,17.209,-7.831,5.124,2.793,-17.921,3.909,20235.548,1833.185,5609.871
1512180876,64.000,8.400,139.000,-171140.000,-23860.000,1035580.000,-26000.000,676000.000,-446000.000,21.494,-4.624,3.061,-5.248,-10.192,-18.341,20007.124,1082.834,5536.430
1512180876,22.400,-22.800,137.300,-170350.000,-25150.000,971500.000,-26000.000,676000.000,-446000.000,16.173,-6.763,2.979,60.945,0.391,-18.729,20084.120,1532.953,5461.006
1512180876,43.000,-11.200,133.700,-160340.000,-12570.000,1093260.000,-26000.000,676000.000,-446000.000,9.541,1.744,17.838,26.787,-49.236,20.868,19481.749,1007.044,5465.858
1512180876,12.700,-25.300,122.800,-188840.000,-77150.000,1088010.000,-43000.000,676000.000,-440000.000,20.073,11.354,25.484,3.545,-16.749,60.004,19260.359,1756.723,5918.114
1512180876,-54.700,-46.200,120.400,-149960.000,-74280.000,937620.000,-43000.000,676000.000,-440000.000,27.373,45.527,37.437,-0.087,19.650,16.364,19559.004,1457.163,5915.428
1512180876,-81.400,19.000,116.600,-145020.000,-93690.000,992740.000,-43000.000,676000.000,-440000.000,19.829,34.823,41.553,13.459,-56.821,-66.148,19936.033,1907.740,5912.437
1512180876,-72.300,-29.300,113.900,-165410.000,-43210.000,1017150.000,-43000.000,676000.000,-440000.000,3.898,11.312,37.513,15.969,-30.400,65.287,19259.100,1456.713,6105.476
1512180876,-52.700,-22.600,111.700,-177860.000,-71040.000,966800.000,-43000.000,676000.000,-440000.000,3.527,2.780,26.280,122.767,-25.890,1.653,19560.537,1757.173,6290.558
1512180876,-71.200,10.100,106.900,-153630.000,-64390.000,898930.000,-33000.000,666000.000,-460000.000,3.860,-39.430,36.800,117.188,-19.475,18.068,19448.264,1831.995,6066.559
1512180876,-72.800,-32.900,104.100,-160520.000,-69520.000,1008120.000,-33000.000,666000.000,-460000.000,-10.768,-43.219,50.966,37.952,-27.678,1.092,19411.459,1981.943,6104.446
1512180876,3.900,2.400,101.300,-140870.000,-64210.000,1058840.000,-33000.000,666000.000,-460000.000,-5.192,-52.794,35.556,153.922,-30.529,-40.264,19147.985,1719.041,6519.058
1512180876,-63.500,-39.100,96.000,-123780.000,-103580.000,940120.000,-33000.000,666000.000,-460000.000,-5.757,-16.545,71.921,-71.543,-13.438,64.414,18960.936,1831.271,6408.203
1512180876,-44.100,60.100,91.500,-106630.000,-93930.000,1041560.000,-33000.000,666000.000,-460000.000,-2.095,-8.005,76.267,68.681,-4.092,-44.160,18809.263,1456.042,6446.800
1512180876,5.100,-29.800,91.600,-131960.000,-67570.000,1110900.000,-40000.000,666000.000,-450000.000,-1.550,-11.204,75.733,59.242,-18.735,53.355,18848.287,1793.604,6446.632
1512180876,0.000,32.800,88.200,-157840.000,-80080.000,980770.000,-40000.000,666000.000,-450000.000,5.128,-8.022,90.764,31.124,-11.665,38.184,18810.392,1681.048,6671.905
1512180876,-15.200,-23.300,87.900,-152100.000,-42600.000,1024290.000,-40000.000,666000.000,-450000.000,2.858,-8.038,99.795,128.482,-7.742,-19.558,18621.931,1418.261,7123.374
1512180876,34.600,24.000,86.800,-165710.000,-26250.000,1039490.000,-40000.000,666000.000,-450000.000,-7.800,9.567,100.234,136.887,-19.068,-28.204,18734.114,1343.424,7159.882
1512180876,18.600,-68.800,88.300,-149350.000,-57310.000,968080.000,-29000.000,680000.000,-453000.000,-9.164,-31.060,116.063,78.504,3.766,37.803,18657.553,1005.815,7085.365
1512180877,48.500,50.200,84.400,-163940.000,-52610.000,996950.000,-29000.000,680000.000,-453000.000,-4.895,-30.519,115.593,202.655,-26.755,11.150,18283.628,1305.262,6526.192
1512180877,28.200,-63.100,84.300,-166560.000,-91550.000,1053830.000,-29000.000,680000.000,-453000.000,-6.243,-22.006,133.728,60.595,-25.258,38.668,18807.432,1006.037,6821.587
1512180877,32.600,41.400,78.200,-140620.000,-57800.000,933530.000,-29000.000,680000.000,-453000.000,1.111,-11.323,141.337,58.471,7.285,6.801,18807.127,931.040,6896.553
1512180877,-28.900,26.800,75.500,-138430.000,-78120.000,1030460.000,-29000.000,680000.000,-453000.000,6.444,-15.592,140.330,132.387,26.985,-32.892,19184.156,1381.601,6893.578
1512180877,-27.800,-16.400,74.200,-196230.000,-57680.000,969730.000,-35000.000,664000.000,-435000.000,7.261,-18.825,155.255,132.899,5.515,-9.999,19331.861,856.821,7042.046
1512180877,13.400,38.300,73.400,-144780.000,-52120.000,970520.000,-35000.000,664000.000,-435000.000,6.053,-11.370,163.790,49.292,-10.429,-1.588,19106.184,706.491,7043.892
1512180877,-11.200,-18.100,72.200,-176270.000,-58590.000,967770.000,-35000.000,664000.000,-435000.000,0.804,-14.575,158.372,71.380,-7.002,28.738,19254.057,256.708,6817.406
1512180877,-19.700,-3.500,73.200,-184750.000,-78310.000,909360.000,-35000.000,664000.000,-435000.000,-3.388,-14.565,155.117,161.991,-11.947,-5.375,19479.795,407.053,6965.569
1512180877,7.300,57.700,66.400,-165530.000,-74160.000,1010620.000,-35000.000,664000.000,-435000.000,-5.800,-11.406,171.080,81.529,2.540,18.232,19630.476,557.276,6964.363
1512180877,11.600,-53.700,73.400,-217410.000,-78550.000,1046390.000,-54000.000,662000.000,-436000.000,-2.538,5.703,169.059,82.550,-4.796,22.376,19629.011,257.273,6739.235
1512180877,8.700,17.600,71.000,-183530.000,-61890.000,927430.000,-54000.000,662000.000,-436000.000,-3.684,17.440,174.413,138.464,-12.831,6.413,19779.646,407.495,6663.033
1512180877,-2.700,-23.600,67.100,-177000.000,-64940.000,979610.000,-54000.000,662000.000,-436000.000,-8.258,12.053,192.449,88.353,-12.451,17.532,19705.030,482.386,6738.701
1512180877,67.600,-17.800,71.600,-203860.000,-83190.000,974060.000,-54000.000,662000.000,-436000.000,-16.817,6.698,194.440,106.328,1.030,67.981,19704.390,332.376,6813.622
1512180877,54.500,18.800,60.500,-144290.000,-66530.000,1055480.000,-57000.000,684000.000,-446000.000,-10.365,14.191,191.361,175.867,8.020,-3.782,19702.665,-42.624,6738.457
1512180877,-5.100,-21.000,62.600,-214170.000,-86910.000,979430.000,-57000.000,684000.000,-446000.000,-16.937,4.542,200.824,148.577,-24.664,36.149,20227.293,-116.827,6658.958
1512180877,-59.500,-5.500,66.600,-202270.000,-76350.000,981140.000,-57000.000,684000.000,-446000.000,-21.305,9.869,208.245,146.546,-25.860,60.922,20152.632,-41.937,6659.630
1512180877,-8.900,30.600,63.100,-213930.000,-46880.000,1013790.000,-57000.000,684000.000,-446000.000,-22.467,3.446,213.535,126.928,2.978,58.186,20075.911,-417.059,6585.106
1512180877,-5.900,-52.600,62.900,-199100.000,-95210.000,1082030.000,-57000.000,684000.000,-446000.000,-21.466,4.510,217.819,133.662,37.900,55.895,20302.336,-116.720,6733.315
1512180877,9.300,9.500,63.900,-145200.000,-61890.000,985170.000,-56000.000,678000.000,-448000.000,-21.463,24.806,218.957,97.835,10.876,4.814,20449.965,-641.500,6731.804
1512180877,-14.600,-16.400,62.100,-197880.000,-49740.000,1022640.000,-56000.000,678000.000,-448000.000,-16.159,35.486,220.133,119.762,9.961,11.184,20525.419,-491.385,6281.242
1512180877,-30.800,-27.300,66.600,-201230.000,-81480.000,963560.000,-56000.000,678000.000,-448000.000,-26.957,30.114,228.488,205.213,28.693,23.454,20448.622,-941.504,6731.667
1512180877,-39.800,21.600,58.600,-133910.000,-14470.000,939390.000,-56000.000,678000.000,-448000.000,-23.009,39.693,247.766,108.106,25.292,-69.739,20599.134,-791.281,6430.458
1512180877,65.100,-36.500,66.800,-182010.000,-56090.000,1034730.000,-56000.000,678000.000,-448000.000,-35.843,9.767,249.611,150.678,43.687,46.824,20522.001,-1241.385,6205.894
1512180877,28.900,1.100,64.200,-192930.000,-37660.000,956540.000,-50000.000,666000.000,-440000.000,-40.142,18.298,251.709,152.972,23.026,10.719,20896.482,-1390.829,6502.632
1512180877,18.100,-10.700,62.200,-145940.000,-72390.000,997740.000,-50000.000,666000.000,-440000.000,-49.850,-2.029,256.824,175.325,3.571,28.521,21421.476,-1390.036,6498.177
1512180877,12.100,-2.500,62.200,-172670.000,-45530.000,1096070.000,-50000.000,666000.000,-440000.000,-49.879,5.452,260.053,183.358,42.680,59.345,21495.024,-1689.932,6272.392
1512180877,13.000,-0.500,58.900,-146180.000,-45900.000,996700.000,-50000.000,666000.000,-440000.000,-47.837,2.235,264.866,221.631,38.888,34.790,21756.270,-1952.032,6120.041
1512180877,-28.600,-28.600,51.900,-166930.000,-57740.000,1022160.000,-47000.000,666000.000,-440000.000,-47.133,16.615,287.849,190.632,48.480,-3.661,22469.122,-1838.469,5814.048
1512180877,37.800,19.000,50.300,-171510.000,-73430.000,1022950.000,-47000.000,666000.000,-440000.000,-56.503,0.009,305.778,277.564,42.344,21.237,22578.566,-2475.797,5437.790
1512180877,-10.400,-42.100,53.800,-182560.000,-64700.000,985960.000,-47000.000,666000.000,-440000.000,-54.747,-20.861,327.585,195.744,39.689,50.951,22989.546,-2775.190,5096.649
1512180877,15.800,10.900,55.100,-202090.000,-48280.000,994450.000,-47000.000,666000.000,-440000.000,-54.407,-14.478,339.337,235.617,59.155,32.689,23138.220,-3037.466,4795.250
1512180877,37.000,-13.700,50.300,-202210.000,-61770.000,1020260.000,-47000.000,666000.000,-440000.000,-49.430,-17.715,360.721,190.014,62.900,7.609,23398.352,-3524.572,4455.300
1512180877,18.800,-23.800,54.500,-179990.000,-46200.000,959840.000,-72000.000,676000.000,-436000.000,-51.894,-15.623,380.946,213.903,49.691,60.177,23544.736,-4311.850,4303.665
1512180877,30.000,-7.900,53.000,-106020.000,-62680.000,983700.000,-72000.000,676000.000,-436000.000,-42.538,-12.433,395.486,233.378,82.334,33.320,23507.636,-4199.408,4079.033
1512180877,53.100,29.400,54.200,-155330.000,-75810.000,1030760.000,-72000.000,676000.000,-436000.000,-50.271,-32.768,411.295,245.431,23.680,77.377,23429.785,-4837.034,4116.874
1512180877,5.200,-47.900,48.900,-111760.000,-71230.000,992190.000,-72000.000,676000.000,-436000.000,-63.069,-42.936,411.073,195.336,35.843,104.141,23127.806,-5249.975,3894.233
1512180877,30.200,16.500,52.300,-180540.000,-34000.000,1002010.000,-54000.000,645000.000,-450000.000,-61.842,-22.622,402.099,223.678,46.596,36.139,23051.344,-5550.101,3669.738
1512180877,3.700,-14.100,51.400,-161870.000,-40470.000,940060.000,-54000.000,645000.000,-450000.000,-70.474,-11.433,408.943,172.519,51.534,46.346,23086.409,-6112.547,3856.651
1512180878,65.400,4.500,48.600,-191770.000,-14160.000,979370.000,-54000.000,645000.000,-450000.000,-75.819,-28.000,408.807,200.167,54.294,30.294,23272.673,-6337.271,3404.961
1512180878,81.000,7.200,45.500,-146000.000,-49380.000,1043330.000,-54000.000,645000.000,-450000.000,-67.409,-56.836,415.228,290.986,65.518,29.334,23423.307,-6187.033,3328.758
1512180878,-10.400,0.100,43.900,-158750.000,-62500.000,954350.000,-54000.000,645000.000,-450000.000,-62.205,-48.301,422.793,187.643,69.559,32.346,23123.014,-6262.487,3406.273
1512180878,23.200,49.700,43.400,-99430.000,-39120.000,1043030.000,-66000.000,657000.000,-451000.000,-64.203,-37.606,415.340,125.712,80.398,11.680,22970.610,-6787.725,3332.298
1512180878,-57.300,-5.600,44.500,-153380.000,-64760.000,999450.000,-66000.000,657000.000,-451000.000,-55.568,-31.172,409.090,314.456,81.183,3.452,23194.410,-7087.378,3630.241
1512180878,-79.900,-17.400,49.800,-215210.000,-49680.000,905270.000,-66000.000,657000.000,-451000.000,-55.766,-8.761,423.028,209.632,61.546,33.137,22817.533,-7462.942,3258.263
1512180878,-14.400,49.100,43.500,-163570.000,-2260.000,1002870.000,-66000.000,657000.000,-451000.000,-48.357,-20.508,425.224,155.434,72.851,27.897,22518.141,-7313.391,3110.893
1512180878,58.900,-17.000,46.500,-180730.000,-33200.000,1134280.000,-66000.000,657000.000,-451000.000,-34.462,-13.006,423.319,241.305,105.089,-19.418,22743.025,-7313.055,2883.980
1512180878,18.400,-15.200,41.300,-166870.000,-81850.000,919250.000,-49000.000,668000.000,-445000.000,-35.665,-13.023,431.831,175.903,91.429,-12.914,22816.481,-7687.948,3183.159
1512180878,43.100,30.100,42.600,-152100.000,-44920.000,1077210.000,-49000.000,668000.000,-445000.000,-24.915,8.361,426.728,185.537,74.754,-84.174,21991.224,-7689.184,2665.184
1512180878,-9.200,-25.700,39.300,-167110.000,-86060.000,1017030.000,-49000.000,668000.000,-445000.000,-33.556,-13.025,432.927,217.627,121.770,-16.374,21991.224,-7689.184,2665.184
1512180878,-98.900,23.200,41.500,-171450.000,-60420.000,944760.000,-49000.000,668000.000,-445000.000,-24.061,-35.456,437.248,325.496,118.087,-50.946,21687.956,-8439.642,2892.387
1512180878,-53.500,26.800,44.500,-186950.000,-50480.000,1093260.000,-72000.000,655000.000,-446000.000,-24.295,-34.412,452.176,238.304,73.708,-25.075,21687.925,-8439.642,2817.390
1512180878,-77.200,-34.800,37.700,-184450.000,-50420.000,904600.000,-72000.000,655000.000,-446000.000,-39.237,-21.618,454.137,119.204,64.017,56.614,21309.874,-9115.210,2820.259
1512180878,-15.600,33.700,38.300,-124210.000,-36380.000,891910.000,-72000.000,655000.000,-446000.000,-27.487,-25.872,452.159,327.586,83.019,-20.159,21084.913,-9115.545,2897.163
1512180878,18.800,35.200,32.800,-146120.000,-79900.000,1068790.000,-72000.000,655000.000,-446000.000,-41.580,-4.562,466.952,278.865,111.122,72.146,20933.790,-9340.780,2673.347
1512180878,-59.800,3.600,28.400,-137080.000,-74770.000,924800.000,-72000.000,655000.000,-446000.000,-34.352,1.833,482.006,74.196,90.030,70.555,20855.528,-10090.887,2898.628
1512180878,11.600,40.500,34.600,-179810.000,-15080.000,989010.000,-61000.000,652000.000,-457000.000,-36.113,-13.081,458.474,264.471,78.481,71.068,20631.208,-9941.229,2900.612
1512180878,10.500,-51.400,34.900,-179570.000,-32100.000,1071720.000,-61000.000,652000.000,-457000.000,-39.450,33.894,469.250,322.825,80.541,63.415,20706.770,-9791.113,2675.041
1512180878,18.100,-1.700,35.000,-179870.000,-30580.000,942750.000,-61000.000,652000.000,-457000.000,-43.294,-11.048,506.350,139.363,91.700,104.570,20404.921,-10166.571,2377.434
1512180878,20.200,-25.600,37.400,-166930.000,-38020.000,1019100.000,-61000.000,652000.000,-457000.000,-38.865,1.795,496.864,214.123,107.471,35.094,20328.993,-10391.684,2527.962
1512180878,16.500,15.400,31.800,-163020.000,-45290.000,920840.000,-61000.000,652000.000,-457000.000,-53.679,9.260,490.278,343.297,99.553,24.891,19802.641,-10692.465,2532.280
1512180878,82.200,-22.100,25.800,-158690.000,-46690.000,959050.000,-77000.000,661000.000,-445000.000,-54.120,-5.742,516.874,201.487,109.455,54.034,19802.671,-10692.465,2607.277
1512180878,114.200,-4.800,24.400,-121640.000,12630.000,965030.000,-77000.000,661000.000,-445000.000,-54.118,-0.402,516.892,163.212,54.708,65.499,19650.084,-11292.700,2833.275
1512180878,140.500,35.600,21.600,-139710.000,-46570.000,965940.000,-77000.000,661000.000,-445000.000,-51.907,-23.891,510.443,360.001,137.683,57.758,19350.752,-11143.148,2835.899
1512180878,141.100,6.100,15.600,-149660.000,-10500.000,1090880.000,-77000.000,661000.000,-445000.000,-48.893,-0.407,523.364,248.476,107.194,16.220,19048.689,-11593.603,2763.237
1512180878,144.300,33.300,17.000,-163210.000,-7570.000,1041380.000,-77000.000,654000.000,-448000.000,-47.359,-5.752,527.099,235.255,95.428,57.340,18559.034,-12081.831,2842.155
1512180878,51.700,-56.600,20.900,-209780.000,-12150.000,966920.000,-77000.000,654000.000,-448000.000,-36.269,-0.411,533.139,293.828,123.349,54.071,18521.071,-12194.396,2917.420
1512180878,30.600,70.300,18.800,-225650.000,370.000,965390.000,-77000.000,654000.000,-448000.000,-29.419,-35.652,536.850,291.529,120.909,27.098,18030.287,-12907.629,2771.241
1512180878,16.400,-31.200,24.400,-212100.000,-4580.000,1098270.000,-77000.000,654000.000,-448000.000,-34.920,-54.377,545.764,254.126,120.267,3.605,17241.438,-13208.807,2777.794
1512180878,49.400,-47.700,24.200,-201110.000,-1340.000,953860.000,-77000.000,654000.000,-448000.000,-26.349,-79.458,542.071,310.168,136.660,7.543,17240.477,-13433.813,2890.190
1512180878,102.000,42.200,15.700,-166080.000,-26980.000,1004520.000,-72000.000,652000.000,-443000.000,-29.061,-97.090,544.102,263.479,120.171,23.386,16789.595,-13621.993,2818.924
1512180878,39.500,-65.000,9.700,-160950.000,-60910.000,1003780.000,-72000.000,652000.000,-443000.000,-22.778,-129.138,549.412,202.629,102.981,23.868,16449.514,-14185.003,2709.037
1512180878,28.900,15.400,9.100,-174680.000,-16480.000,959840.000,-72000.000,652000.000,-443000.000,-23.485,-122.683,528.639,287.333,81.628,28.861,16221.335,-14860.335,2448.143
1512180878,87.000,-18.200,9.100,-164120.000,34060.000,1120420.000,-72000.000,652000.000,-443000.000,-18.959,-117.375,544.176,135.340,98.811,17.687,16069.090,-15348.074,2336.692
1512180878,91.600,-10.900,5.900,-189150.000,24050.000,941830.000,-72000.000,652000.000,-443000.000,-27.116,-116.807,522.208,218.992,89.588,-43.387,15766.073,-15986.021,2038.940
1512180878,96.800,0.800,4.500,-115050.000,-24780.000,1056760.000,-66000.000,657000.000,-438000.000,-37.748,-84.775,522.166,81.977,74.269,15.683,15467.764,-15648.969,2379.150
1512180878,-28.200,-0.800,10.100,-138180.000,-29660.000,969360.000,-66000.000,657000.000,-438000.000,-41.191,-59.114,505.680,160.103,95.694,-3.110,15313.948,-16474.203,2192.535
1512180879,-47.300,-29.800,12.000,-152770.000,-31070.000,1055050.000,-66000.000,657000.000,-438000.000,-36.883,-29.196,504.247,134.137,75.799,39.134,14900.663,-16624.823,1970.985
1512180879,-31.200,-12.000,10.000,-156430.000,-34300.000,958560.000,-66000.000,657000.000,-438000.000,-38.088,-11.055,513.888,119.143,77.621,-23.448,14672.926,-17225.164,1897.621
1512180879,-41.700,3.500,7.300,-146420.000,-58590.000,903560.000,-63000.000,647000.000,-438000.000,-43.338,-7.847,509.561,96.167,71.302,38.525,14148.329,-17150.946,2052.116
1512180879,-87.000,-32.500,10.100,-150450.000,-55790.000,1018620.000,-63000.000,647000.000,-438000.000,-41.057,-21.710,499.951,133.735,89.153,43.031,14523.329,-17150.381,2048.927
1512180879,-17.800,1.100,4.100,-158690.000,-22950.000,1022220.000,-63000.000,647000.000,-438000.000,-42.088,-9.962,497.843,237.312,101.207,83.883,13921.644,-17526.297,2053.856
1512180879,9.700,-26.000,7.100,-154480.000,-33450.000,969850.000,-63000.000,647000.000,-438000.000,-25.030,14.632,499.243,233.900,52.966,29.672,13618.757,-18126.745,1681.129
1512180879,-5.200,15.600,7.900,-146610.000,-39370.000,997620.000,-63000.000,647000.000,-438000.000,-35.814,-1.424,505.425,152.690,80.381,56.902,13618.910,-18126.745,1981.117
1512180879,36.600,-0.400,7.500,-176030.000,-14040.000,1035160.000,-75000.000,648000.000,-453000.000,-26.227,-9.955,505.534,217.116,101.159,76.459,13319.319,-18052.191,2133.705
1512180879,-30.200,-49.000,11.900,-170780.000,-20320.000,1038570.000,-75000.000,648000.000,-453000.000,-28.401,-22.779,507.591,260.248,130.179,93.001,12945.707,-17752.752,2212.029
1512180879,23.400,27.200,8.800,-129390.000,8060.000,996460.000,-75000.000,648000.000,-453000.000,-16.791,-6.747,516.347,288.916,91.915,22.265,12493.391,-18278.433,2290.611
1512180879,12.300,-34.100,11.200,-127320.000,-7630.000,1071110.000,-75000.000,648000.000,-453000.000,-27.644,7.093,527.962,237.591,92.872,22.673,12268.934,-18128.775,2067.604
1512180879,30.000,-35.800,7.500,-123660.000,-1460.000,972780.000,-70000.000,647000.000,-455000.000,-29.969,-16.432,538.507,238.270,120.601,102.621,11817.366,-18504.446,2296.257
1512180879,-9.600,3.900,5.100,-107180.000,-22890.000,989140.000,-70000.000,647000.000,-455000.000,-21.485,-30.308,540.714,270.485,154.647,81.753,11142.469,-18505.453,2526.985
1512180879,-2.000,-32.400,14.200,-116460.000,-1040.000,1042850.000,-70000.000,647000.000,-455000.000,-32.200,-29.265,543.760,286.030,125.196,36.895,10844.618,-18055.914,2754.738
1512180879,-41.800,-4.400,8.400,-140560.000,5490.000,995240.000,-70000.000,647000.000,-455000.000,-44.177,-23.970,559.597,383.124,135.853,57.932,10390.333,-19031.591,2983.116
1512180879,46.500,-21.600,4.000,-145020.000,-19900.000,1039920.000,-70000.000,647000.000,-455000.000,-49.891,-20.821,582.978,301.387,124.501,93.638,9940.367,-19032.263,3061.943
1512180879,29.700,-30.400,-3.900,-130370.000,-17520.000,953610.000,-72000.000,655000.000,-440000.000,-52.184,-28.319,592.514,236.654,114.430,30.745,9866.346,-18807.379,2987.679
1512180879,75.600,-27.300,3.900,-123470.000,29790.000,1027950.000,-72000.000,655000.000,-440000.000,-68.168,-32.620,591.198,337.578,103.613,55.956,9489.332,-19257.940,2990.654
1512180879,-49.000,-10.700,6.100,-112000.000,44430.000,1040950.000,-72000.000,655000.000,-440000.000,-65.016,-42.227,594.413,307.528,136.153,45.548,9340.742,-18958.166,3142.082
1512180879,-36.600,3.700,6.700,-101560.000,13000.000,960690.000,-72000.000,655000.000,-440000.000,-81.048,-42.261,596.310,231.857,95.397,25.296,8890.669,-18958.838,2995.903
1512180879,-18.500,-34.800,8.000,-99240.000,29300.000,1078000.000,-72000.000,655000.000,-440000.000,-82.114,-71.100,595.129,319.285,110.007,68.868,8814.238,-19258.947,2846.397
1512180879,19.400,-19.200,2.400,-79280.000,-19710.000,1029110.000,-77000.000,647000.000,-448000.000,-74.725,-71.098,599.500,290.866,104.466,-16.059,8362.257,-19709.631,2925.011
1512180879,-22.000,-17.800,6.700,-88750.000,-24600.000,996460.000,-77000.000,647000.000,-448000.000,-72.580,-89.254,597.334,320.110,89.989,-15.792,8138.639,-19409.964,3002.068
1512180879,-26.200,15.400,8.700,-145200.000,-20750.000,931880.000,-77000.000,647000.000,-448000.000,-80.092,-91.406,600.416,207.563,90.968,70.913,8286.283,-19934.744,3000.542
1512180879,-70.200,13.400,0.400,-134770.000,-59630.000,955440.000,-77000.000,647000.000,-448000.000,-75.517,-99.903,581.800,257.705,69.945,31.734,7761.099,-19973.036,2967.492
1512180879,-14.600,11.900,3.600,-100710.000,5370.000,1041020.000,-63000.000,643000.000,-445000.000,-65.478,-84.948,587.325,178.907,88.649,9.585,7384.779,-20236.097,2708.069
1512180879,-32.600,-27.400,-1.200,-76350.000,-57070.000,980290.000,-63000.000,643000.000,-445000.000,-50.242,-32.550,571.205,61.050,104.864,-32.125,7082.548,-20724.050,2635.383
1512180879,-30.800,61.000,6.300,-126280.000,-920.000,949400.000,-63000.000,643000.000,-445000.000,-24.832,56.721,554.296,133.352,136.556,-97.128,6893.889,-20949.331,2336.875
1512180879,-85.600,-43.100,4.900,-128300.000,-8300.000,924680.000,-63000.000,643000.000,-445000.000,4.183,173.150,578.040,-52.136,101.666,-88.727,6481.635,-20912.451,2490.394
1512180879,35.600,36.800,6.800,-94790.000,21000.000,1040710.000,-63000.000,643000.000,-445000.000,27.471,254.941,560.007,5.100,99.222,-95.483,6629.568,-21399.732,2751.404
1512180879,-32.100,-7.100,4.400,-127690.000,-12330.000,930050.000,-82000.000,638000.000,-450000.000,40.387,283.277,553.362,60.699,88.624,-58.215,6401.548,-22075.071,2790.497
1512180879,-72.000,-16.500,9.700,-130250.000,-20200.000,1007140.000,-82000.000,638000.000,-450000.000,41.367,252.296,557.534,153.881,67.707,-13.635,6399.992,-22412.573,2715.347
1512180879,-7.900,45.300,0.900,-53890.000,-10930.000,1020390.000,-82000.000,638000.000,-450000.000,33.627,185.024,538.531,210.153,110.755,36.408,6025.885,-22225.637,2831.116
1512180879,-70.400,-44.200,6.700,-105350.000,-50420.000,1020940.000,-82000.000,638000.000,-450000.000,4.933,117.700,529.885,376.426,99.249,73.467,5874.243,-22638.357,3244.698
1512180879,-136.900,42.900,2.500,-99790.000,-63170.000,896360.000,-82000.000,638000.000,-450000.000,-18.075,73.329,533.130,278.750,131.112,84.910,5386.549,-22714.095,3548.806
1512180879,-48.300,30.200,1.600,-126100.000,-2200.000,1009220.000,-80000.000,643000.000,-451000.000,-44.984,52.432,548.126,338.407,122.261,76.853,5162.672,-22489.431,3775.818
1512180879,-62.500,-78.400,-4.800,-87890.000,-28080.000,936520.000,-80000.000,643000.000,-451000.000,-52.737,-24.521,561.604,328.969,135.447,67.356,4561.201,-22827.833,3893.264
1512180880,-23.000,44.500,1.300,-132750.000,-1710.000,942930.000,-80000.000,643000.000,-451000.000,-43.459,-98.782,576.401,316.374,175.415,18.944,4070.890,-23466.070,4009.621
1512180880,16.400,7.900,2.300,-89840.000,2080.000,1056030.000,-80000.000,643000.000,-451000.000,-31.549,-143.598,563.627,274.409,168.747,38.045,3774.336,-22716.513,4162.498
1512180880,25.600,-28.900,6.500,-83370.000,-13000.000,1031490.000,-86000.000,638000.000,-436000.000,-19.832,-200.190,561.468,405.578,188.680,0.361,3624.937,-22566.732,4013.863
1512180880,41.800,38.700,-0.100,-110170.000,22710.000,938540.000,-86000.000,638000.000,-436000.000,-13.630,-221.566,572.144,383.970,186.060,16.804,3022.017,-23242.636,4243.645
1512180880,39.800,-7.200,5.600,-116580.000,37230.000,1047850.000,-86000.000,638000.000,-436000.000,10.720,-242.914,580.949,255.263,183.690,38.904,2498.442,-22943.426,4398.247
1512180880,-0.100,0.300,4.000,-102910.000,22220.000,1063660.000,-86000.000,638000.000,-436000.000,19.631,-244.984,558.688,253.088,150.632,43.211,2346.754,-23318.655,4399.345
1512180880,39.900,17.000,2.300,-120360.000,48830.000,1065310.000,-86000.000,638000.000,-436000.000,26.817,-232.197,574.822,381.077,156.844,89.053,1898.588,-22869.329,4028.374
1512180880,42.200,-31.700,0.400,-133420.000,-34240.000,983400.000,-86000.000,641000.000,-426000.000,47.845,-184.132,595.552,134.200,144.606,85.010,1519.987,-23694.891,4256.187
1512180880,13.700,54.700,2.300,-98510.000,14830.000,1025150.000,-86000.000,641000.000,-426000.000,45.946,-162.743,582.808,55.546,163.781,63.167,1219.053,-23920.340,4408.638
1512180880,-73.000,-9.900,7.600,-89420.000,-11350.000,1084840.000,-86000.000,641000.000,-426000.000,76.023,-102.857,571.724,218.838,122.720,-33.225,846.708,-23320.898,4337.090
1512180880,5.700,8.300,2.500,-130550.000,24900.000,1051760.000,-86000.000,641000.000,-426000.000,59.480,-116.835,604.484,91.510,104.912,103.259,544.127,-23921.362,4564.369
1512180880,4.500,32.100,3.700,-146730.000,4390.000,988830.000,-86000.000,641000.000,-426000.000,64.657,-45.280,617.602,-74.602,88.659,54.904,19.682,-23772.146,4343.895
1512180880,18.900,-29.600,4.300,-84660.000,37600.000,1050900.000,-86000.000,655000.000,-416000.000,71.128,-52.740,612.338,91.705,104.142,34.246,17.805,-24222.143,4643.684
1512180880,-50.200,32.400,3.600,-131230.000,8850.000,990480.000,-86000.000,655000.000,-416000.000,68.744,28.402,631.775,59.515,105.608,-61.990,19.316,-23922.140,4943.825
1512180880,-61.500,-27.000,4.900,-97410.000,28560.000,1010500.000,-86000.000,655000.000,-416000.000,46.015,49.692,653.909,-99.678,132.900,-1.712,-431.475,-24072.821,4722.588
1512180880,-27.000,42.700,4.800,-119630.000,11170.000,990170.000,-86000.000,655000.000,-416000.000,30.107,89.195,650.617,44.917,139.702,-43.886,-355.349,-23847.708,4947.044
1512180880,-4.800,-50.500,6.000,-142150.000,13180.000,981930.000,-72000.000,655000.000,-413000.000,4.301,148.940,666.440,125.240,98.605,-47.770,-435.045,-24897.833,5022.209
1512180880,31.800,36.200,1.900,-123290.000,12880.000,906860.000,-72000.000,655000.000,-413000.000,-12.909,178.807,678.025,35.921,137.418,5.855,-658.922,-24673.162,5249.214
1512180880,-4.400,-46.900,1.100,-90390.000,-17580.000,1040160.000,-72000.000,655000.000,-413000.000,-30.709,251.450,662.029,167.781,100.922,-45.600,-881.441,-24148.504,5476.357
1512180880,105.600,32.200,1.500,-117800.000,-1460.000,979130.000,-72000.000,655000.000,-413000.000,-56.277,279.179,661.752,135.863,101.288,-16.129,-881.929,-24223.501,5176.338
1512180880,59.500,17.800,3.700,-89600.000,39120.000,1018490.000,-72000.000,655000.000,-413000.000,-66.819,295.198,655.259,42.607,99.948,-23.977,-805.208,-23848.379,5250.862
1512180880,65.900,-28.500,5.900,-120790.000,11900.000,1055180.000,-80000.000,650000.000,-441000.000,-87.618,264.252,621.801,233.498,106.267,20.643,-886.690,-25273.504,5100.838
1512180880,81.600,-13.000,9.200,-145020.000,30400.000,987000.000,-80000.000,650000.000,-441000.000,-97.301,275.978,628.099,246.991,116.068,10.085,-885.378,-24973.501,5025.993
1512180880,82.700,36.500,7.300,-124020.000,34420.000,987000.000,-80000.000,650000.000,-441000.000,-108.045,225.753,630.968,198.583,134.674,65.820,-731.676,-24148.275,5025.093
1512180880,51.100,-74.700,9.300,-111390.000,2690.000,1029850.000,-80000.000,650000.000,-441000.000,-118.600,196.911,623.252,262.110,131.018,48.590,-655.993,-23998.159,5024.529
1512180880,80.200,47.900,8.400,-133360.000,5620.000,912170.000,-75000.000,659000.000,-423000.000,-121.743,152.053,617.720,311.970,137.378,77.770,-882.036,-24223.501,4951.332
1512180880,82.400,-8.000,0.000,-82030.000,32530.000,1002010.000,-75000.000,659000.000,-423000.000,-128.127,99.173,614.245,278.452,170.166,76.054,-1294.656,-24224.111,4729.843
1512180880,116.400,-50.900,6.300,-101930.000,7200.000,1081360.000,-75000.000,659000.000,-423000.000,-135.533,43.627,608.081,339.460,175.015,95.166,-1442.759,-23811.834,4806.312
1512180880,56.500,27.800,5.600,-111760.000,14950.000,900630.000,-75000.000,659000.000,-423000.000,-131.622,-39.124,592.924,271.983,191.074,46.457,-2155.756,-23887.907,4512.329
1512180880,92.000,-4.500,9.600,-89720.000,29910.000,1000180.000,-75000.000,659000.000,-423000.000,-143.487,-109.654,597.837,293.319,183.779,64.723,-2717.729,-23776.251,4554.664
1512180880,86.700,-8.300,15.300,-113890.000,920.000,1011110.000,-63000.000,647000.000,-441000.000,-142.045,-174.225,572.048,302.153,181.984,-13.299,-3464.975,-23177.374,4673.820
1512180880,89.700,50.300,5.600,-68480.000,23800.000,1001040.000,-63000.000,647000.000,-441000.000,-150.321,-250.039,553.544,219.128,172.608,0.792,-4253.427,-23366.056,4455.422
1512180880,-5.300,7.500,15.300,-92650.000,15690.000,1103390.000,-63000.000,647000.000,-441000.000,-153.230,-276.180,534.220,167.564,126.984,16.294,-4964.663,-23067.121,4311.615
1512180880,-2.000,-2.100,15.000,-134890.000,-27830.000,933530.000,-63000.000,647000.000,-441000.000,-139.748,-259.587,525.410,138.953,127.356,12.641,-5863.253,-22730.970,4094.421
1512180880,-5.900,42.600,12.100,-123660.000,22030.000,1100460.000,-63000.000,647000.000,-441000.000,-123.256,-216.307,529.531,22.480,121.643,57.616,-6614.779,-23069.601,4100.639
1512180880,55.900,-74.400,8.100,-65800.000,28690.000,1034240.000,-66000.000,657000.000,-448000.000,-96.797,-128.704,545.678,18.226,96.135,30.848,-7515.024,-23108.450,3958.274
1512180880,57.800,25.700,13.200,-123720.000,-41870.000,998170.000,-66000.000,657000.000,-448000.000,-64.891,-50.695,553.874,-41.877,93.453,31.224,-8036.501,-22359.228,4263.077
1512180880,75.100,33.200,14.900,-107420.000,27100.000,1042110.000,-66000.000,657000.000,-448000.000,-38.210,8.099,555.534,41.590,95.294,21.384,-8522.837,-22097.464,4229.851
1512180881,64.400,-18.800,17.600,-98510.000,50660.000,1113160.000,-66000.000,657000.000,-448000.000,-29.218,50.823,561.140,4.987,95.008,14.894,-8897.051,-21910.528,4120.628
1512180881,156.600,5.300,26.100,-154540.000,12150.000,982670.000,-72000.000,655000.000,-457000.000,-23.726,55.124,551.640,62.055,92.990,50.305,-8970.919,-21685.629,4346.367
1512180881,68.800,16.600,12.400,-55730.000,-21480.000,989010.000,-72000.000,655000.000,-457000.000,-15.147,73.303,549.697,91.259,114.433,-8.245,-8746.645,-21835.302,4269.371
1512180881,17.700,-52.600,21.700,-99490.000,-41020.000,1057310.000,-72000.000,655000.000,-457000.000,-23.591,83.982,545.348,96.206,98.001,39.429,-9045.031,-21460.745,4122.108
1512180881,-2.100,61.700,21.600,-126650.000,-19230.000,973690.000,-72000.000,655000.000,-457000.000,-12.897,91.477,543.396,145.423,119.779,-16.646,-9195.070,-21460.974,4048.378
1512180881,-33.600,-29.300,25.000,-124820.000,15500.000,1034120.000,-72000.000,655000.000,-457000.000,-19.337,71.164,544.295,177.274,127.072,35.119,-9345.705,-21611.197,4124.580
1512180881,-15.300,28.000,24.100,-144350.000,-30090.000,1046880.000,-63000.000,639000.000,-441000.000,-19.324,65.832,544.281,124.004,119.577,39.506,-9644.243,-21311.636,4352.272
1512180881,-33.700,12.400,21.400,-105350.000,-46810.000,977480.000,-63000.000,639000.000,-441000.000,-23.460,48.751,535.633,202.858,141.929,-3.400,-9419.649,-21386.297,4200.325
1512180881,-34.000,-25.000,18.800,-98820.000,-22280.000,1015620.000,-63000.000,639000.000,-441000.000,-33.006,38.062,532.260,172.986,132.486,17.487,-9568.987,-21236.532,4201.668
1512180881,-45.800,9.900,26.900,-147580.000,-62500.000,1012210.000,-63000.000,639000.000,-441000.000,-37.335,8.137,534.223,147.890,108.805,-5.146,-9718.676,-21161.749,4127.983
1512180881,-87.100,49.700,24.200,-140750.000,-13550.000,939760.000,-70000.000,661000.000,-455000.000,-52.058,-26.035,521.101,231.624,133.473,39.097,-10244.097,-21237.539,3982.399
1512180881,-10.300,-63.000,29.200,-113710.000,-38090.000,1086000.000,-70000.000,661000.000,-455000.000,-56.298,-17.501,518.932,194.551,119.824,2.713,-10467.852,-20937.872,3759.453
1512180881,-19.800,38.700,27.800,-117310.000,-72020.000,989620.000,-70000.000,661000.000,-455000.000,-65.867,-67.710,515.423,172.594,141.615,50.461,-10692.034,-20788.214,4061.440
1512180881,-81.100,-3.500,30.100,-93570.000,-32040.000,1014280.000,-70000.000,661000.000,-455000.000,-67.848,-64.488,506.879,211.979,120.114,3.402,-10541.323,-20637.991,4135.231
1512180881,-15.800,-43.300,39.800,-138790.000,-43270.000,1051940.000,-70000.000,661000.000,-455000.000,-75.373,-86.942,508.821,182.150,127.063,26.677,-11215.990,-20564.001,4140.999
1512180881,-19.000,38.100,33.800,-114200.000,-40770.000,974120.000,-61000.000,641000.000,-436000.000,-76.331,-96.539,502.380,94.750,132.694,18.625,-11741.396,-20639.791,3995.430
1512180881,-76.400,-43.400,33.000,-117860.000,-46750.000,942440.000,-61000.000,641000.000,-436000.000,-80.378,-110.405,488.414,167.624,113.457,29.871,-12192.369,-20865.469,4074.150
1512180881,-11.200,22.800,39.700,-161680.000,-65190.000,998410.000,-61000.000,641000.000,-436000.000,-79.411,-104.007,494.846,136.498,75.148,-1.215,-12265.642,-20490.576,4149.971
1512180881,-38.600,17.200,41.100,-131040.000,-71350.000,887820.000,-61000.000,641000.000,-436000.000,-76.208,-108.277,493.810,57.192,99.863,39.593,-12339.037,-20115.683,4000.771
1512180881,32.000,24.100,34.200,-139710.000,-77700.000,1079830.000,-61000.000,641000.000,-436000.000,-68.544,-97.552,483.303,77.228,106.348,3.516,-13014.452,-20191.702,3856.468
1512180881,53.700,36.200,40.500,-174680.000,-77700.000,972900.000,-73000.000,650000.000,-455000.000,-67.399,-94.342,477.997,97.531,93.000,-15.534,-13161.379,-19516.912,3933.052
1512180881,8.000,-35.300,47.500,-155030.000,-38330.000,1016240.000,-73000.000,650000.000,-455000.000,-78.128,-95.434,482.102,30.450,71.571,57.776,-13386.110,-19442.251,3785.011
1512180881,108.700,55.000,44.900,-144470.000,-37170.000,1036930.000,-73000.000,650000.000,-455000.000,-64.190,-79.382,478.096,48.398,89.586,25.308,-13836.412,-19517.935,3863.792
1512180881,22.800,-12.900,44.900,-145940.000,-57370.000,958560.000,-73000.000,650000.000,-455000.000,-59.831,-67.615,472.870,54.925,86.791,22.817,-13836.336,-19517.935,4013.802
1512180881,17.200,-15.300,44.700,-135500.000,-77450.000,1079160.000,-63000.000,643000.000,-458000.000,-58.758,-54.789,474.000,34.115,69.393,35.180,-14361.147,-19443.716,3718.300
1512180881,62.100,34.000,43.000,-147460.000,-72570.000,992070.000,-63000.000,643000.000,-458000.000,-45.864,-35.538,467.853,11.362,92.436,13.236,-14510.485,-19293.936,3719.643
1512180881,29.000,-22.500,52.100,-183170.000,-87280.000,985530.000,-63000.000,643000.000,-458000.000,-53.204,-28.061,460.308,48.654,75.921,64.977,-14510.217,-19256.438,3907.150
1512180881,19.800,-0.900,53.500,-168950.000,-74280.000,964420.000,-63000.000,643000.000,-458000.000,-33.989,0.277,460.152,21.628,75.275,38.617,-14582.064,-18544.050,3795.616
1512180881,-5.900,51.300,46.700,-139160.000,-76660.000,1026610.000,-63000.000,643000.000,-458000.000,-29.113,5.636,455.979,71.768,82.680,33.073,-15069.437,-18507.284,3724.785
1512180881,-22.800,-54.200,52.900,-154720.000,-54260.000,1013490.000,-59000.000,643000.000,-435000.000,-28.021,13.653,454.957,83.063,86.931,26.038,-15406.351,-18395.277,3877.700
1512180881,-11.200,75.100,43.800,-147030.000,-74160.000,931400.000,-59000.000,643000.000,-435000.000,-28.000,6.179,453.333,132.224,79.176,-7.567,-15704.348,-17945.730,3842.956
1512180881,-26.100,-16.900,47.500,-147220.000,-50600.000,1120970.000,-59000.000,643000.000,-435000.000,-40.643,-18.924,442.933,115.473,77.048,22.592,-15816.171,-17795.896,3843.986
1512180881,-45.000,-21.000,53.100,-163450.000,-80510.000,1017150.000,-59000.000,643000.000,-435000.000,-37.948,-24.791,440.821,120.092,37.080,4.257,-16265.916,-17721.571,3697.845
1512180881,-23.400,27.000,50.300,-143070.000,-64210.000,992370.000,-59000.000,643000.000,-435000.000,-35.805,-38.673,439.203,120.556,-15.825,0.355,-16601.839,-17347.074,3475.883
1512180881,-24.800,-7.200,54.500,-184140.000,-105710.000,1057800.000,-68000.000,655000.000,-436000.000,-33.164,-42.946,440.291,136.178,-30.122,6.992,-16976.725,-17310.141,3366.600
1512180881,34.600,-10.800,56.300,-145510.000,-83860.000,945190.000,-68000.000,655000.000,-436000.000,-28.986,-56.300,445.104,71.104,-70.865,5.650,-17199.572,-16822.973,3293.731
1512180881,53.800,20.200,55.000,-218930.000,-64940.000,1045170.000,-68000.000,655000.000,-436000.000,-25.030,-71.216,431.253,108.043,-58.000,2.836,-17536.470,-16673.483,3146.675
1512180881,49.500,-43.300,59.000,-193790.000,-70560.000,974550.000,-68000.000,655000.000,-436000.000,-18.681,-63.739,434.034,35.927,-58.248,-1.225,-17875.719,-17011.480,2699.387
1512180882,11.600,18.500,62.600,-158690.000,-53530.000,893190.000,-61000.000,652000.000,-446000.000,-22.699,-66.385,419.042,137.255,-52.928,-1.474,-17950.212,-16899.099,2700.081
1512180882,39.400,-16.000,69.900,-141300.000,-54500.000,1026430.000,-61000.000,652000.000,-446000.000,-22.825,-42.903,427.650,91.571,-66.701,-16.065,-17874.010,-16598.989,2399.574
1512180882,43.800,-4.400,67.400,-172420.000,-64150.000,953860.000,-61000.000,652000.000,-446000.000,-28.158,-48.252,427.554,14.737,-60.694,31.969,-17947.924,-16374.090,2550.316
