unixtime,rx,ry,rz,ax,ay,az,mx,my,mz,apprx,appry,apprz,appax,appay,appaz,appmx,appmy,appmz
1512180457,-12.500,4.100,-15.400,-8120.000,-87590.000,992740.000,-12000.000,-3000.000,-3000.000,0.736,0.577,0.229,-0.582,5.222,-12.379,56744.930,20009.022,78975.708
1512180457,9.100,4.500,-15.800,-13430.000,-73240.000,967470.000,-12000.000,-3000.000,-3000.000,-2.443,0.576,-0.881,-16.512,12.427,25.617,57119.778,19934.574,79347.488
1512180457,12.800,5.900,-15.400,-14160.000,-68360.000,944820.000,-12000.000,-3000.000,-3000.000,0.706,-0.490,2.362,1.459,4.503,-16.481,57193.844,19709.690,79496.750
1512180457,8.400,7.600,-15.400,-2380.000,-80140.000,973450.000,3000.000,-1000.000,18000.000,-2.467,-0.494,0.183,-13.496,13.664,21.042,56744.884,19934.010,79575.668
1512180457,5.200,6.100,-17.700,-8970.000,-71530.000,955930.000,3000.000,-1000.000,18000.000,2.881,0.587,-0.799,-2.489,3.040,-11.918,56593.761,19708.790,79351.837
1512180457,3.300,5.900,-16.600,-11410.000,-83070.000,946040.000,3000.000,-1000.000,18000.000,-4.599,-1.560,0.153,-16.510,12.915,27.819,56894.848,19934.238,79499.405
1512180457,5.100,5.900,-14.900,-6470.000,-83070.000,965760.000,3000.000,-1000.000,18000.000,0.746,-0.481,-0.831,1.231,5.460,-16.003,57045.818,20159.473,79423.218
1512180457,-7.500,-0.500,-16.600,-7320.000,-64510.000,979430.000,8000.000,17000.000,16000.000,-4.601,-0.489,0.160,-18.355,10.702,21.931,56820.599,20084.141,79650.101
1512180457,2.000,4.100,-15.400,-12270.000,-85080.000,968510.000,8000.000,17000.000,16000.000,0.759,-1.544,-1.897,1.675,1.769,-12.340,56745.754,20159.016,79275.772
1512180457,-0.700,5.900,-16.000,-7140.000,-76900.000,968990.000,8000.000,17000.000,16000.000,-3.503,-0.479,-1.953,-19.107,13.606,23.887,56744.091,19784.016,79350.601
1512180457,-9.500,-1.200,-17.300,-11050.000,-62620.000,975590.000,8000.000,17000.000,16000.000,0.746,-0.471,-0.822,-0.720,4.418,-13.830,56819.775,19934.132,79350.037
1512180457,0.900,3.100,-17.400,-12700.000,-88810.000,972110.000,8000.000,17000.000,16000.000,-4.596,-0.484,-0.901,-17.630,11.124,24.640,56368.725,19708.454,79278.763
1512180457,-4.100,4.000,-18.900,-8360.000,-83310.000,968870.000,0.000,8000.000,11000.000,1.802,0.597,-0.802,-3.129,3.656,-13.872,56895.107,20009.235,79349.426
1512180457,-2.700,-0.400,-19.200,-9950.000,-63230.000,972660.000,0.000,8000.000,11000.000,-3.527,-0.470,0.189,-13.955,14.770,24.215,56745.190,20009.022,79500.702
1512180457,10.000,6.700,-16.800,-14590.000,-83370.000,965820.000,0.000,8000.000,11000.000,1.793,-2.601,0.259,0.634,4.387,-18.429,56519.955,19933.674,79727.585
1512180457,5.100,4.700,-18.400,-4820.000,-75870.000,973210.000,0.000,8000.000,11000.000,-2.463,1.669,0.214,-20.445,12.816,20.710,56741.695,19259.007,79275.360
1512180457,11.700,4.900,-16.600,-12080.000,-57680.000,969180.000,-5000.000,3000.000,3000.000,0.727,-0.463,0.253,0.854,3.417,-15.254,56671.566,20308.903,79576.477
1512180457,6.700,7.900,-15.800,-11290.000,-87400.000,965940.000,-5000.000,3000.000,3000.000,-3.528,0.605,0.198,-17.801,16.701,24.649,56521.526,20308.689,79502.762
1512180457,5.200,7.600,-14.800,-8240.000,-66770.000,973750.000,-5000.000,3000.000,3000.000,1.817,-0.452,-0.793,0.157,4.868,-17.709,56521.526,20308.689,79502.762
1512180457,10.500,9.100,-16.200,-9340.000,-56210.000,962890.000,-5000.000,3000.000,3000.000,-1.398,0.610,0.231,-12.839,11.824,19.371,56445.370,20083.576,79203.293
1512180457,8.800,9.300,-16.900,-9160.000,-86430.000,949460.000,-5000.000,3000.000,3000.000,0.750,1.684,-0.799,-8.425,3.365,-14.672,56519.390,19858.677,79277.557
1512180457,13.800,8.700,-18.400,-7390.000,-61890.000,964600.000,12000.000,3000.000,23000.000,-4.591,0.610,0.188,-17.105,15.936,24.665,56520.077,20008.686,79277.618
1512180457,9.500,7.300,-19.300,-12700.000,-62070.000,955320.000,12000.000,3000.000,23000.000,3.965,-0.443,-1.824,6.503,1.686,-20.045,56444.958,19933.567,79728.226
1512180457,5.200,6.800,-20.200,-14590.000,-87280.000,944640.000,12000.000,3000.000,23000.000,-5.649,5.953,0.195,-28.761,13.240,18.861,56520.489,20083.683,79427.643
1512180457,3.200,2.500,-20.400,-7020.000,-66040.000,955320.000,12000.000,3000.000,23000.000,1.848,0.631,-1.845,6.123,3.618,-14.694,56520.596,20083.683,79652.649
1512180457,-2.900,0.800,-20.500,-15560.000,-85510.000,951110.000,12000.000,3000.000,23000.000,-2.438,0.620,-0.841,-14.908,14.458,21.762,56369.213,19783.451,79578.781
1512180457,-3.100,0.900,-19.800,-9220.000,-81480.000,972720.000,21000.000,15000.000,8000.000,-1.387,-1.514,0.235,-9.273,8.653,-0.801,56558.071,20083.736,79614.830
1512180457,-1.200,-1.200,-20.600,-3230.000,-73670.000,964900.000,21000.000,15000.000,8000.000,-1.382,0.092,0.244,-9.316,11.079,1.274,56444.599,19896.068,79353.203
1512180457,-0.400,0.700,-19.300,-11720.000,-84840.000,959170.000,21000.000,15000.000,8000.000,-0.289,-0.435,-0.805,-4.854,8.990,-2.545,56445.522,20121.067,79165.810
1512180457,-0.900,5.900,-20.100,-730.000,-72690.000,975160.000,21000.000,15000.000,8000.000,-0.305,0.629,0.264,-11.769,6.027,2.453,56631.954,19858.853,79389.092
1512180457,4.500,5.900,-20.900,-4210.000,-68480.000,967830.000,12000.000,7000.000,16000.000,-0.283,0.099,-0.268,-6.537,9.329,-5.138,56445.293,20046.070,79390.778
1512180457,3.200,5.100,-24.200,-11840.000,-81240.000,953430.000,12000.000,7000.000,16000.000,-0.823,-0.440,0.255,-8.269,10.637,-0.769,56483.494,20196.125,79428.017
1512180457,4.100,4.800,-26.800,-11110.000,-78550.000,968810.000,12000.000,7000.000,16000.000,0.762,0.098,1.881,-7.344,9.292,-2.825,56631.894,19858.845,79276.596
1512180457,7.500,1.600,-25.400,-14470.000,-69520.000,959530.000,12000.000,7000.000,16000.000,0.811,0.103,-0.785,-8.481,8.671,-1.628,56406.894,19858.509,79278.503
1512180457,3.700,-1.100,-26.800,-21000.000,-76900.000,953550.000,12000.000,7000.000,16000.000,1.356,0.640,-0.775,-8.797,10.397,-4.917,56444.660,19896.068,79465.705
1512180457,-2.400,2.700,-29.200,-17760.000,-88810.000,974240.000,3000.000,15000.000,-1000.000,-0.251,-0.964,0.264,-7.060,11.226,1.570,56594.616,19896.290,79389.435
1512180457,12.800,4.800,-27.200,-8120.000,-72390.000,955380.000,3000.000,15000.000,-1000.000,1.362,0.110,0.294,-8.905,6.609,-2.364,56518.833,19708.683,79502.480
1512180457,2.000,2.400,-27.200,-4030.000,-80930.000,963070.000,3000.000,15000.000,-1000.000,0.826,-3.096,0.275,-2.979,8.594,-3.718,56668.942,19746.403,79388.725
1512180458,4.000,2.800,-28.200,-9890.000,-101870.000,944340.000,3000.000,15000.000,-1000.000,2.942,-0.425,1.380,-7.938,2.775,-20.003,56364.971,18883.442,79203.369
1512180458,10.100,1.700,-29.300,-11410.000,-78800.000,970890.000,3000.000,15000.000,-1000.000,0.831,-1.491,0.281,-11.243,16.108,6.522,56593.792,19708.790,79426.834
1512180458,-5.300,-1.600,-30.800,-15380.000,-87340.000,984250.000,-7000.000,19000.000,11000.000,4.052,1.724,-0.726,-2.695,5.488,-25.279,56595.409,20083.790,79277.023
1512180458,12.800,4.000,-32.500,-17400.000,-92350.000,938480.000,-7000.000,19000.000,11000.000,-5.549,-1.489,0.192,-12.759,19.233,11.852,56443.493,19633.564,79503.082
1512180458,2.100,6.300,-32.600,-15380.000,-105290.000,972900.000,-7000.000,19000.000,11000.000,4.042,1.731,0.341,-15.237,2.508,-16.945,56591.732,19258.793,79351.639
1512180458,10.900,7.300,-33.600,-20320.000,-91430.000,983700.000,-7000.000,19000.000,11000.000,-0.201,0.663,-0.789,-16.873,16.814,8.859,56368.832,19708.454,79503.754
1512180458,-3.200,0.300,-35.600,-12080.000,-99850.000,978390.000,0.000,12000.000,5000.000,5.161,0.683,-1.774,3.507,6.439,-16.153,56520.412,20083.683,79277.649
1512180458,11.900,2.400,-35.800,-20810.000,-103760.000,937680.000,0.000,12000.000,5000.000,1.922,0.672,0.310,-12.666,19.275,5.287,56593.792,19708.790,79426.834
1512180458,3.900,2.500,-37.700,-26550.000,-128170.000,954040.000,0.000,12000.000,5000.000,3.011,2.816,-0.731,-13.140,3.230,-12.537,56518.383,19633.686,79277.451
1512180458,4.300,3.900,-38.500,-29970.000,-121150.000,972410.000,0.000,12000.000,5000.000,0.871,-1.461,-0.778,-4.295,15.874,-0.434,56744.396,19859.013,79275.635
1512180458,2.700,2.700,-41.800,-38940.000,-114690.000,984990.000,0.000,12000.000,5000.000,3.042,2.829,-1.791,-5.876,4.418,-9.011,56744.167,19784.016,79500.610
1512180458,0.300,2.500,-44.500,-18490.000,-114750.000,965880.000,5000.000,17000.000,10000.000,-18.883,-49.491,-33.209,38.766,-0.595,29.459,56595.898,20158.787,79577.042
1512180458,-3.700,0.800,-47.700,-23620.000,-122010.000,968930.000,5000.000,17000.000,10000.000,1.840,10.289,6.749,-24.053,23.003,-29.956,56747.051,20459.019,79200.912
1512180458,0.100,2.400,-48.500,-22340.000,-118410.000,949890.000,5000.000,17000.000,10000.000,6.171,0.694,2.517,-56.763,6.364,-11.268,56519.238,19783.680,79652.512
1512180458,15.800,6.300,-49.500,-31310.000,-133670.000,909910.000,5000.000,17000.000,10000.000,-0.039,-17.454,-10.430,52.551,-12.307,-13.950,56518.124,19558.674,79427.414
1512180458,-6.000,-1.600,-53.400,-30880.000,-140260.000,980830.000,5000.000,17000.000,10000.000,-0.165,9.240,-0.739,-0.265,-2.908,-5.023,56366.924,19258.457,79728.546
1512180458,5.100,3.200,-52.900,-41020.000,-118410.000,1005800.000,-5000.000,21000.000,-3000.000,7.259,3.910,1.485,-40.753,13.236,-17.823,56365.688,19033.451,79278.442
1512180458,6.800,5.600,-56.900,-44070.000,-121830.000,992000.000,-5000.000,21000.000,-3000.000,-0.186,-5.715,-0.790,8.774,7.268,13.404,56444.958,19933.567,79728.226
1512180458,8.100,6.900,-59.800,-28690.000,-119510.000,961430.000,-5000.000,21000.000,-3000.000,5.123,-1.431,1.439,-8.304,6.150,-17.314,56444.851,19933.567,79503.220
1512180458,-11.300,3.100,-62.600,-27470.000,-132260.000,974240.000,-5000.000,21000.000,-3000.000,-2.275,0.707,-1.855,-24.027,13.361,8.524,56593.166,19558.796,79501.770
1512180458,-4.500,5.900,-64.600,-36500.000,-126280.000,989990.000,-5000.000,14000.000,16000.000,3.032,1.781,-0.708,-15.267,5.874,-6.462,56369.061,19783.451,79278.793
1512180458,-12.700,2.400,-66.700,-40040.000,-132690.000,987180.000,-5000.000,14000.000,16000.000,1.960,-2.492,-0.737,-0.188,11.439,-2.305,56294.842,19933.338,79504.501
1512180458,9.900,6.700,-68.400,-41750.000,-133670.000,943910.000,-5000.000,14000.000,16000.000,-0.167,1.781,-0.750,-13.165,5.348,0.636,56219.173,19783.222,79505.066
1512180458,14.500,9.700,-71.100,-44130.000,-135130.000,916500.000,-5000.000,14000.000,16000.000,-2.272,2.856,-1.838,-13.053,15.309,8.206,56519.848,19933.674,79502.579
1512180458,-2.900,9.700,-78.800,-50960.000,-143620.000,951230.000,-5000.000,14000.000,16000.000,-0.176,0.189,0.319,-3.807,5.199,1.156,56482.426,19933.628,79652.901
1512180458,-1.100,6.000,-84.200,-37110.000,-149110.000,929570.000,-5000.000,17000.000,3000.000,1.442,2.333,-0.712,-9.418,6.532,-0.396,56480.435,19521.122,79390.213
1512180458,-8.900,6.100,-88.700,-51640.000,-135500.000,987370.000,-5000.000,17000.000,3000.000,0.359,-0.336,0.869,-3.026,2.720,4.940,56631.069,19671.352,79314.011
1512180458,7.300,6.300,-93.200,-59690.000,-129940.000,974670.000,-5000.000,17000.000,3000.000,1.426,1.269,0.893,-1.234,-4.469,0.692,56517.635,19446.178,79464.859
1512180458,1.300,8.000,-97.100,-42660.000,-127260.000,994870.000,-5000.000,17000.000,3000.000,1.939,0.196,1.964,-3.101,-16.421,1.742,56479.580,19333.622,79352.631
1512180458,20.400,10.900,-97.900,-44560.000,-109620.000,956420.000,-5000.000,17000.000,3000.000,1.903,-0.345,4.093,-6.907,-22.594,3.376,56443.836,19708.568,79503.113
1512180458,0.800,6.700,-99.200,-34610.000,-119380.000,965520.000,-1000.000,14000.000,20000.000,2.436,-0.875,4.630,-6.818,-25.291,-0.532,56442.783,19483.562,79428.017
1512180458,3.200,0.900,-103.100,-30880.000,-115050.000,940000.000,-1000.000,14000.000,20000.000,0.287,-0.885,4.583,-9.495,-22.181,10.515,56480.846,19596.119,79540.245
1512180458,-12.800,-0.300,-102.900,-45960.000,-125180.000,994200.000,-1000.000,14000.000,20000.000,1.380,0.194,3.535,-2.219,-22.641,-2.897,56368.626,19670.955,79428.734
1512180458,10.800,0.100,-106.700,-56400.000,-108090.000,934200.000,-1000.000,14000.000,20000.000,-1.316,-0.349,5.092,-6.192,-25.062,8.848,56218.800,19708.225,79430.031
1512180458,16.900,1.100,-109.100,-46750.000,-97110.000,927250.000,-31000.000,12000.000,8000.000,-0.268,0.185,6.176,-2.584,-26.200,4.998,56219.250,19783.229,79655.068
1512180458,11.700,5.500,-114.100,-53100.000,-115050.000,943910.000,-31000.000,12000.000,8000.000,-1.339,-0.351,6.158,-1.395,-26.625,8.308,56143.726,19670.620,79618.149
1512180458,14.200,5.100,-122.500,-31800.000,-88010.000,985840.000,-31000.000,12000.000,8000.000,-0.859,-0.358,8.830,-3.198,-26.797,6.931,56065.945,19070.499,79468.514
1512180459,29.000,7.100,-127.000,-31740.000,-72510.000,978580.000,-31000.000,12000.000,8000.000,-1.379,-2.494,7.749,-8.451,-26.308,17.192,55688.732,18582.432,79433.975
1512180459,-6.900,-0.900,-132.500,-27220.000,-96190.000,1004880.000,-31000.000,12000.000,8000.000,-0.307,-2.489,7.767,4.748,-29.398,2.058,55920.589,20082.783,79657.761
1512180459,22.500,7.500,-132.500,-40950.000,-84840.000,919070.000,-12000.000,14000.000,3000.000,-4.630,-2.505,10.901,-10.794,-24.079,16.435,55692.852,19482.441,79584.381
1512180459,20.400,14.000,-132.400,-51700.000,-119260.000,929080.000,-12000.000,14000.000,3000.000,-1.420,-2.499,9.881,-2.986,-26.934,3.162,55544.201,19782.215,79585.800
1512180459,25.600,12.900,-133.600,-43330.000,-79410.000,960690.000,-12000.000,14000.000,3000.000,-4.598,-2.500,8.770,-6.777,-23.064,14.567,55618.267,19557.331,79735.062
1512180459,23.000,8.800,-133.200,-40650.000,-78000.000,951170.000,-12000.000,14000.000,3000.000,-2.493,-0.367,9.871,-8.080,-26.971,7.476,55468.975,19707.111,79811.401
1512180459,12.500,5.900,-136.400,-30400.000,-71900.000,926270.000,-22000.000,14000.000,10000.000,-5.708,-1.440,10.888,-10.527,-22.833,11.342,55469.997,19932.102,79811.508
1512180459,16.400,14.200,-136.900,-44190.000,-106570.000,924500.000,-22000.000,14000.000,10000.000,-3.561,-2.502,9.849,-1.821,-30.357,4.175,55693.951,19707.447,79734.497
1512180459,22.100,22.900,-143.000,-26250.000,-80570.000,962950.000,-22000.000,14000.000,10000.000,-5.707,-3.571,10.882,-13.219,-22.586,18.370,55020.367,20006.428,79890.366
1512180459,9.300,15.600,-143.300,-15990.000,-76600.000,993590.000,-22000.000,14000.000,10000.000,-1.437,-2.492,10.949,0.229,-27.415,3.483,55244.061,19706.760,79963.318
1512180459,7.100,19.700,-147.000,-33390.000,-70620.000,896790.000,-22000.000,14000.000,10000.000,-6.781,-1.431,11.942,-13.746,-20.620,12.048,54869.015,19706.211,79891.510
1512180459,2.900,26.400,-148.600,-43400.000,-87220.000,955260.000,-26000.000,14000.000,6000.000,-0.397,-1.425,12.031,-0.115,-27.132,0.072,54569.027,19705.753,79894.058
1512180459,6.400,11.300,-146.500,-56460.000,-35400.000,994510.000,-26000.000,14000.000,6000.000,-6.810,-1.435,13.004,-12.744,-25.758,15.719,54346.050,20155.415,79896.179
1512180459,-5.300,-18.900,-144.100,-79280.000,-65610.000,1066470.000,-26000.000,14000.000,6000.000,-2.537,0.715,13.076,-5.381,-24.958,-3.171,54346.569,20230.427,80271.210
1512180459,22.500,-24.400,-137.800,-93570.000,-31130.000,954350.000,-26000.000,14000.000,6000.000,-10.003,-0.365,12.963,-10.627,-23.101,21.840,54045.406,20004.963,79973.648
1512180459,31.400,-22.100,-136.400,-79410.000,-60180.000,957520.000,-26000.000,14000.000,6000.000,-1.443,-1.414,10.951,-6.909,-26.909,2.902,53819.347,19779.621,79900.467
1512180459,25.200,-30.600,-137.700,-84840.000,-44490.000,1043270.000,-21000.000,-1000.000,15000.000,-4.677,-0.354,13.039,-9.671,-21.820,9.438,53368.114,19478.947,80129.150
1512180459,-1.500,-38.600,-146.100,-28930.000,-11780.000,934880.000,-21000.000,-1000.000,15000.000,-2.548,-1.417,13.066,-4.929,-29.832,5.366,53669.994,19854.404,80501.770
1512180459,33.400,-35.000,-145.500,-64700.000,-58780.000,877750.000,-21000.000,-1000.000,15000.000,-0.416,-1.411,13.097,-6.534,-25.442,1.205,53143.383,19553.623,79981.094
1512180459,11.300,-52.500,-152.300,-19710.000,-44010.000,985410.000,-21000.000,-1000.000,15000.000,2.798,-0.335,12.081,0.112,-27.109,-18.661,53369.579,19778.950,80354.279
1512180459,-31.400,-54.900,-154.600,-28140.000,-34420.000,989690.000,-29000.000,3000.000,13000.000,-8.879,4.999,9.800,-29.010,-15.056,17.669,52917.995,19478.275,79907.974
1512180459,-5.200,-35.300,-153.800,-23560.000,-41140.000,948790.000,-29000.000,3000.000,13000.000,-5.699,-0.336,10.894,3.961,-19.673,13.076,53144.955,19853.611,80431.244
1512180459,-8.500,-19.800,-151.900,-12450.000,-35400.000,969120.000,-29000.000,3000.000,13000.000,-9.996,-1.413,12.961,-7.214,-21.244,24.827,52994.167,19703.388,80207.443
1512180459,-34.000,-29.400,-149.100,-14160.000,-44190.000,1031010.000,-29000.000,3000.000,13000.000,1.743,-0.327,12.068,-3.771,-29.429,-8.988,52770.168,19928.059,80209.457
1512180459,-27.000,-24.400,-145.900,-12760.000,-28870.000,991460.000,-29000.000,3000.000,13000.000,-8.912,2.862,11.925,-18.818,-19.328,18.330,52467.129,19252.598,80211.685
1512180459,-9.500,-14.400,-143.400,-9950.000,-18250.000,989810.000,-28000.000,-1000.000,-1000.000,-3.543,-1.399,9.855,3.362,-21.024,2.599,52619.503,19777.821,80210.663
1512180459,-21.700,-6.500,-143.800,-3720.000,-32960.000,984990.000,-28000.000,-1000.000,-1000.000,-4.076,-0.333,11.352,-7.031,-20.843,3.899,52279.957,19364.818,79838.333
1512180459,-19.400,0.500,-145.400,-6710.000,-35890.000,972170.000,-28000.000,-1000.000,-1000.000,-3.454,-0.327,9.378,-12.888,-25.790,5.263,52356.205,19702.434,79312.859
1512180459,-21.700,-1.300,-148.700,-20390.000,-62010.000,944820.000,-28000.000,-1000.000,-1000.000,-4.490,-1.936,10.585,-7.829,-27.674,13.389,52391.232,19177.486,79087.296
1512180459,-8.800,1.500,-146.300,-9030.000,-39120.000,947200.000,-28000.000,-1000.000,-1000.000,-2.216,0.750,6.012,-7.304,-29.138,5.238,52238.499,18614.750,78675.819
1512180459,-12.700,-0.700,-144.300,-25330.000,-47000.000,955990.000,-38000.000,1000.000,8000.000,-3.226,1.818,4.316,-24.165,-27.388,7.774,52988.804,18728.375,78256.996
1512180459,-4.400,4.100,-145.900,-37170.000,-52310.000,922060.000,-38000.000,1000.000,8000.000,-2.595,-0.840,0.053,-1.667,-21.216,4.990,53362.599,18503.940,77878.707
1512180459,7.100,9.500,-143.000,-27100.000,-35340.000,930050.000,-38000.000,1000.000,8000.000,-7.409,0.211,2.117,-18.108,-24.584,16.183,54037.883,18617.458,77423.020
1512180459,10.500,12.500,-143.700,-18980.000,-52190.000,930790.000,-38000.000,1000.000,8000.000,-3.051,1.292,-1.546,-12.962,-20.667,7.877,54561.496,18355.739,77005.943
1512180459,11.600,15.000,-142.500,-17760.000,-47180.000,915770.000,-26000.000,3000.000,3000.000,-2.453,3.428,-4.197,-13.890,-24.080,1.167,55010.746,18206.417,76852.051
1512180459,0.900,15.200,-143.900,-3780.000,-58110.000,943240.000,-26000.000,3000.000,3000.000,-3.501,4.496,-3.142,-16.685,-25.576,-1.686,55760.716,18207.539,76770.676
1512180459,11.100,19.800,-141.000,2260.000,-45590.000,963440.000,-26000.000,3000.000,3000.000,0.830,1.838,-5.220,-6.845,-23.971,-13.457,56135.037,18058.102,76767.425
1512180459,8.100,20.100,-139.700,-34730.000,-30150.000,974060.000,-26000.000,3000.000,3000.000,-1.251,2.368,-6.849,-21.427,-26.605,-2.366,56396.435,17870.991,76240.105
1512180460,-17.400,14.400,-141.900,-51880.000,-34480.000,989560.000,-26000.000,3000.000,3000.000,-3.832,0.768,-10.625,-21.090,-23.324,-1.130,56882.427,17534.214,76273.300
1512180460,-9.900,13.700,-142.100,-68180.000,-33080.000,999630.000,-33000.000,0.000,0.000,0.490,-1.353,-12.700,-6.094,-23.122,-9.899,57111.263,18359.562,76496.780
1512180460,-2.900,10.400,-145.400,-47610.000,-25880.000,1007020.000,-33000.000,0.000,0.000,-5.926,-4.572,-10.672,-11.265,-22.558,25.094,57184.795,18059.681,76270.996
1512180460,30.600,19.300,-146.700,-65550.000,-28500.000,923830.000,-33000.000,0.000,0.000,0.520,5.058,-11.609,-13.090,-22.816,-15.840,57335.369,18134.907,76719.757
1512180460,1.300,12.700,-151.700,-60000.000,-30880.000,987180.000,-33000.000,0.000,0.000,-2.616,5.056,-14.855,-29.269,-34.438,3.617,57484.844,18060.123,76343.445
1512180460,-2.300,-0.100,-151.000,-41440.000,-43640.000,957210.000,-40000.000,0.000,6000.000,-5.768,0.780,-17.049,-14.548,-22.837,9.706,57560.513,18210.239,76342.880
1512180460,-2.400,-12.100,-149.400,-39490.000,-36870.000,923650.000,-40000.000,0.000,6000.000,-4.706,3.987,-14.888,-14.520,-33.917,18.460,57785.259,18135.578,76490.936
1512180460,12.400,-7.100,-143.400,-46450.000,-31310.000,952390.000,-40000.000,0.000,6000.000,3.923,15.755,-20.056,-18.116,-13.856,-27.845,57635.586,18210.346,76492.249
1512180460,2.100,-5.900,-140.200,-38020.000,-32960.000,964660.000,-40000.000,0.000,6000.000,1.724,3.996,-14.796,-18.697,-23.527,-11.796,57634.457,17985.355,76267.136
1512180460,-16.800,-2.300,-141.400,-21240.000,-43950.000,968260.000,-40000.000,0.000,6000.000,-8.814,8.262,-21.332,-9.062,-18.136,31.711,57632.915,17610.340,76566.956
1512180460,6.500,1.100,-141.100,-19710.000,-47790.000,952880.000,-31000.000,1000.000,15000.000,1.804,1.862,-18.003,-11.188,-22.474,-12.671,57784.237,17910.572,76490.829
1512180460,11.500,10.000,-140.200,-18130.000,-53100.000,916690.000,-31000.000,1000.000,15000.000,-7.742,9.330,-19.180,-13.359,-20.701,8.486,57484.509,17985.126,76343.414
1512180460,14.200,8.100,-141.700,-18430.000,-47300.000,956180.000,-31000.000,1000.000,15000.000,-0.312,3.997,-15.892,-8.644,-25.108,-4.127,57635.220,18135.349,76417.206
1512180460,-5.200,1.100,-143.800,-29540.000,-41200.000,940000.000,-31000.000,1000.000,15000.000,-4.517,7.193,-19.144,1.824,-23.011,1.156,57408.566,17760.014,76493.942
1512180460,3.900,1.100,-143.100,-34850.000,-58170.000,936890.000,-31000.000,1000.000,15000.000,-7.729,3.982,-17.069,-11.166,-27.035,13.843,57783.825,17835.575,76340.790
1512180460,22.200,7.700,-141.800,-62440.000,-41500.000,969670.000,-38000.000,8000.000,15000.000,-3.421,6.130,-18.064,-12.968,-22.239,10.172,57485.546,18210.133,76418.518
1512180460,6.800,-2.000,-141.000,-53650.000,-32350.000,1001950.000,-38000.000,8000.000,15000.000,-5.520,2.923,-19.172,-12.233,-24.737,3.834,57260.250,18134.785,76495.392
1512180460,-16.800,-4.700,-139.700,-29660.000,-40950.000,962590.000,-38000.000,8000.000,15000.000,-2.276,1.867,-20.193,0.843,-19.213,2.594,58010.281,18210.911,75889.053
1512180460,5.500,8.800,-138.000,-46570.000,-42360.000,922180.000,-38000.000,8000.000,15000.000,-4.384,2.927,-21.289,-21.866,-22.531,16.111,58083.492,17836.033,75663.239
1512180460,9.100,10.100,-138.400,-10800.000,-54570.000,956600.000,-52000.000,15000.000,8000.000,-0.105,0.796,-21.236,-9.319,-24.291,5.093,57935.558,18210.804,76414.688
1512180460,-5.600,-4.100,-138.800,-8730.000,-54990.000,986450.000,-52000.000,15000.000,8000.000,-2.168,4.007,-23.384,-19.815,-23.648,0.543,57857.357,17535.679,76115.021
1512180460,-12.300,-5.900,-137.400,-20080.000,-32530.000,970340.000,-52000.000,15000.000,8000.000,-0.023,4.008,-23.354,-12.801,-27.124,-1.049,58161.037,18286.137,76712.814
1512180460,-7.100,3.600,-137.700,-19840.000,-57250.000,953120.000,-52000.000,15000.000,8000.000,-6.416,2.929,-22.385,-22.568,-24.850,25.820,58237.057,18511.250,76712.280
1512180460,-1.300,9.100,-136.000,-29420.000,-44560.000,941830.000,-52000.000,15000.000,8000.000,-1.068,0.802,-22.314,-11.820,-27.027,4.560,58385.967,18286.472,76560.898
1512180460,-10.300,15.400,-139.200,-5370.000,-42660.000,961670.000,-63000.000,-1000.000,11000.000,-4.176,1.874,-26.620,-21.566,-29.098,17.317,58611.156,18361.820,76259.033
1512180460,-8.400,18.400,-136.500,7510.000,-54020.000,933110.000,-63000.000,-1000.000,11000.000,1.192,-0.250,-27.614,-8.278,-30.774,-9.282,58836.605,18437.153,76482.147
1512180460,-3.100,10.100,-133.600,-17090.000,-54320.000,938600.000,-63000.000,-1000.000,11000.000,0.137,0.281,-28.695,-20.900,-33.796,7.812,58725.071,18624.485,76745.689
1512180460,2.000,6.100,-128.200,-47490.000,-11780.000,992980.000,-63000.000,-1000.000,11000.000,1.218,-1.851,-29.754,-22.371,-31.759,5.720,58876.178,18849.712,76932.015
1512180460,-1.700,-3.600,-125.200,-32410.000,-10130.000,1016300.000,-63000.000,-1000.000,11000.000,2.354,-1.304,-33.464,-21.128,-27.515,1.600,58839.192,18924.664,77269.867
1512180460,-34.400,-20.400,-123.000,-36990.000,-54630.000,1017940.000,-49000.000,8000.000,1000.000,0.793,-4.511,-36.700,-20.284,-26.377,7.114,58314.976,19073.872,77499.397
1512180460,12.000,-17.300,-115.800,-39670.000,-7390.000,978390.000,-49000.000,8000.000,1000.000,1.930,-5.035,-40.949,-25.866,-27.003,6.190,58427.868,19111.538,77948.455
1512180460,-14.900,-28.000,-120.000,-30090.000,-57130.000,1016480.000,-49000.000,8000.000,1000.000,4.146,-3.948,-45.174,-23.225,-29.410,0.401,57940.670,19148.311,78215.111
1512180460,-20.000,-33.300,-122.200,-18490.000,-30270.000,1010010.000,-49000.000,8000.000,1000.000,6.873,-2.871,-49.396,-20.843,-29.712,-4.062,57942.730,19598.317,78290.329
1512180460,-10.100,-38.700,-120.900,-13430.000,-21970.000,997920.000,-43000.000,7000.000,-3000.000,6.363,-3.935,-50.472,-33.547,-27.677,-11.310,57381.001,19747.471,78482.674
1512180460,2.100,-58.500,-116.500,-6900.000,-37290.000,954960.000,-43000.000,7000.000,-3000.000,7.505,-0.723,-55.243,-24.834,-26.486,-4.346,57493.725,19747.639,78931.717
1512180460,1.500,-67.500,-112.500,-3970.000,-28440.000,934270.000,-43000.000,7000.000,-3000.000,7.517,-1.790,-56.314,-26.702,-27.681,-9.733,57380.810,19634.968,79120.110
1512180460,-2.500,-63.400,-109.900,-21970.000,-33510.000,955870.000,-43000.000,7000.000,-3000.000,5.992,-4.986,-60.610,-29.494,-25.424,-6.841,57007.161,19934.406,79123.444
1512180460,-13.700,-53.500,-113.300,-850.000,-6770.000,1016360.000,-43000.000,7000.000,-3000.000,7.654,-4.445,-64.850,-20.658,-27.079,-8.030,56630.558,19596.348,78976.471
1512180461,-11.200,-34.500,-110.000,4150.000,-32350.000,974730.000,-56000.000,-5000.000,-5000.000,5.027,-5.511,-67.023,-13.976,-29.825,1.686,56520.702,20158.680,79202.682
1512180461,3.200,-39.300,-100.300,-2010.000,-33870.000,935060.000,-56000.000,-5000.000,-5000.000,10.352,-6.566,-65.880,-29.837,-22.788,-7.061,56670.818,20158.909,79426.407
1512180461,-2.000,-67.900,-98.400,20510.000,-39000.000,945980.000,-56000.000,-5000.000,-5000.000,1.871,-5.508,-69.200,-33.568,-28.217,3.846,56594.769,19933.796,79351.944
1512180461,-14.400,-54.700,-90.800,5130.000,-19470.000,982480.000,-56000.000,-5000.000,-5000.000,9.363,-10.834,-71.242,5.827,-21.594,-13.779,56594.738,19933.796,79276.947
1512180461,-25.000,-38.600,-94.000,41260.000,-9520.000,1002080.000,-56000.000,-5000.000,-5000.000,5.099,-7.637,-71.293,-40.088,-40.501,15.438,56367.672,19483.448,79203.644
1512180461,-4.900,-10.400,-94.000,31130.000,-21000.000,962280.000,-72000.000,-10000.000,3000.000,10.462,-9.761,-73.355,-17.256,-21.156,-5.119,56294.735,19933.338,79279.495
1512180461,12.100,-1.100,-97.300,49620.000,-57130.000,950380.000,-72000.000,-10000.000,3000.000,5.147,-5.498,-74.485,-27.108,-34.123,6.408,56445.858,20158.573,79503.326
1512180461,6.100,1.900,-94.400,29170.000,-36070.000,982360.000,-72000.000,-10000.000,3000.000,11.538,-6.551,-73.326,-18.169,-26.782,-16.808,56594.357,19858.784,79201.904
1512180461,-12.000,-2.000,-94.800,20200.000,-44980.000,927980.000,-72000.000,-10000.000,3000.000,6.264,-5.484,-76.597,-18.847,-29.784,12.643,56446.087,20233.570,79278.366
1512180461,0.300,12.900,-89.500,16660.000,-28320.000,899600.000,-49000.000,-19000.000,-1000.000,10.504,-0.143,-75.453,-23.300,-28.334,-15.430,56446.087,20233.570,79278.366
1512180461,11.600,23.200,-80.700,3050.000,-40530.000,909790.000,-49000.000,-19000.000,-1000.000,3.039,0.911,-75.559,-31.555,-34.768,-6.078,56521.160,20233.677,79427.719
1512180461,4.100,22.200,-78.400,16360.000,-21480.000,943360.000,-49000.000,-19000.000,-1000.000,4.139,-2.280,-76.615,-19.522,-21.924,-0.267,56522.961,20683.689,78977.936
1512180461,-3.600,15.600,-69.500,3110.000,-15500.000,998780.000,-49000.000,-19000.000,-1000.000,3.050,-0.151,-75.559,-26.357,-36.419,-0.141,56822.735,20609.135,79200.348
1512180461,-10.100,1.500,-68.600,16850.000,-34420.000,943660.000,-49000.000,-19000.000,-1000.000,6.293,-8.686,-78.740,-8.908,-24.288,-6.416,56672.100,20458.912,79276.550
1512180461,8.700,2.500,-66.600,-11960.000,-46450.000,906070.000,-59000.000,-22000.000,8000.000,0.961,-6.560,-78.811,-10.945,-30.484,2.810,56970.821,20159.351,79423.859
1512180461,5.700,12.800,-65.600,-4390.000,-28810.000,942020.000,-59000.000,-22000.000,8000.000,2.014,-3.355,-77.718,-19.414,-26.691,0.745,56519.924,20008.686,78977.615
1512180461,-17.800,6.700,-66.800,10380.000,-46810.000,1033570.000,-59000.000,-22000.000,8000.000,5.251,-4.411,-79.806,-17.435,-32.124,0.766,56597.057,20458.790,79202.194
1512180461,-16.000,2.500,-67.500,33260.000,-12080.000,942930.000,-59000.000,-22000.000,8000.000,4.255,-3.337,-84.081,-22.138,-22.757,3.885,56897.732,20609.241,79199.707
1512180461,-10.900,-4.100,-64.800,4030.000,-27340.000,962280.000,-65000.000,-14000.000,0.000,4.239,-3.338,-83.015,-20.970,-28.930,-8.530,56371.685,20383.457,79129.074
1512180461,11.300,-1.500,-59.900,23990.000,-32410.000,895080.000,-65000.000,-14000.000,0.000,1.070,-7.613,-85.209,-13.481,-21.308,-0.593,56223.339,20758.244,79055.511
1512180461,2.800,4.800,-58.200,15630.000,-27650.000,960570.000,-65000.000,-14000.000,0.000,-1.057,-8.689,-86.312,-45.438,-32.238,7.923,56143.490,19708.118,78830.658
1512180461,-12.700,7.500,-57.500,21420.000,-34730.000,978330.000,-65000.000,-14000.000,0.000,-2.112,-12.956,-86.339,0.450,-9.672,9.669,56148.449,20758.121,79281.158
1512180461,-10.500,12.900,-52.700,6230.000,-17580.000,973210.000,-65000.000,-14000.000,0.000,4.299,-10.809,-87.305,-18.127,-33.960,-10.360,56372.738,20608.463,79204.163
1512180461,9.900,15.600,-48.600,790.000,-16660.000,908510.000,-61000.000,-7000.000,6000.000,-6.342,-14.027,-88.537,-19.828,-20.089,-1.571,56148.556,20758.121,79506.149
1512180461,0.000,13.600,-46.900,-19960.000,-47300.000,949280.000,-61000.000,-7000.000,6000.000,1.157,-11.874,-90.552,-39.229,-31.760,2.758,56147.839,20608.112,79431.076
1512180461,-4.000,9.600,-49.000,16720.000,-180.000,962520.000,-61000.000,-7000.000,6000.000,4.400,-10.791,-92.631,-18.901,-21.890,-25.137,56148.144,20683.125,79356.110
1512180461,-6.700,13.200,-48.900,-30270.000,-43880.000,947940.000,-61000.000,-7000.000,6000.000,1.746,-11.332,-93.739,-20.087,-25.380,-8.204,56261.937,20983.287,79242.798
1512180461,3.200,10.500,-49.900,-27590.000,-38510.000,932370.000,-61000.000,-7000.000,6000.000,3.965,-8.114,-99.027,-20.240,-19.348,-9.868,56147.915,20645.618,79243.599
1512180461,4.400,5.100,-47.000,-31620.000,-22580.000,1017880.000,-68000.000,-24000.000,10000.000,2.364,-7.050,-99.047,-40.604,-21.528,-2.492,56260.700,20720.791,79130.180
1512180461,-15.600,-13.300,-50.900,-31130.000,-21180.000,966190.000,-68000.000,-24000.000,10000.000,7.762,-4.895,-102.691,-19.524,-22.331,-14.314,56074.108,20908.008,79244.362
1512180461,-4.900,-20.200,-47.500,-11290.000,-36620.000,925050.000,-68000.000,-24000.000,10000.000,7.247,-3.829,-104.296,-34.497,-15.845,-1.024,56073.857,20833.012,79431.824
1512180461,2.400,-28.800,-44.100,-37170.000,-48460.000,956300.000,-68000.000,-24000.000,10000.000,12.629,-1.675,-106.873,-18.729,-19.133,-3.828,56074.009,20870.510,79394.340
1512180461,5.900,-23.000,-42.700,-21730.000,-42300.000,973510.000,-56000.000,-12000.000,1000.000,14.794,2.071,-108.427,-29.183,-18.604,2.194,56526.264,21396.191,79165.764
1512180461,-2.000,-22.200,-37.400,7020.000,-57070.000,949160.000,-56000.000,-12000.000,1000.000,14.258,0.468,-108.442,-22.134,-18.710,2.763,56151.073,21320.630,79468.911
1512180461,-3.700,-27.200,-36.200,23990.000,-33940.000,941530.000,-56000.000,-12000.000,1000.000,19.618,-2.196,-111.041,-11.764,-33.900,6.640,56451.748,21471.081,79466.431
1512180461,4.900,-36.100,-34.500,33510.000,-52860.000,896060.000,-56000.000,-12000.000,1000.000,18.047,-8.601,-112.684,-22.179,-1.521,-15.291,56339.245,21470.913,79467.384
1512180461,16.100,-35.700,-32.100,27280.000,-38270.000,915280.000,-56000.000,-12000.000,1000.000,14.873,-7.002,-114.324,-9.126,-3.327,-20.202,56487.690,21133.632,79390.961
1512180461,10.700,-41.400,-29.200,8180.000,-46510.000,985170.000,-45000.000,-15000.000,-5000.000,12.193,0.470,-112.736,-19.256,-12.303,-31.349,56376.179,21358.463,79354.515
1512180462,2.700,-52.600,-29.000,1890.000,-23320.000,983460.000,-45000.000,-15000.000,-5000.000,7.972,7.413,-114.905,-29.134,-23.461,-40.667,56752.575,21659.031,79426.468
1512180462,21.700,-46.300,-23.300,-730.000,-28500.000,943790.000,-45000.000,-15000.000,-5000.000,0.465,0.985,-112.906,-53.640,-6.424,0.122,56377.117,21583.469,79204.620
1512180462,-4.100,-50.500,-22.800,32170.000,-9160.000,981380.000,-45000.000,-15000.000,-5000.000,-0.559,-1.144,-115.058,-46.307,-21.211,21.154,56378.017,21733.463,79654.694
1512180462,4.000,-66.600,-18.800,850.000,-24960.000,991030.000,-45000.000,-15000.000,-5000.000,4.820,-1.132,-118.179,-14.601,-3.233,10.481,56378.170,21808.475,79279.724
1512180462,-3.200,-77.400,-17.800,-2260.000,-430.000,989620.000,-72000.000,-21000.000,23000.000,2.610,-1.148,-113.949,-20.138,-5.038,12.821,56226.482,21433.247,79280.823
1512180462,-1.300,-78.400,-17.200,31430.000,-15080.000,939700.000,-72000.000,-21000.000,23000.000,7.971,5.277,-114.912,-57.543,2.385,11.503,56379.299,22033.466,79504.837
1512180462,9.300,-75.400,-16.600,-2440.000,-43580.000,956730.000,-72000.000,-21000.000,23000.000,14.450,-2.179,-120.174,-23.096,-8.997,-14.522,56530.376,22258.701,79653.656
1512180462,5.100,-70.400,-17.800,31860.000,-26370.000,933410.000,-72000.000,-21000.000,23000.000,11.248,-7.525,-120.239,15.634,9.753,-16.810,56154.858,22183.125,79281.815
1512180462,1.100,-74.300,-11.900,37840.000,-24600.000,927120.000,-75000.000,-24000.000,6000.000,13.341,-8.596,-118.081,-40.978,-1.552,-8.458,56379.971,22183.475,79504.898
1512180462,-21.600,-79.100,-14.500,48030.000,-18070.000,1017460.000,-75000.000,-24000.000,6000.000,12.401,-10.724,-126.634,-28.765,15.271,10.760,55853.436,21882.679,79134.216
1512180462,-13.600,-65.000,-13.000,64450.000,5490.000,988650.000,-75000.000,-24000.000,6000.000,19.862,-8.570,-125.448,-3.526,2.533,-12.483,55779.293,22032.566,79509.933
1512180462,11.500,-43.500,-8.700,72270.000,-9830.000,966550.000,-75000.000,-24000.000,6000.000,18.765,-7.506,-123.328,-41.844,5.234,-6.761,56305.828,22408.360,79205.643
1512180462,49.400,-22.200,-8.300,68730.000,-33870.000,1013610.000,-75000.000,-24000.000,6000.000,20.900,-13.915,-124.387,-24.610,2.494,-10.389,55930.386,22257.801,79658.752
1512180462,5.700,-37.000,-5.300,69820.000,-26060.000,985350.000,-77000.000,-22000.000,-1000.000,23.108,-7.493,-128.597,-28.806,11.848,-18.229,55929.592,22107.792,79433.685
1512180462,13.600,-28.100,-1.300,86300.000,-39980.000,971680.000,-77000.000,-22000.000,-1000.000,17.769,-8.574,-128.681,-59.106,1.449,-22.375,56003.963,21957.905,79507.980
1512180462,15.400,-0.700,-1.500,70430.000,-54810.000,909730.000,-77000.000,-22000.000,-1000.000,17.852,-6.423,-132.933,-51.356,21.010,-4.940,55630.352,22257.343,79586.304
1512180462,0.100,19.700,-2.700,101380.000,-51450.000,927860.000,-77000.000,-22000.000,-1000.000,24.282,-2.138,-134.958,-25.315,7.771,-37.682,55628.170,21807.346,79286.102
1512180462,0.700,23.400,-3.700,49680.000,-71350.000,985780.000,-77000.000,-22000.000,-1000.000,16.768,-7.495,-131.887,-38.873,12.828,2.047,55705.944,22407.459,79435.730
1512180462,-17.000,27.200,-5.200,63660.000,-56520.000,980470.000,-56000.000,-29000.000,-1000.000,16.814,-8.560,-135.089,-49.139,5.799,5.280,55630.199,22257.343,79286.316
1512180462,17.600,28.400,-0.500,13610.000,-63170.000,921570.000,-56000.000,-29000.000,-1000.000,22.165,-4.277,-136.063,-38.110,13.732,1.078,55706.585,22557.453,79360.809
1512180462,5.600,21.700,2.400,29970.000,-56400.000,935550.000,-56000.000,-29000.000,-1000.000,19.083,-5.331,-142.504,-33.028,-5.476,4.783,55405.483,22332.005,79213.257
1512180462,23.800,28.800,6.400,2080.000,-38820.000,937190.000,-56000.000,-29000.000,-1000.000,16.917,-8.548,-141.485,-54.177,8.931,16.162,55483.791,23007.130,79737.930
1512180462,19.300,17.000,7.500,-5490.000,-45530.000,982910.000,-56000.000,-26000.000,15000.000,18.079,-7.464,-146.793,-20.685,-1.637,9.851,55482.037,22632.130,79587.753
1512180462,8.000,17.400,6.300,980.000,-69520.000,979310.000,-56000.000,-26000.000,15000.000,19.124,-4.263,-145.701,-23.402,3.355,9.796,55480.984,22407.124,79512.650
1512180462,21.200,17.700,-1.500,8300.000,-41020.000,940000.000,-56000.000,-26000.000,15000.000,21.797,-3.190,-146.192,-50.259,3.542,6.800,55144.481,22631.611,79478.119
1512180462,1.900,10.500,-1.600,16110.000,-55540.000,960880.000,-56000.000,-26000.000,15000.000,19.710,-5.324,-148.895,-21.968,-0.409,-20.421,55446.102,23007.069,79363.243
1512180462,18.400,7.500,-0.400,31310.000,-53040.000,928710.000,-56000.000,-26000.000,15000.000,15.469,-8.528,-150.031,-40.262,0.756,-2.445,55257.366,22744.282,79252.212
1512180462,33.700,0.900,4.800,44980.000,-45530.000,936040.000,-68000.000,-17000.000,3000.000,10.213,-8.526,-154.371,-27.213,-1.094,6.660,55296.123,23044.339,79064.537
1512180462,15.800,-0.700,9.500,19350.000,-73000.000,955320.000,-68000.000,-17000.000,3000.000,13.525,-6.910,-161.782,-49.966,7.444,6.804,55183.964,23119.175,79065.529
1512180462,4.900,11.100,14.900,37110.000,-14470.000,1031740.000,-68000.000,-17000.000,3000.000,20.433,-3.695,-160.071,-37.658,4.773,-8.604,55334.584,23269.405,78951.821
1512180462,27.700,45.900,14.100,68660.000,-20260.000,1010440.000,-68000.000,-17000.000,3000.000,21.084,-1.543,-166.983,-46.029,10.925,-15.454,55221.760,23231.732,78652.771
1512180462,49.800,77.100,20.400,56460.000,-35640.000,1053530.000,-42000.000,-29000.000,-1000.000,22.169,-10.623,-169.133,-34.339,13.617,-5.539,55485.141,23419.629,78725.624
1512180462,35.600,69.400,22.900,128970.000,-16910.000,860290.000,-42000.000,-29000.000,-1000.000,18.517,-6.344,-173.434,-55.177,-0.895,9.441,55372.944,23494.458,78651.619
1512180462,-2.700,39.900,14.200,104550.000,-63720.000,1082580.000,-42000.000,-29000.000,-1000.000,26.559,-3.121,-175.971,-27.255,9.547,-7.410,55485.737,23569.630,78575.691
1512180462,-53.100,24.500,15.300,-4640.000,-94120.000,973210.000,-42000.000,-29000.000,-1000.000,21.776,-5.798,-177.117,-32.162,5.180,2.470,55335.705,23531.903,78839.447
1512180462,-14.000,31.600,23.700,-14590.000,-38880.000,919010.000,-42000.000,-29000.000,-1000.000,25.528,-8.991,-178.138,-23.915,-7.896,-3.280,55636.120,23644.855,78649.452
1512180462,5.900,16.000,23.700,-20020.000,-79770.000,911250.000,-57000.000,-38000.000,6000.000,21.233,-14.877,-176.621,-37.014,-2.374,7.241,55822.963,23495.136,78685.288
1512180463,6.300,-4.300,28.600,7140.000,-53100.000,924740.000,-57000.000,-38000.000,6000.000,30.343,-22.332,-179.713,1.304,-12.189,-22.858,56086.651,23758.030,78683.182
1512180463,9.100,-23.700,28.000,11660.000,-74520.000,946040.000,-57000.000,-38000.000,6000.000,23.889,-18.080,-176.596,-15.299,4.146,7.845,55862.926,24057.697,78535.233
1512180463,6.000,-20.600,28.500,-14830.000,-77940.000,916200.000,-57000.000,-38000.000,6000.000,23.843,-22.361,-174.481,-53.724,-13.317,-11.770,56012.020,23832.920,78758.850
1512180463,5.500,-30.500,24.200,37540.000,-103940.000,911990.000,-42000.000,-26000.000,1000.000,28.144,-21.281,-176.547,-8.181,0.487,-9.065,55487.240,23907.124,78538.361
1512180463,12.800,-44.600,24.100,39000.000,-96560.000,917910.000,-42000.000,-26000.000,1000.000,30.253,-18.072,-174.370,-8.925,-6.235,-23.189,56082.821,22933.018,78457.794
1512180463,8.400,-43.900,29.400,27770.000,-105040.000,946900.000,-42000.000,-26000.000,1000.000,20.678,-17.017,-175.572,-48.248,3.933,-3.314,55864.376,24357.700,78760.361
1512180463,10.300,-43.700,32.200,20750.000,-98140.000,934270.000,-42000.000,-26000.000,1000.000,13.197,-19.168,-174.622,-18.135,-30.712,16.599,56164.715,24433.140,78757.843
1512180463,16.400,-41.000,35.800,47670.000,-87520.000,991270.000,-42000.000,-26000.000,1000.000,28.202,-19.137,-179.736,-21.896,2.652,-16.518,56088.345,24133.030,78683.350
1512180463,26.100,-40.500,40.600,55660.000,-88500.000,987920.000,-63000.000,-26000.000,-1000.000,17.477,-14.888,-175.612,-70.490,-16.966,30.672,55937.923,24057.804,78534.592
1512180463,-2.900,-64.000,45.300,56950.000,-81480.000,989810.000,-63000.000,-26000.000,-1000.000,31.316,-17.005,-174.352,-43.027,4.215,-14.889,56086.620,23758.030,78608.185
1512180463,9.600,-74.700,50.900,21790.000,-64580.000,1019650.000,-63000.000,-26000.000,-1000.000,20.724,-23.421,-178.792,-18.881,-2.576,-14.252,56013.943,24282.917,78534.058
1512180463,16.900,-88.800,54.700,64150.000,-75740.000,982060.000,-63000.000,-26000.000,-1000.000,22.880,-18.073,-179.807,-40.556,3.279,-4.578,56014.538,24432.911,78384.140
1512180463,18.900,-85.400,55.800,60970.000,-78610.000,962340.000,-63000.000,-26000.000,-1000.000,17.628,-10.588,-183.051,-61.266,-14.789,16.741,56315.090,24508.366,78831.604
1512180463,13.200,-78.700,51.900,66040.000,-84960.000,963810.000,-47000.000,-28000.000,0.000,24.001,-11.657,-182.968,-43.451,10.914,1.716,56238.934,24283.253,78532.150
1512180463,20.900,-67.800,51.000,82890.000,-79220.000,906980.000,-47000.000,-28000.000,0.000,16.578,-17.002,-185.224,-28.655,-5.158,12.403,56240.017,24508.259,78682.251
1512180463,-0.800,-60.600,43.900,101380.000,-103390.000,953860.000,-47000.000,-28000.000,0.000,29.313,-14.862,-182.906,-35.795,-2.860,-8.160,56091.412,24808.033,78758.667
1512180463,28.900,-44.700,43.900,114140.000,-86120.000,929080.000,-47000.000,-28000.000,0.000,14.438,-14.874,-185.251,-68.554,-10.026,25.425,55861.431,23757.694,78235.092
1512180463,47.400,-22.100,44.300,128970.000,-91920.000,1004520.000,-57000.000,-21000.000,-6000.000,17.705,-22.336,-189.492,-35.045,-0.959,27.928,56016.644,24882.923,78534.348
1512180463,32.200,-36.600,47.700,132450.000,-78250.000,936950.000,-57000.000,-21000.000,-6000.000,28.388,-9.493,-189.289,-23.043,-3.396,-33.989,56166.042,24733.143,78682.999
1512180463,29.700,-36.400,52.900,110230.000,-41260.000,956180.000,-57000.000,-21000.000,-6000.000,16.638,-10.585,-188.398,-40.021,11.796,-6.209,56317.837,25183.369,78231.934
1512180463,23.600,-21.000,51.100,108280.000,-112850.000,960630.000,-57000.000,-21000.000,-6000.000,25.078,-5.250,-183.999,-36.696,-7.646,-16.422,56164.761,24508.137,78157.898
1512180463,12.900,-4.400,48.200,95150.000,-61160.000,972530.000,-57000.000,-21000.000,-6000.000,20.839,-7.387,-185.131,-46.530,-3.906,4.627,56619.335,25483.829,78529.526
1512180463,39.900,17.600,53.400,79410.000,-55910.000,953060.000,-68000.000,-28000.000,-6000.000,18.734,-12.722,-186.243,-24.646,-18.293,-19.397,56393.322,25258.488,78531.326
1512180463,31.600,12.100,49.300,98750.000,-117550.000,955260.000,-68000.000,-28000.000,-6000.000,16.631,-5.250,-188.383,-28.539,2.069,8.083,56767.910,25184.055,78378.098
1512180463,38.000,9.900,47.400,113590.000,-60730.000,899660.000,-68000.000,-28000.000,-6000.000,18.718,-11.662,-186.244,-47.268,-14.041,7.521,56541.851,24958.714,78304.901
1512180463,42.300,9.700,48.900,73610.000,-91190.000,931640.000,-68000.000,-28000.000,-6000.000,10.264,-12.733,-190.634,-54.856,1.399,57.360,56545.116,25633.717,78755.219
1512180463,38.600,15.400,43.800,52670.000,-71040.000,945800.000,-68000.000,-28000.000,-6000.000,16.670,-16.459,-191.086,-37.022,-9.162,9.170,56656.986,25521.381,78491.715
1512180463,44.700,28.800,51.000,53830.000,-42360.000,980160.000,-38000.000,-37000.000,-18000.000,24.675,-18.584,-192.044,-23.298,-5.812,-4.724,56732.441,25633.998,78378.624
1512180463,3.500,15.200,50.500,86360.000,-71530.000,994140.000,-38000.000,-37000.000,-18000.000,23.596,-22.325,-191.541,-36.822,-3.651,-12.335,56695.537,25746.440,78566.505
1512180463,19.800,13.800,61.500,69820.000,-57010.000,1000000.000,-38000.000,-37000.000,-18000.000,23.172,-22.312,-197.942,-36.947,-1.622,2.926,56734.310,26009.006,78753.792
1512180463,15.000,-8.700,62.500,27590.000,-39550.000,998290.000,-38000.000,-37000.000,-18000.000,19.948,-17.515,-196.374,-43.556,-3.320,2.599,56771.846,26046.558,78490.997
1512180463,20.500,-0.800,61.800,11050.000,-48400.000,934080.000,-50000.000,-24000.000,-6000.000,20.505,-14.839,-197.422,-48.700,-1.122,-1.355,56770.672,25784.053,78490.882
1512180463,10.000,26.000,50.200,12630.000,-10070.000,1017940.000,-50000.000,-24000.000,-6000.000,17.238,-13.250,-193.199,-47.545,1.474,-19.338,57036.694,26571.949,78451.507
1512180463,30.400,43.100,29.600,103880.000,-13980.000,1103880.000,-50000.000,-24000.000,-6000.000,11.440,-11.649,-197.008,-38.453,4.436,-10.284,56961.827,26571.842,78714.645
1512180463,25.700,19.600,78.200,93930.000,-56520.000,1083560.000,-50000.000,-24000.000,-6000.000,7.685,-4.716,-195.441,-42.608,8.638,4.893,56886.075,26421.726,78565.216
1512180463,18.800,-3.600,38.000,52920.000,-39670.000,961360.000,-50000.000,-24000.000,-6000.000,15.206,-0.423,-198.514,-46.776,5.046,-1.526,56962.688,26759.342,78752.235
1512180463,47.700,18.000,45.400,37900.000,-59080.000,965700.000,-54000.000,-52000.000,-16000.000,14.641,-10.582,-198.028,-39.375,4.913,0.193,57075.115,26759.510,78601.280
1512180463,19.000,26.800,61.000,32530.000,-61040.000,858760.000,-54000.000,-52000.000,-16000.000,23.191,-4.687,-198.414,-35.234,22.460,-11.651,56964.275,27134.350,78564.911
1512180464,-9.300,13.200,71.100,49930.000,-69030.000,948910.000,-54000.000,-52000.000,-16000.000,18.881,8.654,-194.698,-45.313,18.040,-35.101,57153.072,27434.635,78450.958
1512180464,8.100,1.500,76.000,20320.000,-79160.000,899960.000,-54000.000,-52000.000,-16000.000,18.883,15.061,-194.676,-39.864,23.311,-35.028,57151.836,27134.632,78675.812
1512180464,-9.600,-5.200,74.300,52860.000,-71410.000,930790.000,-54000.000,-52000.000,-16000.000,18.920,25.752,-195.701,-77.542,34.411,-17.399,57077.953,27359.516,78901.550
1512180464,-17.300,-12.300,72.700,66040.000,-72390.000,864070.000,-45000.000,-33000.000,5000.000,17.893,22.546,-198.929,3.032,24.163,-51.985,57227.993,27359.745,78975.281
1512180464,29.200,23.200,59.800,46810.000,-53710.000,959110.000,-45000.000,-33000.000,5000.000,17.839,20.403,-195.739,-39.089,24.935,-35.398,57225.750,26909.733,78525.070
1512180464,-40.300,9.300,63.900,93690.000,-77450.000,914920.000,-45000.000,-33000.000,5000.000,12.567,21.472,-199.009,-71.071,29.824,-7.451,57304.317,27659.855,78899.780
1512180464,-39.000,21.800,79.400,48710.000,-118840.000,946170.000,-45000.000,-33000.000,5000.000,21.113,14.014,-199.975,-28.641,18.577,-25.090,57756.344,28110.538,78896.164
1512180464,109.200,80.400,51.000,91800.000,-72200.000,1009580.000,-47000.000,-28000.000,-3000.000,12.607,21.479,-201.139,-40.258,25.631,-2.170,57379.345,27659.977,78974.136
1512180464,9.500,7.700,65.100,29170.000,-53770.000,1026310.000,-47000.000,-28000.000,-3000.000,16.851,12.940,-200.040,-34.347,25.105,-10.646,57678.905,27585.423,78746.552
1512180464,-9.600,-22.900,63.300,38210.000,-81360.000,1003170.000,-47000.000,-28000.000,-3000.000,23.238,20.419,-199.925,-7.664,17.247,-7.606,57456.264,28110.081,78748.703
1512180464,3.100,-23.200,75.900,2320.000,-37350.000,981320.000,-47000.000,-28000.000,-3000.000,25.303,15.078,-195.647,-22.921,17.695,-13.972,57682.049,28260.426,78971.863
1512180464,-16.200,-19.800,77.400,9770.000,-88750.000,1009580.000,-47000.000,-28000.000,-3000.000,12.524,17.192,-196.893,-73.342,18.204,15.387,57456.371,28110.081,78973.709
1512180464,-5.600,-7.900,74.700,63720.000,-53100.000,1009950.000,-43000.000,-35000.000,-6000.000,30.667,15.089,-197.702,-24.925,8.400,-11.421,57457.470,28335.087,79123.810
1512180464,-21.800,-2.300,74.300,124760.000,-87770.000,973510.000,-43000.000,-35000.000,-6000.000,24.264,16.144,-197.793,-10.848,19.314,19.695,57683.407,28560.429,78972.000
1512180464,-18.800,-9.100,70.000,123170.000,-88620.000,892640.000,-43000.000,-35000.000,-6000.000,22.097,22.550,-194.601,-45.169,13.005,9.100,57234.936,28859.760,79350.967
1512180464,-7.900,-1.100,85.000,99790.000,-82760.000,923520.000,-43000.000,-35000.000,-6000.000,19.934,17.198,-193.587,-37.462,24.252,8.701,57684.795,28860.432,79047.134
1512180464,88.400,49.800,60.500,68660.000,-60300.000,1040160.000,-43000.000,-35000.000,-6000.000,19.924,19.336,-192.512,-22.537,11.605,-3.561,57986.584,29235.874,79269.775
1512180464,-18.500,14.000,62.100,84660.000,-50050.000,996700.000,-33000.000,-42000.000,-10000.000,21.993,18.260,-189.290,-21.642,8.178,-4.094,57985.912,29085.880,79269.699
1512180464,-16.600,24.200,66.200,90450.000,-78670.000,945190.000,-33000.000,-42000.000,-10000.000,15.596,10.774,-189.408,-13.227,19.821,-9.340,57910.503,29010.761,79120.300
1512180464,-31.700,23.800,72.400,80020.000,-63900.000,942020.000,-33000.000,-42000.000,-10000.000,18.780,9.711,-188.298,-17.076,16.050,-23.568,57535.534,29010.197,79198.486
1512180464,-25.000,22.400,72.800,92350.000,-77210.000,884770.000,-33000.000,-42000.000,-10000.000,11.336,13.973,-189.458,-25.388,12.176,13.531,57984.829,28860.874,79119.598
1512180464,0.800,30.400,70.800,56400.000,-98140.000,1010800.000,-45000.000,-19000.000,-8000.000,12.320,10.756,-185.193,-18.087,12.602,2.657,57836.895,29310.658,79196.075
1512180464,-35.700,13.700,71.000,57250.000,-67200.000,917720.000,-45000.000,-19000.000,-8000.000,17.732,16.126,-188.288,-30.668,4.902,26.756,58288.387,29611.332,79492.386
1512180464,4.800,32.200,76.000,16970.000,-53040.000,944950.000,-45000.000,-19000.000,-8000.000,19.838,9.709,-188.285,-15.289,16.909,-19.307,58138.760,29686.100,79568.695
1512180464,-39.000,32.800,62.700,66280.000,-74400.000,985720.000,-45000.000,-19000.000,-8000.000,17.644,13.972,-184.036,1.581,29.806,-6.878,58136.669,29236.103,79418.488
1512180464,-29.600,28.900,65.500,21300.000,-91370.000,943480.000,-45000.000,-19000.000,-8000.000,16.423,11.818,-174.466,-43.761,-1.079,-0.130,58437.832,29461.552,79716.049
1512180464,-2.100,30.600,66.700,79770.000,-27950.000,975280.000,-43000.000,-31000.000,3000.000,16.492,4.348,-179.289,-25.482,18.012,-9.711,58401.577,29761.502,79528.999
1512180464,-15.700,17.600,60.500,72080.000,-78000.000,1015260.000,-43000.000,-31000.000,3000.000,10.086,3.802,-178.851,-11.387,11.115,-1.614,58777.393,29949.565,79450.905
1512180464,-10.500,3.300,78.000,-35950.000,-36010.000,1096740.000,-43000.000,-31000.000,3000.000,7.430,2.735,-178.891,-19.589,4.268,11.968,58815.433,30062.130,79525.643
1512180464,18.500,4.500,80.000,-20140.000,-41380.000,1030820.000,-43000.000,-31000.000,3000.000,13.204,5.936,-173.467,-21.804,-4.197,0.323,59155.323,30587.635,79560.501
1512180464,11.700,-15.300,84.700,47550.000,-95890.000,956420.000,-43000.000,-31000.000,3000.000,25.449,-1.526,-173.317,-22.083,-14.305,-14.706,59304.271,30362.858,79484.131
1512180464,-0.100,-18.400,86.000,99000.000,-51450.000,823670.000,-43000.000,-21000.000,10000.000,25.885,-3.143,-167.988,-47.959,-29.885,6.992,59380.115,30550.472,79483.582
1512180464,-24.100,-26.800,83.500,92410.000,-88870.000,914550.000,-43000.000,-21000.000,10000.000,30.195,-2.592,-170.053,-28.442,-30.105,5.913,59795.582,31226.093,79330.384
1512180464,20.400,-4.700,69.900,117740.000,-56580.000,910460.000,-43000.000,-21000.000,10000.000,24.861,-1.532,-169.593,-40.031,-36.552,9.316,59982.960,31188.877,79441.277
1512180464,2.800,8.300,69.800,62990.000,-45470.000,874760.000,-43000.000,-21000.000,10000.000,20.626,1.666,-171.778,-28.027,-36.402,0.317,59869.526,30963.703,79592.132
1512180464,-22.800,4.800,63.400,76290.000,-119020.000,961850.000,-42000.000,-26000.000,8000.000,22.718,-4.207,-169.100,-27.072,-41.339,-18.213,60471.607,31452.106,79362.251
1512180464,5.200,22.200,66.800,77270.000,-95090.000,974610.000,-42000.000,-26000.000,8000.000,18.976,-7.956,-169.170,-0.013,-44.551,2.426,60547.245,31602.222,79286.683
1512180464,1.900,28.600,71.800,74340.000,-67990.000,860470.000,-42000.000,-26000.000,8000.000,12.003,-10.638,-166.079,-35.920,-50.648,43.508,60884.899,31640.232,79246.338
1512180465,-22.500,35.000,75.000,71840.000,-109620.000,935850.000,-42000.000,-26000.000,8000.000,16.198,-20.256,-162.856,-4.624,-37.550,17.128,60997.692,31715.397,79170.410
1512180465,-28.200,30.600,72.800,66350.000,-73180.000,1012330.000,-42000.000,-26000.000,8000.000,17.253,-17.049,-161.762,-7.997,-51.510,24.134,61073.116,31790.516,79319.809
1512180465,-34.000,6.400,78.300,36930.000,-79350.000,1024600.000,-33000.000,-17000.000,16000.000,18.240,-17.061,-157.486,-38.386,-49.317,15.886,61372.921,31715.961,79617.233
1512180465,-28.900,4.300,79.200,48580.000,-94480.000,1025150.000,-33000.000,-17000.000,16000.000,19.364,-17.050,-160.667,-43.481,-35.872,-22.388,60920.223,31190.281,78945.801
1512180465,-3.100,27.300,79.500,84470.000,-55240.000,942380.000,-33000.000,-17000.000,16000.000,14.048,-17.051,-160.740,-36.471,-54.423,21.044,61223.705,31940.739,79168.594
1512180465,-29.800,46.600,71.900,84350.000,-81540.000,959720.000,-33000.000,-17000.000,16000.000,19.330,-18.121,-158.538,-14.433,-48.221,-5.363,61598.782,31941.303,79315.414
1512180465,1.700,57.700,67.500,120240.000,-73850.000,918520.000,-42000.000,-26000.000,1000.000,16.056,-23.477,-154.341,-44.899,-50.212,-17.746,61448.406,31866.077,79241.653
1512180465,-7.700,55.500,65.600,120480.000,-66280.000,1009160.000,-42000.000,-26000.000,1000.000,16.110,-23.470,-157.538,-36.216,-57.805,7.005,61373.043,31790.958,79167.252
1512180465,2.000,36.600,66.600,95830.000,-62500.000,948610.000,-42000.000,-26000.000,1000.000,20.362,-25.597,-156.415,17.982,-44.068,-22.766,61524.578,32166.187,78866.165
1512180465,-20.600,54.600,66.000,70860.000,-66470.000,1000730.000,-42000.000,-26000.000,1000.000,14.989,-21.343,-154.349,-45.122,-58.387,-16.936,61825.665,32391.636,79013.702
1512180465,-24.200,56.700,69.400,53410.000,-61580.000,981450.000,-42000.000,-26000.000,1000.000,0.122,-22.427,-157.766,-52.496,-57.392,66.526,61973.827,32016.865,78712.265
1512180465,-2.400,55.100,75.200,59570.000,-71590.000,923770.000,-28000.000,-22000.000,11000.000,12.961,-23.470,-160.782,-32.416,-61.125,15.470,62275.295,32317.310,78934.845
1512180465,-3.600,42.900,77.200,23930.000,-70680.000,953550.000,-28000.000,-22000.000,11000.000,18.247,-27.735,-157.519,-12.199,-52.012,2.439,62200.558,32392.200,78785.522
1512180465,-8.300,26.500,78.400,25700.000,-63540.000,953250.000,-28000.000,-22000.000,11000.000,9.669,-18.143,-154.414,-18.415,-55.301,39.617,62650.631,32392.872,78931.702
1512180465,-10.700,10.500,81.600,22520.000,-65060.000,960390.000,-28000.000,-22000.000,11000.000,29.808,-11.722,-147.706,-51.845,-60.799,-54.191,62422.924,31792.530,78933.334
1512180465,-3.500,12.100,78.300,48710.000,-104310.000,927920.000,-28000.000,-22000.000,11000.000,29.878,-25.595,-152.015,-11.980,-42.726,-26.477,62649.837,32242.878,78706.635
1512180465,8.100,-2.300,84.600,2380.000,-45170.000,972050.000,-22000.000,-10000.000,13000.000,20.215,-25.618,-147.891,7.589,-63.259,-8.374,62652.431,32842.884,78481.918
1512180465,-6.900,-12.700,77.900,29720.000,-83130.000,1044980.000,-22000.000,-10000.000,13000.000,24.433,-33.096,-145.725,-22.502,-56.545,-27.801,62877.468,32843.220,78555.008
1512180465,-20.900,-16.900,72.300,49130.000,-85630.000,939330.000,-22000.000,-10000.000,13000.000,23.385,-46.976,-146.852,-25.398,-70.200,15.069,62876.080,32543.217,78479.874
1512180465,-23.600,0.300,70.300,56270.000,-77150.000,973330.000,-22000.000,-10000.000,13000.000,18.096,-48.052,-150.133,-19.867,-67.703,7.434,62951.199,32618.336,78029.266
1512180465,-27.700,1.300,68.400,49010.000,-87340.000,996460.000,-17000.000,-1000.000,22000.000,6.460,-54.466,-155.653,-5.747,-69.247,48.160,62873.119,31943.211,77954.590
1512180465,-1.500,-4.500,73.600,85330.000,-27650.000,1041260.000,-17000.000,-1000.000,22000.000,10.585,-53.407,-147.061,-9.545,-83.029,45.232,63250.515,32468.769,78026.642
1512180465,-22.000,-17.400,80.600,51270.000,-81420.000,1049620.000,-17000.000,-1000.000,22000.000,18.031,-44.854,-145.858,-4.623,-83.675,11.270,63176.189,32618.671,78027.344
1512180465,-38.500,6.100,82.700,141780.000,-81120.000,866460.000,-17000.000,-1000.000,22000.000,14.731,-43.803,-139.505,-10.126,-82.234,22.705,63624.172,32169.331,78023.315
1512180465,-11.500,56.700,82.400,156130.000,-63050.000,946900.000,-17000.000,-1000.000,22000.000,10.479,-49.149,-140.652,-34.673,-84.970,38.705,63400.402,32468.998,77800.369
1512180465,-69.900,9.100,82.300,132930.000,-88680.000,916990.000,-5000.000,3000.000,10000.000,18.919,-50.214,-135.203,-17.146,-95.275,-16.003,63701.412,32694.447,77797.928
1512180465,-0.400,14.500,78.300,111880.000,-85270.000,956540.000,-5000.000,3000.000,10000.000,14.120,-48.084,-134.731,-23.573,-66.186,10.967,63926.641,32769.786,77571.038
1512180465,-30.200,11.100,76.000,53770.000,-77090.000,984070.000,-5000.000,3000.000,10000.000,14.024,-44.358,-128.856,-35.957,-80.228,-3.234,64038.681,32732.456,76970.070
1512180465,-7.200,16.000,75.200,37480.000,-60360.000,998230.000,-5000.000,3000.000,10000.000,8.678,-34.754,-127.300,-23.599,-58.405,-17.359,64301.720,32882.855,76705.414
1512180465,-4.400,23.700,76.700,-17460.000,-53960.000,1026610.000,-15000.000,-10000.000,10000.000,-4.597,-19.280,-129.571,-57.623,-73.904,32.202,64300.370,32620.350,76367.790
1512180465,-10.400,26.500,74.200,60300.000,-71840.000,1000920.000,-15000.000,-10000.000,10000.000,4.296,-4.339,-119.265,-40.657,-74.005,19.454,64524.826,32545.689,75953.347
1512180465,-14.200,-19.200,76.000,26120.000,-26790.000,1024290.000,-15000.000,-10000.000,10000.000,11.619,8.475,-110.053,-33.116,-70.445,-6.851,64260.628,32207.798,75580.414
1512180465,4.000,-10.000,73.800,75500.000,-79710.000,933110.000,-15000.000,-10000.000,10000.000,9.901,23.415,-101.495,6.380,-76.844,-3.758,63849.735,32582.180,75434.098
1512180465,-9.200,10.800,71.900,52000.000,-64510.000,938900.000,-15000.000,-10000.000,10000.000,0.685,46.878,-91.420,-43.170,-67.945,27.716,63324.649,32581.394,75288.558
1512180465,-30.500,18.000,66.600,83620.000,-94910.000,1010620.000,-10000.000,-15000.000,8000.000,10.142,53.822,-82.196,8.111,-77.186,-16.006,62761.143,32355.541,75293.243
1512180465,-42.300,17.800,67.200,104310.000,-84170.000,1003910.000,-10000.000,-15000.000,8000.000,6.747,51.122,-70.528,42.972,-63.741,-12.103,62013.256,32766.925,75824.799
1512180465,-13.700,32.600,67.200,90390.000,-93750.000,1095830.000,-10000.000,-15000.000,8000.000,3.803,51.082,-54.048,61.800,-74.659,2.711,61264.454,33028.301,75868.797
1512180465,-31.600,36.200,67.600,85390.000,-51150.000,999630.000,-10000.000,-15000.000,8000.000,-0.752,60.656,-35.423,42.531,-50.250,16.347,60291.584,33439.342,76439.781
1512180466,-1.100,39.000,79.100,19900.000,-47970.000,929080.000,-10000.000,-15000.000,8000.000,-3.174,62.753,-17.862,63.133,-62.704,30.588,59804.333,33438.602,76931.412
1512180466,-37.300,18.900,77.900,-10500.000,-87830.000,954410.000,-3000.000,-22000.000,5000.000,-4.360,71.280,-10.387,18.436,-59.484,39.727,59730.541,33663.502,77307.159
1512180466,-31.000,28.600,76.800,-1890.000,-56760.000,926640.000,-3000.000,-22000.000,5000.000,23.126,65.950,2.782,94.765,-30.783,-52.937,59281.841,33887.821,77911.087
1512180466,-47.800,37.000,76.300,41380.000,-93870.000,938900.000,-3000.000,-22000.000,5000.000,-8.007,61.607,16.177,96.725,-62.686,-38.214,59130.306,33512.592,78212.189
1512180466,2.500,54.200,75.600,35950.000,-48830.000,997920.000,-3000.000,-22000.000,5000.000,-13.629,47.677,33.103,30.672,-51.938,34.933,58906.246,33737.263,78064.194
1512180466,-11.900,37.600,76.300,48770.000,-54870.000,966920.000,0.000,5000.000,-1000.000,-17.836,39.130,28.747,19.944,-46.433,40.049,58985.485,34637.379,78438.980
1512180466,-30.200,18.600,73.200,74100.000,-78000.000,971680.000,0.000,5000.000,-1000.000,-6.081,33.818,27.837,131.098,-29.675,-11.098,59133.160,34112.598,78512.466
1512180466,-18.800,25.400,71.100,43950.000,-88070.000,944640.000,0.000,5000.000,-1000.000,-4.129,33.798,38.524,55.148,-13.732,-27.936,59133.953,34262.608,78737.534
1512180466,-8.400,28.600,72.200,38940.000,-67630.000,856570.000,0.000,5000.000,-1000.000,-5.250,32.720,41.702,62.431,-35.091,-32.288,59134.319,34337.605,78812.561
1512180466,-27.200,10.800,69.000,41140.000,-109130.000,903630.000,0.000,5000.000,-1000.000,-8.426,23.103,39.489,81.831,-56.434,-13.064,59061.306,34787.495,78738.403
1512180466,-43.300,-5.600,64.800,67080.000,-80630.000,971130.000,12000.000,-10000.000,-10000.000,-10.607,20.960,42.649,47.185,-36.116,37.509,59285.625,34637.836,78736.420
1512180466,16.100,7.500,66.200,-4640.000,-61340.000,1058650.000,12000.000,-10000.000,-10000.000,-12.688,19.894,39.417,22.366,-35.413,52.176,58985.027,34487.385,78888.901
1512180466,-17.700,21.000,61.800,22280.000,-115110.000,932070.000,12000.000,-10000.000,-10000.000,3.209,13.499,44.956,54.993,-80.362,19.217,58909.466,34337.269,79114.471
1512180466,31.000,46.700,61.900,72140.000,-40590.000,881410.000,12000.000,-10000.000,-10000.000,4.245,17.771,47.119,2.686,-59.255,13.274,59284.389,34337.833,78961.288
1512180466,10.500,23.600,55.400,61340.000,-102050.000,908870.000,12000.000,-10000.000,-10000.000,6.348,9.231,49.255,-14.655,-49.249,6.897,59283.825,34187.824,79186.218
1512180466,-18.100,-0.400,57.400,25940.000,-45590.000,951110.000,3000.000,8000.000,-18000.000,-4.239,-3.604,42.654,0.631,-44.969,27.595,59057.522,33887.486,79262.985
1512180466,5.500,19.800,65.200,-5550.000,-57800.000,1002010.000,3000.000,8000.000,-18000.000,-2.169,-3.597,48.021,27.503,-46.173,21.674,59209.774,34412.708,79036.957
1512180466,4.900,26.600,61.300,18620.000,-30940.000,1024780.000,3000.000,8000.000,-18000.000,-23.483,7.042,46.677,-39.417,-57.521,75.864,59133.724,34187.595,78962.494
1512180466,25.400,35.600,60.300,39250.000,-111760.000,860900.000,3000.000,8000.000,-18000.000,-14.840,10.277,40.420,-37.955,-62.681,68.071,59208.721,34187.717,78961.853
1512180466,-7.500,2.900,78.000,15930.000,-30640.000,998170.000,8000.000,-17000.000,-3000.000,6.495,12.448,39.670,60.990,-70.844,-51.928,59282.375,33887.821,78961.075
1512180466,16.100,1.300,55.500,20140.000,-65310.000,938110.000,8000.000,-17000.000,-3000.000,-9.596,19.886,45.858,-0.365,-63.086,-7.605,58905.117,33437.260,78514.069
1512180466,33.800,5.600,58.500,24660.000,-97900.000,1055850.000,8000.000,-17000.000,-3000.000,-12.791,9.204,45.777,8.446,-67.119,-18.431,59359.020,34262.943,78885.620
1512180466,9.700,-4.400,53.000,41810.000,-36190.000,962400.000,8000.000,-17000.000,-3000.000,-11.637,3.871,39.376,26.196,-34.571,-20.778,59057.339,33887.486,78887.985
1512180466,18.200,3.200,48.500,50780.000,-84110.000,997190.000,8000.000,-17000.000,-3000.000,-15.902,-12.153,39.261,-12.119,-29.210,-19.397,59583.263,34113.270,78733.627
1512180466,22.000,7.200,36.400,72630.000,-56030.000,1001400.000,1000.000,-7000.000,-16000.000,-14.766,-20.688,34.450,24.378,-48.451,12.761,59281.788,33775.325,78811.028
1512180466,32.400,16.000,35.400,54020.000,-83190.000,970090.000,1000.000,-7000.000,-16000.000,-1.416,-15.856,33.596,-13.011,-45.063,1.911,59694.477,33850.948,78507.561
1512180466,27.800,20.000,32.400,68360.000,-71170.000,938900.000,1000.000,-7000.000,-16000.000,0.297,-17.983,25.613,-12.333,-65.533,-7.999,59543.141,33588.215,78208.717
1512180466,16.100,20.900,35.200,63600.000,-40590.000,964290.000,1000.000,-7000.000,-16000.000,-0.719,-14.239,22.948,-28.085,-52.823,14.856,59280.796,33625.324,78173.462
1512180466,26.500,36.100,34.400,57860.000,-77030.000,975830.000,1000.000,-7000.000,-16000.000,-4.894,-20.104,18.072,-18.421,-64.853,56.464,59580.120,33475.773,78170.845
1512180466,47.800,57.400,37.200,64450.000,40220.000,947140.000,-1000.000,-3000.000,-10000.000,-6.982,-17.970,14.849,-43.815,-58.569,51.269,59804.874,33438.610,78018.913
1512180466,24.800,40.100,32.900,55480.000,-58230.000,983030.000,-1000.000,-3000.000,-10000.000,-10.681,-17.969,13.198,-14.057,-66.528,60.095,59767.337,33438.557,77944.229
1512180466,42.200,35.400,33.400,35830.000,-40950.000,937560.000,-1000.000,-3000.000,-10000.000,5.868,4.490,12.983,-25.103,-57.905,-14.676,59805.615,33626.110,77793.999
1512180466,24.800,39.700,34.600,-730.000,-17090.000,962280.000,-1000.000,-3000.000,-10000.000,-19.077,7.133,6.233,-33.058,-55.447,23.318,59655.666,33625.889,77907.776
1512180466,26.400,59.400,23.200,-3050.000,-45590.000,942140.000,-7000.000,8000.000,-11000.000,-25.436,7.662,4.011,-24.225,-67.698,40.971,59655.567,33588.391,78057.754
1512180466,7.500,70.600,14.600,31070.000,-52310.000,977910.000,-7000.000,8000.000,-11000.000,-16.376,11.416,4.690,-2.036,-54.402,11.363,59358.196,34112.942,78585.556
1512180466,13.400,56.600,15.700,22770.000,-57980.000,923950.000,-7000.000,8000.000,-11000.000,-16.532,24.212,14.325,20.585,-59.442,-10.608,59133.328,34112.598,78849.952
1512180466,14.400,32.900,15.600,14830.000,-35400.000,963500.000,-7000.000,8000.000,-11000.000,-27.817,39.675,21.146,35.883,-63.905,9.867,59097.309,34412.548,79112.915
1512180467,14.000,21.400,16.500,2440.000,-63050.000,952030.000,-7000.000,8000.000,-11000.000,-27.526,46.588,36.099,45.225,-59.918,31.474,58909.512,34337.269,79189.468
1512180467,27.300,16.600,19.300,18620.000,-57430.000,907900.000,-10000.000,-12000.000,-11000.000,-42.545,46.550,41.209,-8.171,-51.967,70.513,59059.582,34337.482,79338.196
1512180467,18.900,16.400,19.800,26860.000,-36740.000,936340.000,-10000.000,-12000.000,-11000.000,-22.366,45.504,45.762,102.232,-39.632,-53.222,59284.771,34337.833,79711.288
1512180467,33.300,12.500,15.700,6530.000,-60490.000,914790.000,-10000.000,-12000.000,-11000.000,-50.243,55.056,56.053,90.372,-57.289,1.521,59058.651,34112.492,79488.098
1512180467,40.700,13.800,15.000,-20140.000,-24600.000,994750.000,-10000.000,-12000.000,-11000.000,-67.523,55.003,69.662,28.335,-61.603,54.282,59361.797,34787.937,79710.861
1512180467,40.600,17.200,15.200,-27890.000,-30030.000,927060.000,-10000.000,-12000.000,-11000.000,-58.997,52.880,69.778,47.802,-51.501,69.136,59511.913,34788.166,79934.586
1512180467,32.600,14.500,6.500,-34670.000,-43270.000,943790.000,-1000.000,3000.000,-10000.000,-42.981,52.905,67.876,100.210,-12.321,-23.562,59511.684,34713.169,80159.546
1512180467,39.000,16.500,4.500,7020.000,-32410.000,935850.000,-1000.000,3000.000,-10000.000,-45.394,47.529,84.881,104.276,-9.689,-45.474,59588.024,35013.279,80159.042
1512180467,41.100,14.100,8.000,-17520.000,-27650.000,983830.000,-1000.000,3000.000,-10000.000,-58.203,54.981,85.785,29.948,-5.827,-10.183,59433.941,34113.056,80084.900
1512180467,9.900,15.800,4.400,37170.000,-59450.000,988830.000,-1000.000,3000.000,-10000.000,-57.225,36.820,91.070,147.947,-15.223,-1.796,60112.026,34789.066,80154.480
1512180467,23.800,13.600,9.900,-44250.000,-17820.000,954040.000,3000.000,-15000.000,-15000.000,-61.731,52.802,105.983,114.428,-11.011,11.245,60189.053,35239.185,80154.053
1512180467,24.100,0.800,6.000,-1340.000,-46940.000,931150.000,3000.000,-15000.000,-15000.000,-53.339,35.709,113.508,57.893,27.549,-11.076,60263.073,35014.301,80228.317
1512180467,36.600,-6.400,4.400,-46200.000,-47180.000,928530.000,3000.000,-15000.000,-15000.000,-50.090,15.432,110.290,95.103,26.880,-9.792,60338.070,35014.408,80227.676
1512180467,30.100,11.200,0.700,-10560.000,-60850.000,930910.000,3000.000,-15000.000,-15000.000,-48.069,9.006,115.622,122.230,-29.943,3.708,60562.099,34789.738,80300.659
1512180467,32.500,18.800,-2.100,-25090.000,-36320.000,913210.000,3000.000,-15000.000,-15000.000,-36.573,-9.156,129.588,133.078,8.315,-13.335,60636.761,34714.863,80299.988
1512180467,40.900,17.200,-3.300,-17940.000,-60730.000,859920.000,-7000.000,-5000.000,-22000.000,-45.068,-8.098,127.336,11.536,61.085,46.249,60937.069,34790.302,80222.473
1512180467,48.500,17.300,-5.100,-18430.000,-22830.000,925230.000,-7000.000,-5000.000,-22000.000,-17.370,-16.606,127.705,83.795,-22.133,-87.342,61163.067,35015.644,80220.657
1512180467,30.000,8.800,-11.600,790.000,-79650.000,928650.000,-7000.000,-5000.000,-22000.000,-36.663,-15.581,133.825,124.568,-2.974,59.769,61088.039,35015.537,80146.301
1512180467,36.600,6.900,-11.900,-2930.000,-39250.000,953060.000,-7000.000,-5000.000,-22000.000,-29.397,-0.638,146.776,35.428,24.087,48.921,61010.571,34490.421,79921.692
1512180467,26.200,0.000,-11.900,-60.000,-68910.000,976070.000,-10000.000,5000.000,-8000.000,-28.270,16.459,143.653,69.454,-7.152,13.361,61085.644,34490.528,80071.060
1512180467,38.000,-8.100,-4.800,-11900.000,-23190.000,944460.000,-10000.000,5000.000,-8000.000,-44.330,20.703,148.768,75.306,0.907,29.780,61159.771,34340.641,79695.343
1512180467,36.600,-7.200,-8.100,-9030.000,-59570.000,935420.000,-10000.000,5000.000,-8000.000,-51.868,14.273,152.900,41.788,-2.542,40.683,61462.994,35016.102,80068.115
1512180467,57.700,3.900,-10.000,21060.000,-30210.000,926760.000,-10000.000,5000.000,-8000.000,-65.676,8.917,149.483,57.810,-22.002,80.611,61612.698,34941.319,80141.800
1512180467,31.200,-1.100,-13.600,29110.000,-48340.000,909180.000,-10000.000,5000.000,-8000.000,-57.158,8.933,150.675,50.023,-31.454,70.011,61609.554,34266.315,79916.489
1512180467,55.500,5.200,-14.500,-23800.000,-27530.000,918090.000,-5000.000,10000.000,-6000.000,-71.022,28.134,151.605,61.000,-18.175,77.993,61760.677,34491.535,80140.320
1512180467,36.200,-11.900,-21.000,16420.000,-31740.000,950560.000,-5000.000,10000.000,-6000.000,-67.963,30.259,160.186,6.282,20.741,70.822,61982.830,33891.880,79838.135
1512180467,28.000,-12.000,-24.100,-19840.000,-49260.000,921870.000,-5000.000,10000.000,-6000.000,-71.112,31.325,156.944,48.022,-9.534,48.511,62323.040,34492.390,79873.031
1512180467,30.600,-8.800,-21.200,-490.000,-16540.000,915530.000,-5000.000,10000.000,-6000.000,-82.558,35.549,172.250,28.117,-2.278,65.662,62209.812,34342.213,79761.429
1512180467,36.200,-6.000,-19.600,-16780.000,-23500.000,969240.000,-5000.000,10000.000,-6000.000,-72.489,38.763,176.139,107.278,5.993,20.070,62584.499,34267.780,79795.700
1512180467,12.000,-12.800,-23.000,-1460.000,-53710.000,918460.000,-5000.000,-10000.000,-6000.000,-89.266,39.774,191.356,73.188,-13.826,83.216,62958.706,34080.838,79904.930
1512180467,13.000,-7.300,-23.000,13550.000,-35520.000,961980.000,-5000.000,-10000.000,-6000.000,-65.258,51.563,190.680,103.533,40.633,-4.947,63257.808,33856.289,80127.273
1512180467,22.000,-17.000,-24.200,-4760.000,-23250.000,966860.000,-5000.000,-10000.000,-6000.000,-33.541,81.487,208.301,73.442,67.346,-96.900,63819.883,33819.629,79597.474
1512180467,11.900,-19.400,-27.600,18070.000,-26920.000,927190.000,-5000.000,-10000.000,-6000.000,-34.637,75.607,209.864,70.929,-24.195,-49.455,64045.211,33894.969,79558.105
1512180467,14.800,-8.100,-32.600,34610.000,-43030.000,952700.000,1000.000,7000.000,-10000.000,-24.028,51.584,211.532,124.310,20.720,-57.215,64454.307,33145.581,79516.747
1512180467,20.100,-0.800,-34.100,22890.000,-26670.000,990540.000,1000.000,7000.000,-10000.000,-19.326,33.425,216.869,51.119,-13.047,-55.662,64639.336,32620.861,79289.909
1512180467,1.700,-19.300,-36.100,-2260.000,-37050.000,950320.000,1000.000,7000.000,-10000.000,-20.032,55.831,228.129,164.779,43.917,15.736,64863.479,32433.696,79250.412
1512180467,36.800,-9.900,-36.400,-9160.000,-24290.000,947940.000,1000.000,7000.000,-10000.000,-17.169,34.432,247.285,104.019,4.555,26.021,65313.247,32396.870,79134.072
1512180467,37.400,-12.900,-39.100,-54930.000,-44620.000,955690.000,1000.000,7000.000,-10000.000,-14.885,13.564,269.633,134.676,7.855,16.879,65648.750,31984.874,78831.009
1512180468,11.300,-28.600,-41.500,-6590.000,-5550.000,932130.000,-8000.000,-3000.000,-13000.000,-18.102,-7.339,301.493,139.985,55.429,24.947,65646.515,31497.379,78755.783
1512180468,16.800,-19.200,-33.800,1460.000,-49620.000,952880.000,-8000.000,-3000.000,-13000.000,-15.722,-10.251,157.602,55.017,57.337,-2.207,65871.475,31497.715,78678.879
1512180468,0.800,-25.800,-41.300,24540.000,-39860.000,959840.000,-8000.000,-3000.000,-13000.000,-35.225,-22.750,-17.556,-1.960,6.071,17.340,65944.000,30972.813,78453.003
1512180468,-1.700,-24.800,-44.600,-26180.000,-47300.000,975160.000,-8000.000,-3000.000,-13000.000,-25.292,-21.249,-232.754,4.398,7.630,-4.382,65643.997,30972.370,78455.551
1512180468,13.200,-14.600,-47.000,-15080.000,-14340.000,930730.000,10000.000,-1000.000,8000.000,-10.961,32.061,-711.021,86.465,-96.173,24.051,65949.402,32172.825,78453.552
1512180468,0.100,-19.600,-52.500,-2260.000,-58960.000,938170.000,10000.000,-1000.000,8000.000,-7.620,35.895,56.605,-22.352,19.210,7.312,65877.625,32922.718,78154.541
1512180468,20.900,-21.000,-53.500,-6840.000,-20140.000,930790.000,10000.000,-1000.000,8000.000,-41.325,16.157,289.515,51.590,-64.558,11.534,66024.292,32172.932,78227.921
1512180468,6.900,-34.100,-55.800,-39430.000,-11600.000,912290.000,10000.000,-1000.000,8000.000,-24.251,-1.973,287.568,159.921,-81.624,-19.402,66099.319,32173.054,78302.277
1512180468,10.900,-43.700,-60.500,-44680.000,-26250.000,960390.000,10000.000,-1000.000,8000.000,-38.155,-16.954,289.445,159.049,-95.213,-46.673,65724.106,32172.489,77855.469
1512180468,-5.300,-33.700,-61.400,-31560.000,-24660.000,946170.000,-28000.000,-1000.000,-1000.000,-39.340,-44.745,294.659,101.363,-76.088,-0.199,66249.176,32173.267,78001.007
1512180468,-11.700,-20.600,-68.600,-25150.000,-63110.000,959230.000,-28000.000,-1000.000,-1000.000,-32.905,-43.660,292.625,185.813,-125.271,-25.851,66101.242,32623.051,78077.484
1512180468,14.600,-21.000,-73.400,-26610.000,-32650.000,937130.000,-28000.000,-1000.000,-1000.000,-43.746,-46.905,303.116,148.492,-131.090,42.367,66097.153,31723.042,78002.075
1512180468,7.900,-31.700,-75.000,28930.000,-30820.000,967290.000,-28000.000,-1000.000,-1000.000,-35.380,-24.482,313.976,107.392,-129.146,45.692,66246.811,31648.273,78000.763
1512180468,2.500,-26.200,-79.400,9460.000,-48220.000,976010.000,-28000.000,-1000.000,-1000.000,-22.587,4.383,316.398,103.069,-104.061,33.741,66094.788,31198.048,78001.831
1512180468,16.900,-23.600,-77.400,-2870.000,-10500.000,912350.000,-17000.000,1000.000,-8000.000,-10.855,27.896,316.647,76.361,-84.900,-53.367,66095.917,31423.038,78226.929
1512180468,-14.200,-30.600,-87.800,16970.000,-59630.000,977360.000,-17000.000,1000.000,-8000.000,-32.065,22.538,309.926,136.730,-69.073,31.105,66092.545,30748.035,77551.620
1512180468,-0.900,-26.000,-88.400,-3050.000,-55660.000,981320.000,-17000.000,1000.000,-8000.000,-20.591,49.233,327.245,92.632,-91.642,23.216,65717.682,30747.486,77854.813
1512180468,0.700,-26.100,-87.600,1400.000,-30090.000,934570.000,-17000.000,1000.000,-8000.000,-24.922,35.331,330.331,57.043,-82.001,66.653,66018.661,30972.935,77777.359
1512180468,0.900,-32.500,-89.300,19650.000,-27950.000,965760.000,-14000.000,-12000.000,-8000.000,-18.433,43.890,324.054,92.979,-49.025,27.216,66091.721,30523.045,77926.514
1512180468,-2.000,-38.300,-93.100,9030.000,-41930.000,971010.000,-14000.000,-12000.000,-8000.000,-21.738,28.922,330.353,57.160,-31.831,68.461,65865.738,30297.703,78003.326
1512180468,9.200,-38.500,-92.400,-22340.000,31740.000,934940.000,-14000.000,-12000.000,-8000.000,-15.219,24.676,322.971,146.972,-33.134,42.263,65791.077,30372.593,78003.998
1512180468,7.600,-28.800,-92.800,3780.000,-15320.000,965940.000,-14000.000,-12000.000,-8000.000,-9.944,39.625,326.294,154.562,-71.743,46.590,65566.452,30447.254,78080.948
1512180468,-24.000,-27.800,-84.700,3850.000,13980.000,1035830.000,-14000.000,-12000.000,-8000.000,-4.666,33.229,330.619,110.332,-16.912,68.764,66016.190,30372.929,78227.081
1512180468,-24.800,-4.500,-106.100,32230.000,-37840.000,977480.000,-14000.000,1000.000,18000.000,3.903,25.761,326.447,121.926,-2.824,15.289,65640.167,30147.358,78230.164
1512180468,-24.500,-2.500,-106.000,18740.000,-3600.000,1012210.000,-14000.000,1000.000,18000.000,14.688,33.268,319.167,191.957,7.224,-2.197,65715.515,30222.477,78229.568
1512180468,-15.200,-8.700,-106.000,19410.000,-1460.000,984620.000,-14000.000,1000.000,18000.000,16.809,32.205,320.262,140.572,19.147,-10.634,65111.053,29246.571,78084.213
1512180468,-1.200,-17.400,-105.900,-27220.000,-7200.000,941770.000,-14000.000,1000.000,18000.000,17.245,11.899,324.994,127.135,0.438,27.601,65562.630,29584.744,78193.047
1512180468,-24.400,-23.700,-107.900,-26180.000,-3660.000,953800.000,-14000.000,1000.000,18000.000,22.613,3.902,322.380,146.611,-28.901,20.799,65559.739,28947.239,78155.258
1512180468,-17.800,-20.000,-113.600,-25880.000,-34120.000,972600.000,-5000.000,7000.000,23000.000,19.805,0.143,330.854,110.371,-19.145,21.503,65107.376,28459.065,77821.358
1512180468,-24.400,-24.600,-118.500,-31620.000,-12210.000,991150.000,-5000.000,7000.000,23000.000,19.818,12.425,330.362,130.476,-14.634,-40.820,65294.579,28346.836,78232.201
1512180468,-13.000,-22.000,-123.700,-38150.000,-30520.000,890930.000,-5000.000,7000.000,23000.000,0.029,26.808,335.458,122.895,3.397,-62.078,65105.987,28121.563,78083.695
1512180468,-11.700,-37.400,-128.900,-67260.000,-35220.000,882320.000,-5000.000,7000.000,23000.000,-21.238,7.557,331.352,79.758,-59.798,-12.504,65068.618,28121.501,78346.519
1512180468,-25.600,-48.100,-131.400,-31430.000,-27650.000,935910.000,0.000,1000.000,32000.000,-34.008,37.980,331.272,110.855,-7.506,-26.874,64615.425,27445.827,78050.034
1512180468,-12.000,-34.800,-133.300,-61220.000,-3910.000,927800.000,0.000,1000.000,32000.000,-39.832,37.976,329.055,76.227,-44.239,-15.767,64576.783,27183.270,78125.229
1512180468,-0.400,-24.100,-134.500,-18740.000,-15560.000,1009770.000,0.000,1000.000,32000.000,-49.306,32.102,321.436,123.565,-29.340,32.710,64500.191,26808.147,78313.187
1512180468,-13.400,-12.700,-134.900,61340.000,-7020.000,915160.000,0.000,1000.000,32000.000,-39.668,21.975,318.342,181.187,-39.250,40.546,64387.505,26770.474,78276.634
1512180468,-26.400,-16.900,-139.300,40220.000,-54630.000,972660.000,0.000,1000.000,32000.000,-24.925,4.883,328.089,123.759,-33.639,44.473,64349.868,26732.929,78351.928
1512180468,-10.500,-29.700,-139.200,-17580.000,-41080.000,938720.000,17000.000,8000.000,22000.000,-9.909,26.282,324.119,135.563,-28.157,-8.374,64160.057,26245.136,78128.296
1512180469,2.300,-28.400,-136.600,-24410.000,-1220.000,973820.000,17000.000,8000.000,22000.000,-18.473,4.368,324.984,111.546,-34.543,66.052,63821.911,26094.639,78168.594
1512180469,-5.900,-16.100,-138.600,-5800.000,-40220.000,955510.000,17000.000,8000.000,22000.000,-0.350,0.126,325.233,196.541,-49.221,-23.480,63593.899,25419.285,78245.193
1512180469,-14.800,-4.000,-138.500,-3850.000,-64390.000,950380.000,17000.000,8000.000,22000.000,-13.288,-33.029,331.322,187.478,-32.116,66.789,63596.310,25944.294,78320.450
1512180469,1.900,10.900,-139.700,-15690.000,-36320.000,911250.000,3000.000,8000.000,-1000.000,0.612,-40.474,329.370,70.584,-26.378,42.614,63145.473,25793.613,78024.200
1512180469,-27.300,-8.400,-144.200,-24840.000,-66100.000,947940.000,3000.000,8000.000,-1000.000,10.333,-56.465,320.926,168.376,-31.391,-5.181,63293.941,25418.842,78322.754
1512180469,-35.600,-16.200,-132.400,-76290.000,28260.000,964420.000,3000.000,8000.000,-1000.000,10.427,-46.841,315.631,164.704,-35.609,1.435,62618.679,25342.823,78478.455
1512180469,-24.100,-18.100,-144.100,-55240.000,-16540.000,968570.000,3000.000,8000.000,-1000.000,11.479,-53.254,315.621,142.832,-37.389,-9.255,62918.011,25193.272,78475.830
1512180469,-27.700,-13.600,-153.300,-72750.000,-17400.000,1018250.000,3000.000,8000.000,-1000.000,4.051,-53.255,314.451,127.983,-29.945,-2.802,62618.191,25267.826,78178.421
1512180469,10.900,10.100,-151.500,-58590.000,32840.000,982670.000,-8000.000,0.000,-3000.000,-3.408,-70.356,313.217,109.080,-39.017,39.409,62237.255,23992.252,77806.015
1512180469,18.900,8.000,-159.400,-18680.000,-25270.000,989500.000,-8000.000,0.000,-3000.000,8.407,-54.310,308.111,108.027,-41.444,-20.901,61715.450,24666.477,78110.794
1512180469,27.600,4.700,-163.700,-9030.000,-550.000,931880.000,-8000.000,0.000,-3000.000,4.214,-53.240,303.790,63.202,-31.278,5.322,61938.763,24291.798,78108.704
1512180469,7.500,4.100,-167.200,-41020.000,-4150.000,995610.000,-8000.000,0.000,-3000.000,6.444,-39.340,298.540,32.634,-8.810,-17.197,61712.490,23991.459,78260.468
1512180469,29.800,11.700,-167.900,-41990.000,22030.000,966000.000,-8000.000,0.000,-3000.000,0.112,-40.405,295.249,56.473,1.047,7.636,61711.880,23841.465,78410.400
1512180469,12.300,20.100,-169.400,-30090.000,5740.000,956050.000,-5000.000,-17000.000,-13000.000,2.262,-16.901,295.363,55.695,-0.202,-17.670,61336.803,23840.900,78263.596
1512180469,28.100,21.200,-169.200,-62810.000,15260.000,963620.000,-5000.000,-17000.000,-13000.000,-10.477,-8.373,292.007,-13.325,-7.186,22.660,61110.577,23540.562,78490.372
1512180469,5.300,17.400,-174.300,-48520.000,-11470.000,927800.000,-5000.000,-17000.000,-13000.000,-18.855,-6.229,283.367,-16.761,2.522,66.668,60810.528,23540.119,78417.923
1512180469,-16.500,6.000,-175.000,-57560.000,-21610.000,934270.000,-5000.000,-17000.000,-13000.000,-11.231,17.302,275.032,58.002,-4.621,11.995,60582.790,22939.777,78344.559
1512180469,-21.400,-3.900,-172.600,-24780.000,7690.000,894960.000,-12000.000,-7000.000,-6000.000,-10.061,37.604,268.719,-10.253,-18.632,-9.662,60284.405,23314.320,78197.281
1512180469,-35.200,-11.700,-179.000,-60670.000,-13120.000,915890.000,-12000.000,-7000.000,-6000.000,-8.875,35.483,261.266,48.774,38.375,6.609,60510.006,23389.668,78720.398
1512180469,-34.600,1.600,-179.400,-89420.000,21550.000,971560.000,-12000.000,-7000.000,-6000.000,-7.735,37.631,257.026,83.803,8.522,-63.581,59982.937,22938.877,78649.658
1512180469,-33.400,4.400,-178.400,-37230.000,66960.000,1016780.000,-12000.000,-7000.000,-6000.000,-8.678,26.973,250.586,43.244,18.631,-44.513,60059.322,23238.987,78724.152
1512180469,-44.700,-17.000,-186.800,-55600.000,-31490.000,988220.000,-12000.000,-7000.000,-6000.000,-13.959,22.691,246.225,33.553,57.082,-39.780,59756.741,22638.538,78951.416
1512180469,-35.400,-15.400,-196.500,-67020.000,25700.000,954590.000,-8000.000,-14000.000,3000.000,-16.941,30.188,233.415,49.993,23.676,3.480,59531.734,22638.203,78953.339
1512180469,10.100,0.000,-191.600,-70130.000,25880.000,986450.000,-8000.000,-14000.000,3000.000,4.530,41.990,225.240,44.604,2.133,-31.540,59454.082,22038.074,79028.687
1512180469,10.700,-13.200,-201.200,-56340.000,-18740.000,924930.000,-8000.000,-14000.000,3000.000,-10.313,15.279,219.604,131.440,49.149,16.119,59305.538,22337.864,79255.112
1512180469,-7.500,-18.100,-197.500,-30700.000,26490.000,935670.000,-8000.000,-14000.000,3000.000,-8.378,8.844,230.266,49.969,25.162,13.065,58927.013,21587.299,78957.947
1512180469,3.300,-6.800,-200.100,-63230.000,730.000,995850.000,-8000.000,-14000.000,3000.000,-5.484,-11.415,215.848,44.463,8.982,28.192,59116.428,22000.080,79069.046
1512180469,9.500,-9.100,-199.300,-28750.000,37410.000,966250.000,-5000.000,-28000.000,3000.000,0.569,-28.476,203.082,78.976,34.377,22.729,58514.668,21586.674,79261.452
1512180469,7.600,-1.600,-199.100,-30760.000,24350.000,986510.000,-5000.000,-28000.000,3000.000,9.852,-33.239,189.876,23.172,6.885,21.414,58141.422,21961.109,79414.818
1512180469,15.400,10.700,-205.700,-48950.000,21300.000,1018620.000,-5000.000,-28000.000,3000.000,8.431,-11.329,179.267,22.070,31.635,-25.134,57876.720,21473.217,79379.326
1512180469,-34.400,2.300,-211.500,-38700.000,-10990.000,901860.000,-5000.000,-28000.000,3000.000,18.812,1.538,165.073,21.877,-3.319,-29.222,57613.087,21210.316,79493.934
1512180469,-22.400,7.500,-216.500,-58110.000,-3300.000,987490.000,-19000.000,-31000.000,-10000.000,15.845,-15.530,150.045,36.413,4.096,-41.988,57536.266,20797.703,79569.381
1512180469,-35.000,11.200,-216.000,-54320.000,27650.000,968320.000,-19000.000,-31000.000,-10000.000,11.709,-24.065,141.960,33.403,3.881,7.575,57161.457,20834.645,79610.077
1512180469,9.700,19.200,-208.100,-49870.000,37290.000,971980.000,-19000.000,-31000.000,-10000.000,15.053,-28.314,132.933,16.836,8.554,6.362,56784.351,20346.576,79800.545
1512180469,-5.500,6.900,-212.900,-30640.000,48890.000,950810.000,-19000.000,-31000.000,-10000.000,26.970,-20.796,121.939,11.796,21.380,-29.837,56635.266,20533.848,79951.897
1512180469,-11.700,2.000,-215.600,-24350.000,15140.000,963130.000,-19000.000,-31000.000,-10000.000,34.105,-21.295,109.247,43.250,0.689,-57.926,56072.925,20570.515,79919.205
1512180469,-20.500,2.800,-220.200,-21790.000,20940.000,998600.000,-19000.000,-3000.000,-13000.000,31.509,-14.885,104.965,-43.967,14.711,-41.081,55846.065,20157.665,79920.921
1512180469,-9.300,26.900,-215.600,-73910.000,23740.000,1016480.000,-19000.000,-3000.000,-13000.000,24.188,-26.091,96.294,18.183,-24.290,11.511,55922.024,20382.786,79807.884
1512180470,-25.200,22.100,-219.200,-27590.000,4330.000,978760.000,-19000.000,-3000.000,-13000.000,10.878,-57.085,93.861,-32.157,32.045,43.501,55620.663,20082.340,79810.303
1512180470,2.100,14.600,-214.300,-74950.000,36070.000,960140.000,-19000.000,-3000.000,-13000.000,-6.175,-46.432,93.649,86.476,-12.246,29.046,55922.253,20457.783,79582.916
1512180470,-20.900,-0.900,-220.400,-50170.000,26060.000,1029790.000,-19000.000,-3000.000,-13000.000,27.988,-6.850,93.219,-72.314,-71.185,3.054,55996.456,20232.899,80032.181
1512180470,-26.900,18.500,-219.400,-47180.000,79280.000,1001770.000,-17000.000,-15000.000,-1000.000,20.751,5.984,80.366,-33.391,-14.279,85.032,55693.645,19632.435,79809.448
1512180470,-21.300,25.300,-223.400,-67690.000,35100.000,1024780.000,-17000.000,-15000.000,-1000.000,10.202,-6.838,72.705,1.759,13.121,29.357,55921.383,20232.777,79882.828
1512180470,-18.200,28.200,-225.200,-57070.000,52430.000,946530.000,-17000.000,-15000.000,-1000.000,20.019,7.090,60.104,-10.047,-22.850,-37.896,55845.409,20007.664,79958.359
1512180470,-10.700,18.200,-217.800,-102660.000,22030.000,958070.000,-17000.000,-15000.000,-1000.000,15.831,9.230,55.788,-40.398,3.256,-41.306,55470.074,19932.102,79961.502
1512180470,-39.800,16.400,-197.700,-93020.000,70190.000,982060.000,-24000.000,-12000.000,-15000.000,9.403,3.872,56.739,-20.130,-5.098,-32.712,55546.642,20307.224,79736.038
1512180470,-44.700,20.000,-228.200,-63290.000,6590.000,934690.000,-24000.000,-12000.000,-15000.000,9.556,18.844,48.265,30.719,-30.109,16.497,55316.738,19256.870,79362.473
1512180470,-58.600,7.900,-229.600,-55050.000,39490.000,927250.000,-24000.000,-12000.000,-15000.000,7.290,20.963,56.769,-80.571,-21.944,36.620,55921.200,20232.777,79507.828
1512180470,-49.900,16.800,-224.200,-63660.000,35770.000,980900.000,-24000.000,-12000.000,-15000.000,8.472,9.230,49.284,-21.521,-5.768,24.390,55769.848,19932.560,79508.957
1512180470,-50.300,0.500,-231.400,-51570.000,14530.000,920470.000,-24000.000,-12000.000,-15000.000,6.508,14.583,38.610,51.346,-33.230,-19.096,55994.991,19932.896,79807.037
1512180470,-36.000,8.800,-234.600,-47610.000,-5190.000,946840.000,-45000.000,-29000.000,-11000.000,0.985,0.670,50.211,-46.377,-29.274,-1.421,56143.871,19708.118,79580.658
1512180470,-67.900,14.400,-223.400,-84170.000,67930.000,953670.000,-45000.000,-29000.000,-11000.000,-3.128,-19.609,40.488,21.528,-21.332,-2.969,55994.015,19782.887,79206.970
1512180470,-20.500,25.000,-238.400,-10500.000,34550.000,1037600.000,-45000.000,-29000.000,-11000.000,5.355,-3.581,43.864,71.884,-23.880,-16.257,55845.638,20082.676,79733.383
1512180470,-22.800,5.100,-235.200,-62010.000,33630.000,991700.000,-45000.000,-29000.000,-11000.000,-8.560,-22.839,45.725,-0.024,-19.316,5.091,55920.635,20082.783,79732.758
1512180470,-38.600,13.000,-235.800,-22890.000,6900.000,983400.000,-56000.000,-29000.000,-5000.000,-21.238,-27.113,39.133,4.209,-8.181,34.688,55844.891,19932.667,79583.313
1512180470,-18.000,45.300,-236.000,9640.000,49260.000,870480.000,-56000.000,-29000.000,-5000.000,-8.419,-13.205,38.301,-14.298,-13.747,-3.557,55994.854,19932.896,79507.050
1512180470,-1.100,62.900,-235.600,-56640.000,30820.000,943180.000,-56000.000,-29000.000,-5000.000,-11.441,-6.782,27.618,33.580,-18.256,-4.218,55843.578,19707.661,78983.215
1512180470,-31.600,55.700,-243.100,-27650.000,39860.000,932310.000,-56000.000,-29000.000,-5000.000,-23.226,-14.284,30.618,19.586,-19.321,32.131,55766.628,19257.557,79133.652
1512180470,-24.900,66.300,-238.900,-66040.000,51880.000,1014100.000,-56000.000,-29000.000,-5000.000,-31.679,-23.897,26.201,-63.638,5.896,53.550,56070.934,20158.009,79656.509
1512180470,-32.200,60.700,-240.900,-71170.000,21550.000,1028320.000,-43000.000,-35000.000,-6000.000,-16.690,-16.393,22.178,-37.247,-12.553,-15.405,56146.801,20383.121,79355.972
1512180470,0.900,53.100,-233.600,-115480.000,50540.000,972350.000,-43000.000,-35000.000,-6000.000,-16.620,-15.317,17.918,-8.520,-5.919,-27.554,56146.084,20233.112,79280.914
1512180470,-15.200,46.500,-238.600,-112490.000,18680.000,864380.000,-43000.000,-35000.000,-6000.000,-19.824,-23.867,17.842,-29.320,-8.006,-59.932,55995.113,20007.893,79357.086
1512180470,-32.800,15.700,-241.800,-122990.000,21550.000,994080.000,-43000.000,-35000.000,-6000.000,-28.340,-37.763,16.605,5.138,-21.906,25.991,56218.754,19745.731,79017.548
1512180470,-12.900,17.400,-237.200,-96070.000,28930.000,973690.000,-43000.000,-35000.000,-6000.000,-27.737,-36.686,12.353,12.535,-23.340,25.962,56259.228,20383.297,79205.025
1512180470,-14.000,20.000,-242.700,-53470.000,13610.000,977230.000,-43000.000,-28000.000,-3000.000,-20.182,-19.042,7.191,-10.176,-19.337,-20.597,56145.863,20195.622,79168.396
1512180470,1.100,8.400,-240.500,-70500.000,29540.000,937320.000,-43000.000,-28000.000,-3000.000,-15.335,-14.755,4.613,15.789,-15.096,-20.863,56182.254,19970.677,78980.469
1512180470,-24.100,-5.100,-243.500,-41020.000,36130.000,1012390.000,-43000.000,-28000.000,-3000.000,-3.244,-40.390,13.760,8.771,-5.548,14.900,56597.035,20458.797,79164.688
1512180470,-26.400,-14.200,-242.300,-66280.000,41500.000,959230.000,-43000.000,-28000.000,-3000.000,-11.236,-24.916,14.232,-50.635,-13.492,-33.574,56370.052,20008.457,79241.387
1512180470,-14.000,10.300,-241.400,-21670.000,43270.000,988530.000,-52000.000,-29000.000,-11000.000,-7.835,-9.933,2.606,21.144,5.436,6.212,56408.543,20233.517,79203.682
1512180470,-11.200,11.700,-242.500,-47060.000,43460.000,954530.000,-52000.000,-29000.000,-11000.000,-26.073,-17.985,9.243,-79.296,4.072,50.416,56709.057,20346.463,79201.187
1512180470,-12.700,3.900,-241.700,-52310.000,74100.000,1013060.000,-52000.000,-29000.000,-11000.000,-24.318,-6.749,0.246,-5.026,-8.599,30.976,56482.929,20121.128,78977.989
1512180470,-8.500,-10.700,-239.000,-103940.000,32650.000,973270.000,-52000.000,-29000.000,-11000.000,-26.344,-2.998,-5.632,-21.819,31.680,19.662,56446.385,20308.567,79203.392
1512180470,-9.100,-2.400,-238.600,-70560.000,49260.000,925170.000,-52000.000,-29000.000,-11000.000,-35.525,-15.312,0.587,-9.543,26.291,23.158,56295.559,20120.846,79242.088
1512180470,-30.200,4.300,-238.400,-76170.000,42660.000,966800.000,-50000.000,-28000.000,-10000.000,-31.826,-5.699,2.804,12.833,21.076,8.425,56297.604,20570.850,79279.793
1512180470,-6.300,5.700,-237.600,-88440.000,44980.000,954160.000,-50000.000,-28000.000,-10000.000,-29.730,-1.960,5.515,15.277,36.758,11.298,56634.915,20533.856,79239.410
1512180471,2.900,2.800,-236.600,-61460.000,40530.000,925660.000,-50000.000,-28000.000,-10000.000,-46.316,-11.071,8.975,12.645,34.830,57.171,56147.091,20458.118,79281.021
1512180471,-0.400,16.500,-234.900,-36930.000,39430.000,970460.000,-50000.000,-28000.000,-10000.000,-24.995,14.598,10.440,-21.497,41.400,7.244,56820.156,20009.129,79425.064
1512180471,-4.100,21.300,-233.300,-54380.000,30700.000,907780.000,-59000.000,-33000.000,-8000.000,-33.492,-4.641,7.049,13.109,57.332,25.887,56746.761,20384.022,79275.879
1512180471,-2.800,17.400,-230.500,-102230.000,22030.000,988650.000,-59000.000,-33000.000,-8000.000,-21.771,-7.828,7.208,30.801,37.125,-51.724,56823.071,20684.132,79200.378
1512180471,-11.600,7.200,-232.600,-40830.000,47910.000,986880.000,-59000.000,-33000.000,-8000.000,-30.295,-14.246,7.064,21.321,56.901,-5.749,56597.057,20458.790,79202.194
1512180471,-3.900,6.400,-230.000,-53280.000,41260.000,978880.000,-59000.000,-33000.000,-8000.000,-31.374,-8.909,8.133,-20.181,33.793,-27.294,56672.176,20458.912,79426.544
1512180471,1.200,3.900,-231.000,-120240.000,36620.000,994630.000,-59000.000,-33000.000,-8000.000,-29.174,-1.424,3.925,-19.165,38.743,-17.212,56596.127,20233.799,79352.081
1512180471,-2.700,12.700,-232.800,-77030.000,18920.000,961980.000,-73000.000,-29000.000,-1000.000,-35.501,-2.487,0.635,26.355,29.774,-6.207,56367.901,19558.460,78978.683
1512180471,-10.700,20.600,-237.200,-56640.000,49320.000,905880.000,-73000.000,-29000.000,-1000.000,-34.524,-7.842,4.891,-4.098,32.985,1.411,56520.748,20158.680,79277.695
1512180471,3.100,33.600,-238.100,-29970.000,26790.000,963620.000,-73000.000,-29000.000,-1000.000,-31.245,6.058,0.723,-16.041,35.076,-15.523,56525.097,21133.686,79203.140
1512180471,17.700,22.400,-238.200,-44310.000,25880.000,969240.000,-73000.000,-29000.000,-1000.000,-34.486,4.977,2.803,20.089,38.005,9.701,56521.450,20308.689,79352.753
1512180471,17.200,17.200,-236.600,-34790.000,67630.000,973820.000,-73000.000,-29000.000,-1000.000,-36.561,4.982,-0.425,-54.373,43.859,-7.500,56673.748,20833.912,79201.721
1512180471,10.900,16.800,-235.000,-52120.000,430.000,1007810.000,-80000.000,-44000.000,11000.000,-35.465,7.128,-1.465,5.208,32.529,-13.857,56372.051,20458.454,79204.102
1512180471,1.700,4.900,-230.100,-77210.000,27340.000,985410.000,-80000.000,-44000.000,11000.000,-34.418,11.398,-0.369,-17.640,32.745,4.322,56524.609,21058.689,78903.107
1512180471,19.800,2.500,-220.200,-71530.000,69760.000,897340.000,-80000.000,-44000.000,11000.000,-32.342,1.776,1.756,-13.430,25.696,16.365,56749.416,20984.028,79201.157
1512180471,-5.500,2.100,-224.600,-63230.000,30580.000,943050.000,-80000.000,-44000.000,11000.000,-31.287,-1.425,2.828,26.469,28.977,6.836,57047.390,20534.473,79198.395
1512180471,3.500,4.100,-221.600,-51030.000,56090.000,998540.000,-98000.000,-37000.000,-1000.000,-37.641,-8.908,-0.489,-26.816,26.174,24.559,56973.400,20759.357,79199.142
1512180471,-3.500,-2.100,-218.900,-79830.000,47610.000,1039370.000,-98000.000,-37000.000,-1000.000,-35.469,-9.966,-2.592,3.908,29.460,-1.670,56896.496,20384.251,78749.603
1512180471,0.700,-14.800,-221.000,-48520.000,64820.000,961360.000,-98000.000,-37000.000,-1000.000,-31.234,-0.350,-0.365,41.200,35.377,26.980,56821.941,20459.141,78975.281
1512180471,7.100,-18.600,-218.100,-106630.000,28930.000,988160.000,-98000.000,-37000.000,-1000.000,-34.440,11.393,0.695,-33.851,28.276,47.975,56971.722,20459.354,78524.017
1512180471,7.200,-8.500,-218.900,-91610.000,21670.000,952510.000,-98000.000,-37000.000,-1000.000,-31.318,3.912,4.978,-34.669,49.674,51.662,56972.851,20684.361,78749.100
1512180471,13.000,1.500,-214.800,-45040.000,59690.000,967900.000,-86000.000,-49000.000,-16000.000,-19.492,16.762,-0.134,-9.912,42.443,5.518,56973.217,20759.357,78824.142
1512180471,3.300,-0.300,-217.600,-74830.000,43580.000,1003540.000,-86000.000,-49000.000,-16000.000,-15.216,27.445,-1.105,10.240,30.335,-10.740,57121.197,20309.589,78822.662
1512180471,3.100,-2.300,-213.700,-63170.000,55300.000,984500.000,-86000.000,-49000.000,-16000.000,-25.961,15.673,4.031,-25.022,56.402,39.388,57194.317,19934.681,78446.854
1512180471,5.300,-17.800,-211.500,-99730.000,60180.000,953860.000,-86000.000,-49000.000,-16000.000,-8.924,16.766,5.348,-25.893,37.420,-3.276,56968.273,19709.354,78373.657
1512180471,1.700,-24.200,-211.700,-83250.000,13920.000,996400.000,-86000.000,-49000.000,-16000.000,-15.231,13.564,-0.084,-4.643,36.384,-6.350,57197.842,20684.696,78747.192
1512180471,-0.100,-12.300,-209.900,-74040.000,50480.000,943910.000,-93000.000,-42000.000,-16000.000,-11.431,19.984,-4.272,-34.411,35.918,10.564,57572.536,20647.755,78444.000
1512180471,23.300,8.700,-206.000,-63290.000,26120.000,915650.000,-93000.000,-42000.000,-16000.000,-5.357,22.157,-16.434,1.430,45.770,-29.079,57646.290,20385.364,78330.735
1512180471,-10.300,1.100,-208.000,-35890.000,27470.000,1026610.000,-93000.000,-42000.000,-16000.000,-11.161,-1.344,-21.398,-24.396,42.764,21.543,57909.062,20460.758,78178.543
1512180471,0.800,1.500,-204.500,-10740.000,53830.000,987790.000,-93000.000,-42000.000,-16000.000,-1.508,9.894,-24.418,-31.806,33.549,0.472,58172.741,20723.660,78176.430
1512180471,-1.300,10.100,-205.200,-50350.000,74400.000,977540.000,-108000.000,-40000.000,-1000.000,-1.345,1.369,-34.572,-16.744,41.600,-5.376,58396.053,20386.494,77836.861
1512180471,-14.600,7.700,-204.000,-41690.000,18800.000,987850.000,-108000.000,-40000.000,-1000.000,-7.247,-17.340,-33.659,-50.670,23.043,20.041,58472.248,20686.611,77536.362
1512180471,8.900,9.200,-200.400,-67200.000,61280.000,956970.000,-108000.000,-40000.000,-1000.000,-4.380,-5.559,-44.767,-65.151,34.822,8.178,58583.477,20424.274,77347.786
1512180471,30.100,0.800,-195.500,-104370.000,60670.000,978940.000,-108000.000,-40000.000,-1000.000,2.109,2.473,-49.975,-34.388,29.075,-14.819,58619.641,20124.324,77384.827
1512180471,11.100,-13.300,-193.300,-68120.000,57430.000,939940.000,-108000.000,-40000.000,-1000.000,-6.930,8.333,-51.688,-95.390,33.550,-0.167,59148.174,20912.617,77343.231
1512180471,-0.500,-12.800,-188.400,-29420.000,44130.000,948300.000,-96000.000,-52000.000,-13000.000,-6.691,28.658,-64.938,-76.840,32.727,4.453,59147.366,20762.622,77080.666
1512180471,-2.700,-10.400,-186.400,-46140.000,37720.000,947570.000,-96000.000,-52000.000,-13000.000,-10.898,24.388,-68.211,-91.539,21.215,51.246,59257.893,20350.292,76854.515
1512180471,-18.600,-3.500,-190.800,-45900.000,36070.000,942020.000,-96000.000,-52000.000,-13000.000,-8.678,12.649,-74.618,-65.431,19.401,19.553,60048.023,20951.466,76698.105
1512180472,-19.000,-1.900,-193.100,-17460.000,26180.000,977840.000,-96000.000,-52000.000,-13000.000,-6.486,-0.157,-78.895,-18.079,23.776,5.680,59820.904,20538.624,76174.820
1512180472,-22.900,-7.700,-195.700,-45170.000,49990.000,984130.000,-114000.000,-38000.000,-10000.000,-2.227,21.210,-77.693,-13.445,29.835,-14.706,60122.967,20989.079,76247.482
1512180472,1.100,-3.900,-189.200,-44250.000,65670.000,964110.000,-114000.000,-38000.000,-10000.000,-4.284,30.834,-80.884,-55.208,44.347,-24.138,60274.578,21289.310,76771.347
1512180472,-18.000,4.800,-190.000,-56460.000,-7570.000,969420.000,-114000.000,-38000.000,-10000.000,-4.286,32.961,-81.948,-79.509,19.529,-20.695,60649.441,21289.875,76468.170
1512180472,-35.600,15.700,-185.000,-25630.000,47610.000,923650.000,-114000.000,-38000.000,-10000.000,1.172,32.995,-88.259,-20.781,17.547,-28.579,60572.628,20914.753,76243.637
1512180472,-10.900,17.300,-175.800,-50840.000,23860.000,934940.000,-114000.000,-38000.000,-10000.000,-2.055,30.846,-87.250,-61.811,37.409,-39.952,60497.753,20989.643,75794.296
1512180472,-29.700,-4.800,-171.900,-21730.000,2870.000,942750.000,-117000.000,-49000.000,-3000.000,-5.244,15.890,-88.414,-66.137,15.029,-33.729,60346.279,20689.426,75570.435
1512180472,-20.900,-12.800,-159.400,-3420.000,45350.000,1002080.000,-117000.000,-49000.000,-3000.000,-9.457,10.549,-91.691,-41.448,28.517,2.230,60647.259,20914.875,75492.996
1512180472,-17.000,-18.600,-166.200,-56270.000,-14710.000,1015750.000,-117000.000,-49000.000,-3000.000,-4.214,20.158,-86.253,-69.841,32.542,-8.937,60724.590,21439.991,75417.587
1512180472,-21.000,-8.000,-168.600,-56950.000,50660.000,1042110.000,-117000.000,-49000.000,-3000.000,-3.025,14.835,-93.716,-85.462,27.061,12.207,60946.438,20765.324,75190.369
1512180472,-16.600,-3.300,-171.000,-47790.000,7570.000,1017700.000,-117000.000,-49000.000,-3000.000,3.508,23.410,-101.051,-61.923,45.997,-30.063,60872.219,20915.211,75416.077
1512180472,10.100,-7.600,-168.800,-31560.000,-850.000,875980.000,-122000.000,-44000.000,-11000.000,14.202,20.220,-104.109,-9.641,36.428,-49.257,60873.089,21140.202,75116.180
1512180472,14.900,-30.800,-164.600,-68360.000,10380.000,824950.000,-122000.000,-44000.000,-11000.000,8.812,0.982,-101.055,-41.692,23.787,-23.736,61171.688,20915.653,74363.541
1512180472,7.900,-59.900,-164.800,-102720.000,40100.000,993100.000,-122000.000,-44000.000,-11000.000,6.661,-17.184,-101.150,-73.091,32.486,-19.584,61021.511,20840.427,74664.780
1512180472,-18.400,-58.500,-163.500,-77820.000,55660.000,1055480.000,-122000.000,-44000.000,-11000.000,8.906,-34.255,-108.639,-27.033,31.789,-13.456,61546.551,20841.221,74735.321
1512180472,-10.800,-14.000,-167.600,-38330.000,31680.000,1019710.000,-124000.000,-49000.000,-10000.000,20.690,-25.685,-111.636,-11.330,32.981,-42.392,61694.561,20466.450,74133.865
1512180472,-4.100,20.200,-166.700,25570.000,22950.000,979060.000,-124000.000,-49000.000,-10000.000,24.930,-24.616,-110.507,-33.635,41.095,-25.169,61393.887,20315.998,74136.337
1512180472,0.000,9.200,-165.100,59750.000,19350.000,939330.000,-124000.000,-49000.000,-10000.000,22.784,-17.145,-109.446,-73.896,35.610,-5.832,61466.671,19866.093,73760.498
1512180472,-7.600,-10.900,-155.000,43150.000,-14160.000,996640.000,-124000.000,-49000.000,-10000.000,32.433,-5.370,-111.395,-71.221,32.515,-30.874,61687.405,18966.434,73308.167
1512180472,-24.200,-24.100,-136.200,-45170.000,28020.000,1017210.000,-124000.000,-49000.000,-10000.000,26.122,-7.506,-116.824,-61.410,26.283,0.921,62070.644,20767.002,73605.820
1512180472,-38.100,-11.200,-138.100,-52060.000,43090.000,992130.000,-133000.000,-44000.000,-8000.000,28.265,-7.505,-117.861,-105.034,24.508,7.037,62143.032,20167.118,73754.898
1512180472,-33.400,26.100,-145.300,2750.000,-18370.000,989500.000,-133000.000,-44000.000,-8000.000,15.579,-20.325,-124.484,-90.447,35.078,33.108,62367.245,20017.445,73527.924
1512180472,2.300,37.600,-133.000,-6290.000,28020.000,962460.000,-133000.000,-44000.000,-8000.000,22.046,-6.425,-128.608,-127.855,13.998,28.585,62139.996,19492.115,73754.593
1512180472,-28.500,16.100,-135.600,8360.000,-730.000,1003910.000,-133000.000,-44000.000,-8000.000,17.949,-4.280,-139.323,-105.376,32.386,38.221,62065.807,19716.999,73380.325
1512180472,-31.000,-2.300,-133.700,-8790.000,19170.000,938780.000,-133000.000,-44000.000,-8000.000,24.947,5.891,-142.382,-113.521,43.722,-6.004,62288.822,19229.840,73790.688
1512180472,-17.600,14.900,-125.400,-2380.000,9640.000,904660.000,-138000.000,-35000.000,-6000.000,18.626,22.445,-146.147,-105.428,30.758,23.361,62286.739,18742.337,74015.465
1512180472,-2.700,17.800,-120.000,-21180.000,21550.000,953800.000,-138000.000,-35000.000,-6000.000,25.021,27.264,-145.504,-107.408,29.162,25.850,62359.310,18217.442,73864.586
1512180472,-14.000,4.400,-111.500,-20510.000,430.000,945130.000,-138000.000,-35000.000,-6000.000,30.488,22.482,-153.969,-62.796,39.148,8.277,62322.743,18367.382,74389.976
1512180472,-1.900,6.900,-101.700,27950.000,5310.000,953430.000,-138000.000,-35000.000,-6000.000,32.626,6.465,-155.060,-80.349,29.689,22.603,62437.000,18705.059,74876.678
1512180472,-23.800,10.000,-90.100,25090.000,3420.000,991030.000,-137000.000,-29000.000,-1000.000,33.801,7.012,-161.971,-64.335,20.648,-14.276,62436.611,18592.556,75101.623
1512180472,-22.400,8.100,-84.400,36680.000,-20260.000,972110.000,-137000.000,-29000.000,-1000.000,27.490,-8.476,-167.980,-80.737,13.828,-0.828,62888.806,19043.232,75435.501
1512180472,-21.300,9.200,-71.500,82150.000,-430.000,987430.000,-137000.000,-29000.000,-1000.000,24.283,-20.765,-168.070,-54.906,35.056,-26.650,62777.187,19230.564,75511.543
1512180472,-28.400,17.000,-66.200,63050.000,-4030.000,957820.000,-137000.000,-29000.000,-1000.000,14.243,-24.505,-173.023,-115.744,28.729,4.970,62966.755,19643.352,75922.638
1512180472,-10.400,26.100,-54.500,55050.000,-9700.000,957340.000,-137000.000,-29000.000,-1000.000,13.766,-18.624,-176.208,-93.273,31.178,-23.125,62930.958,19980.793,76298.111
1512180472,-17.200,17.400,-44.900,39250.000,3170.000,976010.000,-147000.000,-26000.000,-1000.000,4.199,-31.988,-178.526,-113.162,19.895,-20.208,63118.740,20056.080,76184.059
1512180472,6.500,15.200,-32.900,58230.000,-34970.000,955990.000,-147000.000,-26000.000,-1000.000,-4.644,-36.784,-192.531,-99.945,20.892,-20.937,63118.031,19868.580,76446.472
1512180472,-1.200,-1.500,-20.200,47300.000,8060.000,937870.000,-147000.000,-26000.000,-1000.000,-9.912,-35.718,-196.335,-102.326,39.082,-45.498,63234.577,20768.749,76445.931
1512180473,10.500,6.700,-10.000,65670.000,2990.000,921200.000,-147000.000,-26000.000,-1000.000,-9.913,-38.387,-196.344,-65.837,17.952,-37.610,63573.467,21069.263,76518.204
1512180473,-19.200,4.800,-6.400,64940.000,-35100.000,987240.000,-142000.000,-42000.000,0.000,-9.858,-40.515,-199.548,-165.644,29.806,-8.385,63572.491,20844.257,76593.094
1512180473,-3.300,8.400,7.100,69150.000,12390.000,919980.000,-142000.000,-42000.000,0.000,-6.541,-43.701,-206.974,-135.206,39.903,0.726,63349.926,21368.931,76745.239
1512180473,-14.200,14.400,5.300,55300.000,-3780.000,1023190.000,-142000.000,-42000.000,0.000,12.817,-24.425,-216.221,-85.412,31.271,-51.507,63049.923,21368.473,76747.803
1512180473,-1.300,13.200,9.900,66280.000,-850.000,997010.000,-142000.000,-42000.000,0.000,15.826,-14.831,-204.418,-141.180,43.207,-28.685,63499.935,21369.144,76743.973
1512180473,21.200,22.500,18.100,53710.000,21060.000,954410.000,-142000.000,-42000.000,0.000,9.373,-16.985,-201.322,-200.715,50.539,20.108,63048.946,21143.467,76822.693
1512180473,2.700,19.400,23.400,62990.000,-23380.000,1047850.000,-142000.000,-21000.000,-13000.000,28.629,10.822,-204.145,-155.610,32.015,-36.693,63276.989,21818.821,76821.091
1512180473,8.100,26.900,29.400,63900.000,-4270.000,972660.000,-142000.000,-21000.000,-13000.000,23.464,9.768,-213.816,-143.117,38.352,34.120,63504.513,22419.163,76444.458
1512180473,0.000,35.000,36.200,65730.000,-32780.000,962950.000,-142000.000,-21000.000,-13000.000,26.572,7.626,-208.448,-133.655,30.442,-14.733,63280.407,22568.821,76896.439
1512180473,0.500,34.500,42.600,73120.000,-39180.000,928960.000,-142000.000,-21000.000,-13000.000,30.877,-1.977,-211.618,-174.794,32.849,15.038,63354.046,22268.925,76895.660
1512180473,-5.100,22.000,46.600,42480.000,-39310.000,897580.000,-142000.000,-21000.000,-13000.000,28.854,0.170,-218.036,-142.248,39.156,4.819,63355.145,22493.931,77045.761
1512180473,-25.000,11.100,49.800,43090.000,-64820.000,959290.000,-138000.000,-28000.000,3000.000,35.388,4.467,-226.456,-82.623,41.093,-18.863,63354.687,22418.934,76820.740
1512180473,-32.500,13.700,53.500,24350.000,-85510.000,913510.000,-138000.000,-28000.000,3000.000,18.225,-1.981,-220.331,-173.923,11.711,4.216,63580.929,22644.276,77268.921
1512180473,-33.200,32.600,53.000,22580.000,-95760.000,915590.000,-138000.000,-28000.000,3000.000,28.016,7.670,-231.882,-122.359,26.380,23.986,63581.524,22794.270,77118.988
1512180473,-27.700,29.400,54.200,44370.000,-123660.000,924680.000,-138000.000,-28000.000,3000.000,21.647,15.141,-233.014,-68.592,35.267,10.427,63656.902,22869.389,77193.390
1512180473,-22.900,16.800,56.500,7690.000,-86980.000,914370.000,-130000.000,-1000.000,-1000.000,15.144,-4.109,-227.846,-136.528,17.245,27.302,63657.925,23094.395,77193.497
1512180473,-28.600,11.600,59.700,28080.000,-103150.000,953740.000,-130000.000,-1000.000,-1000.000,26.938,4.466,-230.841,-105.916,28.607,0.475,63732.922,23094.501,77192.856
1512180473,-4.000,10.900,65.800,-5980.000,-89420.000,976140.000,-130000.000,-1000.000,-1000.000,25.881,2.334,-230.861,-63.745,29.832,1.609,63281.643,22793.812,77346.542
1512180473,-9.700,21.000,71.100,23620.000,-68910.000,984190.000,-130000.000,-1000.000,-1000.000,30.057,4.465,-225.463,-113.151,16.593,0.776,63734.112,23319.492,77567.963
1512180473,-10.100,6.500,73.500,-9280.000,-113890.000,982850.000,-130000.000,-1000.000,-1000.000,32.206,8.734,-227.555,-144.330,30.458,17.090,63510.357,23619.160,77345.001
1512180473,-5.500,1.300,70.000,35950.000,-72880.000,980040.000,-128000.000,-31000.000,3000.000,28.112,-0.857,-237.237,-67.798,38.052,8.565,63661.114,23769.398,77493.790
1512180473,-5.900,-9.900,67.000,36870.000,-86670.000,1001650.000,-128000.000,-31000.000,3000.000,25.899,0.193,-233.004,-91.969,16.082,-29.368,63886.074,23769.733,77416.885
1512180473,2.100,-11.500,69.000,57310.000,-103450.000,942140.000,-128000.000,-31000.000,3000.000,17.458,-5.149,-238.475,-101.233,8.209,47.888,63961.514,23844.837,77641.281
1512180473,11.500,-4.000,67.400,34180.000,-73910.000,952330.000,-128000.000,-31000.000,3000.000,13.168,-1.952,-236.393,-130.118,22.665,40.375,63585.354,23619.282,77344.376
1512180473,8.300,-11.200,65.600,-5550.000,-110170.000,930660.000,-128000.000,-31000.000,3000.000,18.519,-9.421,-238.475,-131.798,22.297,14.047,63813.274,24219.624,77792.740
1512180473,16.900,-23.800,72.300,36070.000,-101750.000,914550.000,-135000.000,-21000.000,-3000.000,21.795,-14.750,-243.778,-88.642,16.313,-3.047,64188.583,24295.185,77714.584
1512180473,24.600,-22.200,73.800,18980.000,-105040.000,908570.000,-135000.000,-21000.000,-3000.000,22.331,-28.629,-243.815,-130.550,35.535,-5.819,63776.584,24407.063,77718.140
1512180473,24.000,-21.000,82.700,25150.000,-79350.000,950440.000,-135000.000,-21000.000,-3000.000,26.672,-31.820,-249.095,-95.677,40.363,-14.412,63513.058,24181.668,77682.770
1512180473,25.700,-16.000,82.400,67500.000,-98880.000,910220.000,-135000.000,-21000.000,-3000.000,41.258,-25.366,-260.589,-148.973,36.743,-47.462,63440.906,24781.559,77983.681
1512180473,1.700,-5.700,84.800,45230.000,-63720.000,1025020.000,-128000.000,-31000.000,6000.000,40.307,-42.979,-268.659,-119.233,52.252,-40.549,63592.533,25119.289,78207.558
1512180473,14.600,25.400,86.400,58410.000,-94300.000,1049990.000,-128000.000,-31000.000,6000.000,49.294,-33.361,-263.699,-145.807,39.707,-71.704,63406.628,25456.508,78359.306
1512180473,6.500,31.800,86.400,54930.000,-85270.000,1033750.000,-128000.000,-31000.000,6000.000,41.355,-25.888,-266.452,-148.190,38.608,-56.688,63220.364,25718.731,78473.526
1512180473,31.700,41.500,87.600,42600.000,-85270.000,980290.000,-128000.000,-31000.000,6000.000,42.738,-11.967,-285.575,-150.718,51.210,-29.055,63482.639,25681.621,78358.772
1512180473,16.100,30.600,90.800,49990.000,-70800.000,974980.000,-128000.000,-31000.000,6000.000,44.226,-17.315,-278.641,-140.587,59.682,-30.597,63335.117,26206.401,78585.296
1512180473,-8.100,21.400,99.900,79960.000,-47000.000,979060.000,-112000.000,-15000.000,11000.000,56.145,13.167,-289.024,-172.710,42.763,-37.905,63447.743,26244.076,78509.353
1512180473,-23.200,32.400,105.100,36190.000,-86490.000,969300.000,-112000.000,-15000.000,11000.000,50.213,14.754,-284.304,-144.276,37.293,20.362,63635.211,26244.351,78432.754
1512180473,-35.400,41.100,113.500,37600.000,-52190.000,972290.000,-112000.000,-15000.000,11000.000,59.906,16.911,-291.090,-133.908,49.440,-14.110,63900.221,26807.248,78393.288
1512180473,-30.900,43.000,113.100,85940.000,-58230.000,963380.000,-112000.000,-15000.000,11000.000,56.660,6.758,-287.971,-119.963,45.178,-12.570,63825.192,26807.140,78318.924
1512180474,-12.700,29.800,115.700,59140.000,-67500.000,932070.000,-112000.000,-15000.000,11000.000,60.880,7.824,-285.776,-122.722,44.595,16.508,63900.738,26919.743,78393.341
1512180474,-6.700,6.400,118.000,74280.000,-4030.000,916380.000,-112000.000,-22000.000,5000.000,59.822,-3.927,-286.899,-47.019,42.706,15.442,64200.363,26845.203,78315.765
1512180474,-30.900,-17.700,113.900,51150.000,-85450.000,980530.000,-112000.000,-22000.000,5000.000,70.324,8.891,-276.039,-98.959,36.814,-24.929,64053.131,27444.981,78467.316
1512180474,-16.900,-26.800,116.800,850.000,-16420.000,1005070.000,-112000.000,-22000.000,5000.000,69.251,1.412,-276.081,-112.339,30.514,15.441,64352.875,27370.426,78614.716
1512180474,-13.000,0.500,114.900,52800.000,-730.000,1011230.000,-112000.000,-22000.000,5000.000,74.549,-6.064,-274.966,-94.130,35.725,-22.083,64127.563,27295.094,78691.589
1512180474,-2.000,-0.100,120.100,36250.000,-49190.000,958010.000,-117000.000,-17000.000,10000.000,76.620,-15.681,-271.771,-50.719,40.430,-25.320,64128.769,27595.097,78391.739
1512180474,-0.500,-6.400,124.500,68180.000,-20450.000,963200.000,-117000.000,-17000.000,10000.000,80.786,-29.571,-266.429,-41.183,42.189,-24.952,64503.769,27595.661,78388.550
1512180474,9.200,-23.300,134.400,61650.000,-40590.000,937130.000,-117000.000,-17000.000,10000.000,68.941,-53.101,-260.286,-75.952,28.974,-6.262,64430.054,27895.542,78239.334
1512180474,23.300,-28.000,142.200,54570.000,-38210.000,908510.000,-117000.000,-17000.000,10000.000,82.811,-53.079,-261.151,-83.614,21.291,-26.569,64728.806,27595.997,78461.639
1512180474,19.800,-18.800,150.500,85390.000,-19470.000,884090.000,-117000.000,-17000.000,10000.000,76.395,-56.297,-260.190,-53.036,52.638,-24.543,64505.127,27895.664,78388.687
1512180474,7.500,-17.400,152.500,90090.000,-52730.000,1021240.000,-119000.000,-15000.000,5000.000,69.972,-64.849,-258.177,-65.722,56.018,-32.219,64279.144,27670.322,78465.500
1512180474,-2.400,-16.000,159.800,80320.000,-20510.000,938480.000,-119000.000,-15000.000,5000.000,69.868,-74.478,-252.884,-77.142,46.077,-67.397,64203.735,27595.203,78316.101
1512180474,8.900,-7.200,164.600,73850.000,-34550.000,964230.000,-119000.000,-15000.000,5000.000,63.487,-79.826,-254.061,-86.575,42.958,-32.380,64281.174,28120.319,78465.714
1512180474,10.800,-6.000,166.600,126220.000,-14280.000,895450.000,-119000.000,-15000.000,5000.000,50.756,-95.860,-258.566,-60.166,24.120,-8.502,64507.446,28420.658,78313.934
1512180474,10.700,0.400,173.000,140010.000,-25150.000,888730.000,-119000.000,-15000.000,5000.000,46.332,-89.480,-249.015,-122.918,50.632,6.000,64281.586,28270.329,77940.781
1512180474,24.200,-1.600,176.600,98750.000,-54930.000,973080.000,-107000.000,-17000.000,-6000.000,49.672,-63.824,-256.339,-189.890,70.275,6.262,64131.287,28195.103,78017.014
1512180474,-1.700,-6.800,181.200,126280.000,-28810.000,919250.000,-107000.000,-17000.000,-6000.000,45.526,-54.201,-262.761,-107.149,63.135,-12.601,64130.753,28120.106,77641.983
1512180474,13.400,8.500,190.400,93630.000,-1220.000,916500.000,-107000.000,-17000.000,-6000.000,41.174,-33.924,-256.357,-159.765,85.528,-27.492,64808.868,28796.116,77786.560
1512180474,14.200,3.900,199.700,74890.000,-22400.000,984920.000,-107000.000,-17000.000,-6000.000,33.744,-44.611,-258.633,-178.859,82.839,-17.512,64583.237,28645.771,77863.403
1512180474,8.700,10.800,204.800,122620.000,-35830.000,937930.000,-105000.000,-19000.000,8000.000,38.147,-25.368,-267.035,-140.951,97.872,-49.729,64508.865,28795.658,77789.108
1512180474,14.800,4.800,216.800,58470.000,16360.000,977540.000,-105000.000,-19000.000,8000.000,18.902,-24.332,-263.043,-134.739,114.217,4.246,64283.875,28795.322,77791.016
1512180474,20.900,5.500,222.600,58590.000,5070.000,942080.000,-105000.000,-19000.000,8000.000,29.486,4.510,-257.461,-176.931,88.785,-49.317,64433.533,28720.554,77789.719
1512180474,20.200,-8.100,230.800,85330.000,43950.000,918210.000,-105000.000,-19000.000,8000.000,27.477,15.207,-263.847,-161.441,92.260,-36.672,64732.971,28571.003,78012.085
1512180474,11.200,-14.400,225.800,33570.000,-120.000,1024780.000,-105000.000,-19000.000,8000.000,25.285,14.125,-260.686,-130.491,92.856,-45.219,64508.759,28795.658,77564.102
1512180474,13.300,-10.000,264.900,106570.000,-13120.000,953490.000,-98000.000,-22000.000,15000.000,13.475,-14.739,-256.692,-136.396,79.318,16.263,64735.565,29171.009,77787.369
1512180474,21.400,-6.500,235.000,123050.000,-22640.000,948910.000,-98000.000,-22000.000,15000.000,25.253,2.370,-259.663,-147.368,81.365,-28.020,64660.889,29245.899,77788.040
1512180474,21.400,0.700,239.700,94600.000,-7450.000,988650.000,-98000.000,-22000.000,15000.000,24.251,3.448,-262.869,-87.321,75.414,-9.117,64512.733,29658.176,77752.014
1512180474,4.700,0.800,242.500,141050.000,-12940.000,979740.000,-98000.000,-22000.000,15000.000,42.235,9.868,-254.058,-94.714,76.073,-17.982,64965.362,30221.348,77935.936
1512180474,27.000,2.400,242.100,137940.000,10380.000,983220.000,-80000.000,-19000.000,5000.000,45.381,2.389,-251.373,-60.944,81.343,-42.976,64816.734,30483.624,78312.339
1512180474,45.400,22.200,239.600,148680.000,12940.000,988710.000,-80000.000,-19000.000,5000.000,40.018,-7.770,-249.887,-74.008,91.703,-26.280,64890.457,30221.233,78124.077
1512180474,60.300,25.200,242.500,117250.000,7260.000,955870.000,-80000.000,-19000.000,5000.000,36.678,-24.881,-241.999,-123.599,69.255,11.486,64779.923,30633.571,78350.228
1512180474,63.400,35.200,266.300,122920.000,-8610.000,967590.000,-80000.000,-19000.000,5000.000,34.090,-32.884,-246.861,-79.204,88.822,-22.194,65005.379,30746.403,78235.863
1512180474,42.200,25.300,268.700,96740.000,-21180.000,967710.000,-80000.000,-19000.000,5000.000,35.649,-21.140,-244.134,-98.536,79.771,-15.783,65005.051,30708.912,77935.852
1512180474,58.100,31.300,312.400,78550.000,30270.000,1001590.000,-65000.000,-3000.000,-3000.000,39.442,-16.321,-247.794,-77.206,76.088,-39.055,65007.759,31271.419,78273.605
1512180474,47.700,16.500,272.300,65730.000,17090.000,928280.000,-65000.000,-3000.000,-3000.000,32.508,-35.558,-248.495,-93.919,57.371,0.894,64934.425,31646.305,78236.908
1512180474,26.600,15.200,263.900,40950.000,-430.000,943730.000,-65000.000,-3000.000,-3000.000,24.512,-49.991,-249.194,-81.073,53.850,14.836,64932.831,31346.302,77749.276
1512180474,42.200,18.100,266.200,94180.000,11050.000,890930.000,-65000.000,-3000.000,-3000.000,22.390,-43.051,-249.734,-77.562,34.290,8.046,65236.305,32096.752,77934.578
1512180474,16.100,7.300,267.200,103210.000,-13120.000,914120.000,-65000.000,-3000.000,-3000.000,9.997,-50.562,-241.945,-71.419,40.300,12.220,65087.516,32434.033,77336.006
1512180475,28.800,2.400,268.600,117980.000,7630.000,914550.000,-63000.000,15000.000,-11000.000,17.414,-41.477,-238.607,-64.558,40.721,-4.954,65199.295,32246.708,77559.967
1512180475,7.100,4.400,271.000,93810.000,-12150.000,947940.000,-63000.000,15000.000,-11000.000,20.534,-24.393,-233.172,-75.537,46.005,-29.154,65201.050,32621.708,77710.144
1512180475,16.900,5.100,272.600,82090.000,11600.000,1035340.000,-63000.000,15000.000,-11000.000,16.144,-21.213,-225.764,-93.253,60.709,-7.430,65277.405,32921.818,77709.641
1512180475,33.200,-0.500,281.100,79830.000,-7200.000,958190.000,-63000.000,15000.000,-11000.000,19.332,-8.393,-224.608,-128.354,38.972,-38.406,64901.016,32621.250,77637.680
1512180475,16.200,-4.300,275.900,54570.000,1530.000,987920.000,-63000.000,15000.000,-11000.000,8.762,-19.075,-230.126,-104.345,42.077,1.927,65203.049,33071.705,77635.345
1512180475,12.900,-19.000,281.100,108950.000,-5430.000,938600.000,-56000.000,-12000.000,-5000.000,11.847,-19.087,-223.687,-117.823,32.550,8.061,65203.049,33071.705,77635.345
1512180475,13.700,-17.800,284.600,93810.000,-3600.000,964290.000,-56000.000,-12000.000,-5000.000,-2.003,-29.783,-223.921,-125.282,26.824,42.303,65578.186,33147.266,77257.187
1512180475,6.100,-17.800,290.300,108400.000,22770.000,867370.000,-56000.000,-12000.000,-5000.000,9.758,-15.871,-224.766,-86.010,48.245,0.817,65504.608,33447.163,77407.974
1512180475,9.300,-16.100,288.200,83920.000,-6040.000,1028990.000,-56000.000,-12000.000,-5000.000,15.001,9.753,-219.275,-84.946,35.121,-22.818,65729.202,33372.501,77256.027
1512180475,16.500,-27.400,293.500,124760.000,920.000,923770.000,-42000.000,5000.000,-18000.000,16.004,15.089,-214.977,-61.210,40.467,-29.766,65578.537,33222.263,77257.233
1512180475,19.400,-20.900,292.800,117680.000,-1280.000,924320.000,-42000.000,5000.000,-18000.000,21.218,36.442,-207.367,-124.468,36.514,-44.693,65278.336,33221.821,76884.781
1512180475,28.400,-6.700,297.100,123540.000,22280.000,907410.000,-42000.000,5000.000,-18000.000,20.236,30.042,-212.733,-63.640,44.822,-47.659,65803.787,33297.611,77105.347
1512180475,23.700,10.900,290.300,167600.000,-26310.000,989810.000,-42000.000,5000.000,-18000.000,11.626,23.607,-208.618,1.895,13.552,-48.646,65730.179,33597.492,77181.122
1512180475,12.700,11.900,292.400,162480.000,4030.000,974550.000,-42000.000,5000.000,-18000.000,-2.375,2.211,-200.364,-44.593,26.424,12.239,65881.302,33897.724,76729.996
1512180475,15.000,15.800,297.600,125850.000,-3170.000,956970.000,-57000.000,10000.000,3000.000,-11.009,-5.290,-194.118,-57.567,23.486,51.217,65804.535,33522.602,76580.460
1512180475,59.900,24.600,305.900,128170.000,38090.000,923710.000,-57000.000,10000.000,3000.000,-0.386,0.061,-191.815,-34.735,30.112,11.637,65429.199,33447.041,76583.618
1512180475,24.600,14.800,305.200,120300.000,-9520.000,953550.000,-57000.000,10000.000,3000.000,2.683,0.048,-184.309,-14.027,36.374,-1.915,64979.950,33671.375,76062.546
1512180475,59.900,27.300,315.200,76540.000,12510.000,977420.000,-57000.000,10000.000,3000.000,2.636,-2.091,-181.117,-27.938,21.077,-7.990,65207.092,34121.708,76285.843
1512180475,24.000,29.200,316.800,74280.000,-16850.000,961910.000,-33000.000,10000.000,3000.000,-0.648,-2.106,-175.834,-35.697,34.325,-0.528,65431.076,33897.053,76283.829
1512180475,24.500,33.800,321.400,89970.000,-38700.000,988460.000,-33000.000,10000.000,3000.000,-5.067,-19.222,-167.430,-10.891,36.749,18.178,65055.664,33821.491,76136.978
1512180475,30.500,22.400,322.800,78550.000,-32040.000,997990.000,-33000.000,10000.000,3000.000,7.608,-7.467,-159.743,-6.065,32.782,13.377,64980.774,33821.369,76362.610
1512180475,19.300,22.500,327.300,42910.000,26060.000,1031370.000,-33000.000,10000.000,3000.000,-2.073,1.049,-154.525,-27.413,34.317,17.450,65132.309,34196.598,76061.508
1512180475,36.000,36.100,323.400,59330.000,-1340.000,985900.000,-33000.000,10000.000,3000.000,-2.178,3.172,-148.123,-30.594,21.101,4.215,64979.095,33521.366,75687.469
1512180475,22.400,28.900,330.500,75070.000,310.000,1010070.000,-42000.000,-8000.000,5000.000,-2.215,-4.307,-146.017,-48.929,20.489,21.948,64982.956,34346.378,75987.854
