unixtime,rx,ry,rz,ax,ay,az,mx,my,mz,apprx,appry,apprz,appax,appay,appaz,appmx,appmy,appmz
1512180272,-15.000,5.500,0.300,-22030.000,-26790.000,979250.000,-7000.000,-1000.000,1000.000,-2.305,-1.728,0.230,1.006,4.752,-5.283,14075.367,-3315.647,-21059.883
1512180272,6.000,-2.000,-0.700,-21550.000,-14340.000,990110.000,-7000.000,-1000.000,1000.000,-5.494,-17.753,-0.938,-8.807,-3.228,-1.539,14074.772,-3465.656,-20909.950
1512180272,5.200,2.000,-0.100,-23930.000,-16720.000,971980.000,-7000.000,-1000.000,1000.000,9.426,27.130,1.566,15.965,6.727,12.253,14229.603,-2415.424,-20685.738
1512180272,-11.100,2.100,1.200,-19040.000,-22030.000,976200.000,1000.000,0.000,0.000,-11.904,-28.448,-1.071,-11.108,1.773,-2.064,14454.014,-2565.083,-20537.727
1512180272,-2.400,1.500,1.300,-17520.000,-20810.000,997250.000,1000.000,0.000,0.000,12.643,25.002,0.539,14.643,-9.547,11.967,14302.509,-2865.314,-20836.586
1512180272,-7.200,3.700,-0.300,-27040.000,-22830.000,990170.000,1000.000,0.000,0.000,-4.442,-12.412,0.159,-4.092,4.470,-8.535,14153.339,-2715.534,-20535.240
1512180272,-8.900,2.900,-0.300,-19170.000,-16850.000,984310.000,1000.000,0.000,0.000,-3.376,-8.140,0.189,-1.486,-3.714,-2.165,14527.592,-2864.964,-20688.499
1512180272,-3.500,4.900,-0.100,-27160.000,-18680.000,1007080.000,0.000,15000.000,-1000.000,9.439,23.926,0.487,17.795,6.234,4.729,14150.562,-3315.540,-20685.524
1512180272,-21.600,9.600,-3.100,-61220.000,-36870.000,984800.000,0.000,15000.000,-1000.000,-11.914,-31.649,-0.014,-15.504,3.758,-0.918,14153.599,-2640.537,-20685.204
1512180272,12.800,5.100,-5.900,-62620.000,-41260.000,996700.000,0.000,15000.000,-1000.000,10.532,29.274,-0.543,13.046,-4.251,17.793,14302.921,-2790.302,-20686.546
1512180272,10.800,7.300,-10.400,-69520.000,-42720.000,979370.000,0.000,15000.000,-1000.000,-4.433,-22.017,0.132,-2.101,-3.616,-6.812,14151.386,-3090.534,-21060.417
1512180272,-21.700,7.100,-11.900,-69460.000,-64580.000,979060.000,0.000,15000.000,-1000.000,-3.354,0.407,-0.846,1.385,-6.644,1.787,13926.380,-3090.870,-21058.510
1512180272,3.100,1.300,-14.800,-67690.000,-49800.000,1007930.000,0.000,8000.000,-11000.000,7.284,13.240,1.487,7.223,11.301,-0.783,13703.190,-2716.206,-20831.413
1512180272,6.000,0.900,-13.800,-79470.000,-47850.000,967710.000,0.000,8000.000,-11000.000,-14.037,-24.174,-0.017,-13.082,9.320,0.590,14377.506,-2865.192,-20837.227
1512180272,-14.500,4.500,-16.400,-75620.000,-56270.000,983890.000,0.000,8000.000,-11000.000,12.658,27.139,-0.520,13.501,-12.132,7.809,14378.178,-2715.199,-20837.151
1512180272,7.200,2.000,-15.600,-65550.000,-47970.000,1011900.000,0.000,8000.000,-11000.000,-10.856,-19.899,1.108,-5.207,-1.530,-3.689,14152.287,-2940.540,-20610.344
1512180272,8.100,0.100,-18.900,-82520.000,-58780.000,981510.000,1000.000,0.000,-3000.000,-7.593,8.949,-1.945,7.429,-9.818,-0.086,14226.612,-3090.427,-20611.046
1512180272,-8.500,4.000,-22.500,-66830.000,-50230.000,1002500.000,1000.000,0.000,-3000.000,7.374,1.506,-3.882,19.408,-30.511,-6.522,14152.882,-2790.531,-20760.277
1512180272,9.500,-0.400,-26.500,-54080.000,-38510.000,1013610.000,1000.000,0.000,-3000.000,-22.563,-16.712,-0.118,-4.127,20.804,11.203,14150.440,-3315.540,-20910.515
1512180272,-0.100,2.800,-29.800,-81120.000,-57800.000,988220.000,1000.000,0.000,-3000.000,24.376,19.679,-0.377,10.855,-32.055,23.538,14152.287,-2940.540,-20610.344
1512180272,2.100,2.900,-32.400,-67200.000,-34240.000,1004210.000,1000.000,0.000,-3000.000,-8.745,-24.178,1.119,-7.283,5.641,4.287,14377.506,-2865.192,-20837.227
1512180272,13.700,0.900,-35.200,-66830.000,-29240.000,972470.000,-17000.000,8000.000,-1000.000,-2.275,7.890,-0.802,5.083,-14.664,4.970,14153.294,-2715.534,-20610.237
1512180272,-10.300,3.900,-36.900,-83250.000,-56090.000,984800.000,-17000.000,8000.000,-1000.000,10.496,7.906,0.449,12.073,13.542,5.344,14002.628,-2865.757,-20609.032
1512180272,-5.900,-0.100,-38.000,-69340.000,-33330.000,986020.000,-17000.000,8000.000,-1000.000,-17.225,-31.655,-1.156,-18.672,9.169,-1.719,13925.251,-3390.873,-20608.635
1512180272,0.100,-0.300,-38.300,-72510.000,-36320.000,967900.000,-17000.000,8000.000,-1000.000,17.995,33.557,-0.418,17.084,-10.514,14.415,14226.902,-3015.430,-20686.012
1512180272,-18.900,3.500,-41.000,-67200.000,-49800.000,982850.000,-17000.000,8000.000,-1000.000,-9.764,-23.101,-1.018,-3.546,-0.133,-3.690,14004.307,-2490.757,-20608.864
1512180272,10.300,-4.700,-43.500,-51150.000,-38150.000,997380.000,-19000.000,-3000.000,0.000,3.576,7.897,-0.182,5.076,1.535,-0.497,13890.591,-2753.422,-20683.029
1512180272,-3.300,-2.000,-43.900,-70070.000,-55110.000,970460.000,-19000.000,-3000.000,0.000,-0.679,4.157,-0.253,1.754,2.035,9.805,13704.586,-2416.202,-20718.781
1512180272,-16.800,3.100,-48.600,-60490.000,-43210.000,988650.000,-19000.000,-3000.000,0.000,-3.360,-11.871,-0.346,0.667,-8.925,-0.456,13853.031,-2753.483,-20795.204
1512180272,13.600,0.100,-49.700,-54140.000,-33750.000,995790.000,-19000.000,-3000.000,0.000,-1.779,-9.740,0.216,-4.015,9.787,6.429,13739.559,-2978.657,-20719.353
1512180272,3.600,-0.700,-52.700,-74400.000,-60420.000,985230.000,-14000.000,-5000.000,18000.000,4.084,5.756,0.891,9.208,-6.503,1.015,13778.424,-2678.601,-20682.029
1512180272,-6.500,2.100,-51.500,-63170.000,-42720.000,999450.000,-14000.000,-5000.000,18000.000,3.567,7.362,0.360,6.021,1.815,-0.243,13478.130,-2754.040,-20604.515
1512180272,8.900,2.500,-56.200,-50110.000,-33390.000,1011660.000,-14000.000,-5000.000,18000.000,9.984,-66.855,-4.065,-0.293,4.420,12.558,13702.565,-2866.207,-20718.986
1512180272,-14.100,5.100,-54.200,-78060.000,-60120.000,988650.000,-14000.000,-5000.000,18000.000,-20.783,86.321,26.404,-4.586,-10.609,-12.957,13627.415,-2866.321,-21018.349
1512180272,-1.300,0.300,-56.500,-62010.000,-31980.000,1005070.000,-14000.000,-5000.000,18000.000,-0.243,-40.184,2.807,1.239,3.526,40.690,13816.021,-2641.041,-20832.337
1512180272,9.300,1.900,-59.400,-60120.000,-28690.000,992370.000,-10000.000,-1000.000,5000.000,-181.108,199.608,412.519,-16.033,8.250,7.600,13666.133,-2641.262,-20606.057
1512180272,-14.600,2.700,-60.100,-80200.000,-57980.000,982790.000,-10000.000,-1000.000,5000.000,-529.965,579.505,608.674,-26.794,-43.694,-41.552,13701.870,-3016.209,-20756.561
1512180272,-6.000,-1.300,-60.300,-56210.000,-31250.000,986150.000,-10000.000,-1000.000,5000.000,-1126.584,420.922,933.687,-239.292,-306.806,-102.306,13965.496,-2790.813,-20533.676
1512180273,2.400,-2.700,-61.700,-63540.000,-33810.000,963870.000,-10000.000,-1000.000,5000.000,-1369.998,479.348,-173.541,-503.847,-242.595,-487.055,13778.675,-2641.087,-20532.021
1512180273,-21.600,1.300,-64.000,-75870.000,-53340.000,981380.000,-10000.000,-1000.000,5000.000,-751.039,288.586,-996.759,-556.890,-542.023,-497.814,14156.193,-2115.528,-20234.962
1512180273,9.600,-4.300,-67.400,-50420.000,-34910.000,998540.000,7000.000,5000.000,-1000.000,380.725,178.497,-1173.705,-529.185,-669.161,-435.124,14460.835,-1140.079,-19712.059
1512180273,-1.600,-0.300,-66.600,-64210.000,-46750.000,961790.000,7000.000,5000.000,-1000.000,1422.610,314.964,-1318.046,-658.522,-507.429,-238.997,15590.595,-163.380,-18971.184
1512180273,-24.000,1.900,-68.400,-61580.000,-48710.000,980470.000,7000.000,5000.000,-1000.000,2083.106,151.261,-1750.393,-643.417,-339.262,16.179,15591.206,-163.380,-17771.187
1512180273,4.500,-3.100,-68.800,-49130.000,-40280.000,999510.000,7000.000,5000.000,-1000.000,2292.207,-80.182,-1771.624,-500.457,-285.756,263.118,16120.060,512.417,-16125.343
1512180273,4.400,-2.000,-66.000,-65610.000,-51330.000,967470.000,-10000.000,12000.000,-1000.000,2077.223,-296.607,-1610.254,-386.197,-232.824,464.266,15897.465,887.081,-14698.265
1512180273,-24.500,5.900,-68.600,-63290.000,-59020.000,981510.000,-10000.000,12000.000,-1000.000,1725.244,-407.559,-1409.987,-203.973,-175.640,643.681,16207.218,2837.551,-12749.916
1512180273,8.500,-0.800,-70.200,-45170.000,-44920.000,996220.000,-10000.000,12000.000,-1000.000,1547.455,-185.032,-637.829,8.443,-157.850,821.378,15539.295,4261.547,-11393.532
1512180273,-1.900,-1.200,-68.400,-70070.000,-54870.000,963320.000,-10000.000,12000.000,-1000.000,1496.944,-152.766,293.287,179.804,53.761,927.854,15243.504,5011.105,-9740.639
1512180273,-21.300,1.100,-68.700,-62990.000,-46880.000,980530.000,-10000.000,12000.000,-1000.000,1332.875,46.520,942.964,309.885,275.502,1025.084,14572.407,5760.098,-8684.563
1512180273,29.300,-4.900,-70.000,-55180.000,-32470.000,1003110.000,-15000.000,-10000.000,-6000.000,878.385,-0.700,703.816,265.698,669.561,859.719,13753.666,7033.871,-7626.961
1512180273,11.300,0.400,-67.800,-60060.000,-47610.000,963130.000,-15000.000,-10000.000,-6000.000,60.326,118.170,-624.207,272.708,872.438,590.415,13006.992,7632.748,-6345.314
1512180273,-42.200,8.400,-68.700,-53220.000,-45230.000,980100.000,-15000.000,-10000.000,-6000.000,-1136.312,352.537,-1227.060,501.914,575.607,281.577,11736.942,8605.846,-5209.038
1512180273,36.500,-4.000,-73.100,-48460.000,-31860.000,1020630.000,-15000.000,-10000.000,-6000.000,-1952.479,639.649,-656.882,698.717,357.735,98.814,10840.763,9279.507,-3626.076
1512180273,-6.500,-2.400,-71.400,-65920.000,-51090.000,961300.000,-15000.000,-10000.000,-6000.000,-1832.903,687.579,45.417,627.081,440.720,-74.670,9493.992,9802.486,-1889.381
1512180273,-24.000,1.700,-71.600,-62070.000,-31860.000,971860.000,-12000.000,-7000.000,16000.000,-1205.495,301.957,-7.599,341.365,696.508,-299.866,8522.694,10476.025,-530.785
1512180273,19.200,-2.100,-73.500,-49930.000,-18860.000,1010930.000,-12000.000,-7000.000,16000.000,-900.610,56.327,-343.046,147.081,569.346,-431.225,7997.517,10250.240,1123.573
1512180273,-13.300,2.800,-72.300,-60610.000,-46810.000,954710.000,-12000.000,-7000.000,16000.000,-1069.060,-147.249,-157.499,179.672,148.959,-578.807,7249.577,10549.114,2555.077
1512180273,-39.400,11.100,-72.700,-58840.000,-44430.000,957340.000,-12000.000,-7000.000,16000.000,-950.454,-31.000,24.785,155.896,-16.713,-589.252,6650.394,10548.214,4210.167
1512180273,32.400,3.500,-73.800,-41320.000,-39980.000,1017640.000,-19000.000,-3000.000,3000.000,-134.621,253.838,-238.515,96.427,-2.938,-538.667,6201.069,10547.543,5563.988
1512180273,1.700,3.100,-71.800,-63230.000,-55790.000,952150.000,-19000.000,-3000.000,3000.000,776.768,519.300,-349.114,88.169,-49.461,-432.863,5603.016,10846.645,6769.218
1512180273,-32.600,11.100,-72.700,-57130.000,-46880.000,967650.000,-19000.000,-3000.000,3000.000,1415.322,703.349,-16.206,154.372,-44.576,-294.165,5154.484,11070.965,7673.149
1512180273,15.800,3.600,-70.800,-35950.000,-25330.000,1020390.000,-19000.000,-3000.000,3000.000,1360.948,3055.775,357.917,94.117,88.028,-513.272,4405.521,11294.842,7754.631
1512180273,6.700,7.300,-67.500,-59880.000,-34480.000,975160.000,-19000.000,-3000.000,3000.000,-42.008,1578.060,-1069.951,-206.656,139.300,-491.355,3775.783,12943.905,8435.806
1512180273,-26.200,9.100,-65.400,-61580.000,-39310.000,987180.000,-15000.000,-7000.000,3000.000,-121.695,-700.324,-906.866,104.570,115.767,-43.942,2466.213,13504.436,9234.711
1512180273,14.000,-5.100,-63.300,-45960.000,-18800.000,1020810.000,-15000.000,-7000.000,3000.000,-123.326,-307.264,-77.728,159.697,33.297,73.370,2654.041,13504.718,9908.112
1512180273,1.700,-7.900,-61.800,-63110.000,-29540.000,966980.000,-15000.000,-7000.000,3000.000,508.949,1048.534,14.506,-26.023,14.953,31.752,2390.743,13391.827,9310.295
1512180273,-32.000,-0.900,-63.100,-72080.000,-51640.000,966250.000,-15000.000,-7000.000,3000.000,941.989,1878.535,73.772,-43.333,14.351,14.977,1942.425,13841.152,8639.335
1512180273,29.000,-8.400,-67.500,-49870.000,-24290.000,1013920.000,-24000.000,1000.000,-8000.000,877.560,1649.449,543.240,-46.091,-25.904,-56.234,1717.610,13953.320,8003.792
1512180273,13.400,-6.900,-68.000,-70560.000,-35340.000,961060.000,-24000.000,1000.000,-8000.000,485.953,802.174,880.023,-68.320,-59.234,59.378,1790.394,13503.429,7627.961
1512180273,-37.700,-1.200,-72.200,-71720.000,-61220.000,957700.000,-24000.000,1000.000,-8000.000,-173.614,-382.797,1352.467,-7.286,-57.430,-69.192,2277.958,13504.154,7736.313
1512180273,16.200,-5.500,-76.000,-63600.000,-36380.000,1004210.000,-24000.000,1000.000,-8000.000,-469.891,-1368.919,1751.444,-49.736,-51.965,63.118,3137.684,12867.947,7916.184
1512180273,32.100,-2.300,-78.200,-59940.000,-54810.000,972350.000,-24000.000,1000.000,-8000.000,-210.553,-2311.802,2593.041,-125.768,-27.872,135.194,4294.002,11407.184,8693.122
1512180273,-28.400,2.900,-75.900,-80870.000,-68850.000,951660.000,-26000.000,-3000.000,-6000.000,234.846,-3185.426,2853.907,-117.189,-149.894,-181.361,6164.639,10322.490,9726.684
1512180273,-8.900,2.700,-76.200,-69700.000,-33750.000,1002810.000,-26000.000,-3000.000,-6000.000,927.159,-1036.472,1089.497,167.027,128.147,260.328,7583.813,9087.109,9189.003
1512180273,31.800,-6.000,-73.200,-70980.000,-33690.000,1000670.000,-26000.000,-3000.000,-6000.000,-622.421,826.615,85.826,71.796,46.671,209.318,7277.775,7699.154,9603.416
1512180274,-46.100,3.900,-70.400,-87100.000,-57740.000,934940.000,-26000.000,-3000.000,-6000.000,619.180,-1077.167,-179.986,92.636,-27.005,-264.961,7086.597,6873.867,9679.619
1512180274,-34.100,2.300,-70.800,-68540.000,-32040.000,1002620.000,-26000.000,-3000.000,-6000.000,870.984,-468.753,-292.553,45.766,37.818,325.126,6784.412,6423.412,9381.966
1512180274,54.600,-8.700,-74.400,-63840.000,-36620.000,1033510.000,-22000.000,-10000.000,-3000.000,215.334,-372.309,-415.787,29.460,-38.881,-155.502,7157.841,6048.977,9603.600
1512180274,-16.800,2.700,-75.600,-63050.000,-55300.000,974550.000,-22000.000,-10000.000,-3000.000,-155.870,162.470,-505.654,23.831,23.187,177.157,7005.405,5523.754,9454.643
1512180274,-39.700,5.900,-77.900,-63480.000,-54810.000,988100.000,-22000.000,-10000.000,-3000.000,59.378,138.350,-565.516,32.852,-17.153,-53.332,6852.818,4923.519,9680.641
1512180274,44.500,-4.100,-82.200,-61830.000,-36620.000,1029240.000,-22000.000,-10000.000,-3000.000,376.625,-392.060,-564.897,14.718,-37.551,-29.274,6775.333,4398.403,9456.032
1512180274,-21.700,2.300,-79.900,-67750.000,-51270.000,952330.000,-14000.000,-8000.000,22000.000,-317.825,149.338,70.826,-163.320,-212.574,119.697,6992.954,2823.727,8853.386
1512180274,-42.100,2.700,-80.000,-81670.000,-50170.000,988830.000,-14000.000,-8000.000,22000.000,-177.291,-83.951,394.001,-0.705,-117.724,-60.620,7144.382,3123.959,9002.251
1512180274,52.700,-9.500,-81.500,-75620.000,-44190.000,1012760.000,-14000.000,-8000.000,22000.000,726.380,-587.826,389.345,40.817,-28.375,-3.782,7212.971,1699.062,9000.969
1512180274,-3.500,-0.800,-76.200,-73240.000,-50840.000,963200.000,-14000.000,-8000.000,22000.000,1143.466,-886.731,618.223,-42.331,-70.680,66.990,7211.536,1399.059,8850.822
1512180274,-47.500,0.100,-74.200,-81120.000,-58840.000,978150.000,-14000.000,-8000.000,22000.000,-284.510,-62.143,625.989,41.583,-78.895,-46.694,6907.154,498.592,8177.956
1512180274,43.300,-15.400,-72.400,-66770.000,-23070.000,1016300.000,-15000.000,10000.000,6000.000,42.691,-83.575,370.534,45.375,-37.501,-54.193,6902.760,-476.414,8177.513
1512180274,27.200,-19.600,-71.400,-54630.000,-35280.000,1002810.000,-15000.000,10000.000,6000.000,99.937,-42.425,133.777,53.067,-33.224,131.434,7348.530,-1375.736,7798.271
1512180274,-79.200,-13.300,-65.400,-87520.000,-45100.000,959050.000,-15000.000,10000.000,6000.000,-104.035,-185.522,-45.576,36.228,-50.791,-13.315,6893.284,-2501.423,7426.582
1512180274,0.800,-20.200,-69.000,-74710.000,-21420.000,1015140.000,-15000.000,10000.000,6000.000,0.845,-48.341,-192.827,22.788,-46.661,70.939,6589.085,-3401.875,7128.716
1512180274,-11.300,-20.400,-68.600,-72750.000,-43090.000,966190.000,-15000.000,10000.000,6000.000,-122.173,-78.872,24.891,-45.363,-146.547,-1.001,6359.119,-4452.229,6680.138
1512180274,-88.800,-9.900,-63.900,-87770.000,-54200.000,948670.000,-28000.000,1000.000,18000.000,34.526,-61.928,220.177,-3.058,-91.868,50.393,5829.136,-5503.025,6159.126
1512180274,-9.900,-10.100,-70.300,-56760.000,-32840.000,1006960.000,-28000.000,1000.000,18000.000,27.782,-26.728,243.658,45.014,-65.069,37.554,5600.834,-6178.364,5635.735
1512180274,23.300,-15.300,-73.800,-25270.000,-70190.000,1009280.000,-28000.000,1000.000,18000.000,37.219,-36.223,187.257,46.242,-64.375,-10.408,5146.336,-7079.044,4739.128
1512180274,-68.700,-10.700,-73.200,-48950.000,-88440.000,965700.000,-28000.000,1000.000,18000.000,-10.475,10.610,237.902,28.318,-73.242,45.999,4766.117,-8204.624,4441.811
1512180274,-65.800,-9.200,-78.300,-40100.000,-83740.000,1016850.000,-47000.000,-7000.000,23000.000,82.425,6.242,357.565,7.798,-111.055,13.147,4310.947,-9255.299,3545.158
1512180274,65.500,-28.500,-78.800,-45040.000,-59200.000,1040950.000,-47000.000,-7000.000,23000.000,41.988,14.478,482.802,3.931,-104.802,20.605,3858.356,-9780.979,3098.732
1512180274,-54.600,-15.300,-66.300,-69580.000,-67930.000,940860.000,-47000.000,-7000.000,23000.000,88.558,27.194,567.737,6.122,-94.139,25.869,3253.666,-10756.886,2503.380
1512180274,-77.100,-4.900,-61.800,-62260.000,-54440.000,981630.000,-47000.000,-7000.000,23000.000,86.281,25.986,642.329,8.858,-91.249,14.756,2723.759,-11807.682,2132.362
1512180274,59.000,-14.800,-65.800,-64330.000,-40530.000,1036440.000,-47000.000,-7000.000,23000.000,80.576,37.550,729.701,10.013,-87.717,25.787,1896.046,-12333.912,1464.134
1512180274,-24.400,-7.900,-55.800,-69270.000,-35100.000,929750.000,-26000.000,-7000.000,23000.000,106.984,4.324,807.792,20.059,-69.278,21.793,1816.395,-13309.040,939.323
1512180274,-9.900,-6.700,-60.600,-58230.000,-36250.000,980770.000,-26000.000,-7000.000,23000.000,121.070,-11.370,922.543,32.806,-43.604,8.712,573.269,-14473.408,161.812
1512180274,47.400,-16.800,-64.600,-37540.000,-36500.000,1023380.000,-26000.000,-7000.000,23000.000,233.379,29.178,1030.916,37.906,-11.506,7.822,-482.190,-15599.995,-617.279
1512180274,-30.000,-3.100,-64.200,-44740.000,-60910.000,939090.000,-26000.000,-7000.000,23000.000,379.051,-339.050,1262.013,8.665,-26.803,-37.992,-2139.339,-17102.475,-1391.441
1512180274,-44.300,-5.500,-64.700,-67200.000,-51880.000,994380.000,-28000.000,-8000.000,18000.000,533.501,-85.783,248.113,-216.749,37.525,48.571,-4130.551,-17780.460,-2724.854
1512180274,54.100,-16.600,-66.200,-59750.000,-31190.000,1015750.000,-28000.000,-8000.000,18000.000,25.198,-270.377,291.277,82.693,-18.256,-69.198,-4998.028,-18794.261,-3542.992
1512180274,-20.000,-7.900,-63.000,-65610.000,-54200.000,922000.000,-28000.000,-8000.000,18000.000,11.181,106.254,-36.495,12.146,11.330,84.092,-5259.082,-18419.651,-4028.084
1512180274,-72.700,-5.600,-60.500,-62380.000,-78670.000,990050.000,-28000.000,-8000.000,18000.000,99.031,-24.185,92.785,-3.157,-20.651,-40.628,-5599.445,-18945.156,-5037.956
1512180274,35.600,-22.900,-57.400,-48830.000,-36010.000,994200.000,-28000.000,-8000.000,18000.000,29.334,57.558,23.830,-6.057,-7.765,24.014,-6237.965,-19058.628,-6045.089
1512180274,-14.100,-20.400,-51.800,-54690.000,-74040.000,957820.000,-35000.000,8000.000,15000.000,10.629,-2.415,88.915,3.513,-17.994,-19.203,-6800.412,-18984.462,-6602.760
1512180274,-67.900,-20.500,-46.900,-67990.000,-74460.000,945800.000,-35000.000,8000.000,15000.000,25.067,29.718,55.120,1.478,-19.500,-7.172,-6912.876,-18909.633,-7201.775
1512180274,23.700,-28.200,-46.600,-58110.000,-36190.000,1009640.000,-35000.000,8000.000,15000.000,28.384,-3.910,45.989,0.140,-17.071,6.404,-7438.999,-19060.421,-8097.382
1512180274,12.400,-21.800,-46.100,-44560.000,-64760.000,1003050.000,-35000.000,8000.000,15000.000,32.103,19.595,48.259,-0.052,-20.698,9.207,-7926.189,-18948.650,-8468.178
1512180275,-81.100,-9.500,-43.100,-48770.000,-70980.000,977540.000,-35000.000,8000.000,15000.000,24.680,16.382,45.474,-3.963,-18.534,19.180,-7963.665,-18873.707,-9105.324
1512180275,53.800,-22.100,-48.500,-43210.000,-29240.000,1019230.000,-36000.000,-3000.000,30000.000,24.893,10.002,32.663,-0.314,-18.595,24.940,-8265.911,-19324.162,-9552.971
1512180275,46.100,-11.600,-49.500,-21910.000,-76420.000,1033080.000,-36000.000,-3000.000,30000.000,21.523,32.401,43.350,-14.045,-26.548,2.282,-8412.991,-18649.387,-9776.390
1512180275,-37.200,1.200,-41.000,-47360.000,-76540.000,950320.000,-36000.000,-3000.000,30000.000,29.616,15.272,68.993,-0.449,-23.704,14.278,-8714.458,-18949.833,-9998.985
1512180275,-2.500,-0.800,-41.700,-40650.000,-55790.000,986080.000,-36000.000,-3000.000,30000.000,19.826,1.351,80.531,-6.725,-21.182,6.513,-9014.263,-18800.282,-10971.352
1512180275,41.300,0.400,-35.700,10250.000,-73300.000,1014890.000,-36000.000,-3000.000,30000.000,32.134,53.777,47.844,-21.830,-21.819,7.411,-9542.004,-19326.084,-11717.140
1512180275,-24.800,8.500,-22.100,-9340.000,-43150.000,971740.000,-42000.000,-5000.000,18000.000,27.823,15.312,48.713,0.831,-18.343,9.109,-9019.558,-19925.297,-11421.867
1512180275,-19.300,22.800,-21.700,-20870.000,-47910.000,1031490.000,-42000.000,-5000.000,18000.000,7.509,34.504,53.818,-9.974,-17.208,8.691,-9538.784,-18576.069,-12016.792
1512180275,15.700,24.600,-22.200,-13060.000,-47790.000,1009280.000,-42000.000,-5000.000,18000.000,20.134,34.500,63.594,-12.169,-14.579,16.406,-10290.661,-18952.198,-12385.582
1512180275,-42.200,28.500,-18.500,-26250.000,-77450.000,960820.000,-42000.000,-5000.000,18000.000,12.055,29.074,100.771,-6.045,-15.896,11.384,-10064.938,-18726.856,-12987.389
1512180275,-33.300,33.000,-18.200,-39060.000,-57860.000,976620.000,-42000.000,-5000.000,22000.000,20.560,44.039,103.079,-11.280,-4.152,22.985,-10590.511,-18802.647,-13432.961
1512180275,11.300,17.000,-16.900,-35160.000,-47420.000,988770.000,-42000.000,-5000.000,22000.000,16.613,30.182,82.716,-9.585,-1.307,18.628,-10741.253,-18877.872,-14256.721
1512180275,-28.000,14.600,-16.000,-68910.000,-46020.000,909000.000,-42000.000,-5000.000,22000.000,-2.632,70.740,88.979,-12.581,-6.800,19.424,-10813.488,-18202.976,-14780.769
1512180275,-45.500,18.900,-16.400,-38390.000,-37840.000,966550.000,-42000.000,-5000.000,22000.000,7.422,33.293,123.104,0.046,0.184,28.896,-11265.697,-18653.660,-15152.138
1512180275,41.500,9.300,-17.600,-61650.000,-24170.000,1007390.000,-42000.000,-5000.000,22000.000,12.359,51.411,147.758,-10.164,8.018,19.860,-11489.834,-18354.008,-16125.099
1512180275,22.900,12.000,-13.800,-36800.000,-58780.000,982910.000,-45000.000,-1000.000,25000.000,6.276,73.743,194.655,-5.082,13.564,41.215,-11413.494,-17978.886,-16800.545
1512180275,-41.000,14.500,-12.800,-36130.000,-64150.000,971800.000,-45000.000,-1000.000,25000.000,23.875,69.432,225.809,-12.698,10.341,8.783,-11561.535,-17454.105,-17624.031
1512180275,2.100,10.400,-14.500,-29360.000,-39670.000,998600.000,-45000.000,-1000.000,25000.000,13.798,105.673,256.704,-24.651,8.034,27.942,-11862.286,-17529.560,-18446.510
1512180275,38.600,2.100,-12.900,-30940.000,-56210.000,1022340.000,-45000.000,-1000.000,25000.000,3.576,78.882,293.776,-22.575,11.625,17.387,-12013.042,-17604.786,-19270.256
1512180275,-14.500,16.900,-9.600,-43580.000,-28320.000,947140.000,-26000.000,-3000.000,16000.000,24.555,118.401,317.676,-39.534,16.598,4.430,-11784.893,-16779.438,-20396.797
1512180275,-36.200,30.600,-10.400,-40410.000,-60550.000,1020630.000,-26000.000,-3000.000,16000.000,2.159,100.076,381.249,-20.060,12.131,24.121,-12083.431,-16329.884,-21519.035
1512180275,123.000,2.500,-8.100,-51150.000,-49990.000,990660.000,-26000.000,-3000.000,16000.000,18.101,148.154,385.908,-31.617,8.397,4.731,-12082.409,-16029.896,-22193.901
1512180275,4.300,21.400,-4.500,-27950.000,-37110.000,909910.000,-26000.000,-3000.000,16000.000,28.595,104.362,394.439,-22.394,-37.511,10.467,-11853.207,-14979.542,-23245.323
1512180275,-48.300,26.500,-10.300,-61160.000,-62070.000,949650.000,-26000.000,-3000.000,16000.000,215.475,497.568,-58.827,-58.498,-573.385,94.640,-11778.255,-14904.438,-23995.918
1512180275,97.200,7.200,-13.400,-69030.000,-7200.000,995910.000,-47000.000,-10000.000,20000.000,365.939,746.683,-55.780,120.028,-237.134,-58.329,-11625.546,-14304.203,-23996.910
1512180275,-15.000,17.600,-8.400,-64450.000,-27710.000,923030.000,-47000.000,-10000.000,20000.000,164.439,228.224,-14.659,-1.924,65.499,-47.045,-11551.037,-14454.090,-23622.627
1512180275,-74.200,16.200,-2.300,-80630.000,-49930.000,934570.000,-47000.000,-10000.000,20000.000,-87.395,-124.665,-17.405,7.390,17.326,11.452,-11362.668,-14266.308,-23586.632
1512180275,20.100,7.900,-7.300,-75200.000,-23500.000,990780.000,-47000.000,-10000.000,20000.000,26.274,20.252,-18.453,-2.159,24.479,-24.686,-11362.537,-14228.809,-23661.614
1512180275,87.000,2.500,-7.600,-38330.000,-11900.000,975220.000,-47000.000,-10000.000,20000.000,-20.646,-33.227,-20.385,10.389,12.723,-14.641,-11287.411,-14191.197,-23737.236
1512180275,32.600,9.900,-5.500,-40530.000,-65000.000,999210.000,-42000.000,5000.000,25000.000,5.971,-8.622,-16.714,9.582,13.143,-0.731,-11588.672,-14454.144,-23884.804
1512180275,-92.900,18.100,-2.100,-64940.000,-73550.000,956050.000,-42000.000,5000.000,25000.000,8.108,-7.555,-17.749,6.401,13.254,4.041,-11024.570,-14115.795,-23739.426
1512180275,30.800,7.500,-5.700,-29720.000,-17030.000,1019650.000,-42000.000,5000.000,25000.000,-4.137,-14.513,-18.482,0.778,15.801,5.704,-11287.655,-14266.201,-23549.774
1512180275,78.300,-5.200,-4.900,-48030.000,-34790.000,1033140.000,-42000.000,5000.000,25000.000,1.779,-13.428,-21.589,-3.398,22.584,3.155,-11403.064,-14866.360,-23961.586
1512180275,-9.500,0.400,1.700,-44740.000,-38020.000,971440.000,-42000.000,-1000.000,28000.000,-4.124,-21.987,-19.573,-6.502,7.853,-1.700,-11136.433,-13965.969,-23813.400
1512180275,-4.800,5.300,-0.400,-49740.000,-30640.000,1010800.000,-42000.000,-1000.000,28000.000,-3.526,-17.706,-23.281,-4.391,-0.005,1.197,-11474.949,-14191.478,-23810.638
1512180275,41.100,-6.700,-1.600,-45290.000,-39000.000,980830.000,-42000.000,-1000.000,28000.000,5.619,-12.874,-27.928,-12.489,-0.142,1.885,-11362.110,-14116.306,-23811.561
1512180275,-57.900,12.400,2.500,-62620.000,-39000.000,922850.000,-42000.000,-1000.000,28000.000,-3.948,-20.897,-30.227,-6.783,-14.703,3.501,-11174.725,-14153.530,-23700.668
1512180275,14.100,6.900,-2.900,-30880.000,-49800.000,1032470.000,-42000.000,-1000.000,28000.000,1.990,-4.858,-33.816,-15.099,-18.879,19.480,-11137.768,-14265.964,-23776.039
1512180276,10.000,-7.200,3.300,-23500.000,-33390.000,991820.000,-28000.000,-8000.000,15000.000,0.445,-3.785,-37.033,-9.522,-21.117,5.283,-11099.163,-14003.407,-23926.231
1512180276,-23.000,-5.700,3.900,-31070.000,-52610.000,983760.000,-28000.000,-8000.000,15000.000,-0.706,-9.141,-32.807,-15.329,-15.389,40.202,-11100.140,-14228.413,-23851.341
1512180276,-31.200,-10.000,7.300,-63540.000,-24050.000,962650.000,-28000.000,-8000.000,15000.000,-0.662,-28.360,-36.070,1.395,-27.583,-3.644,-11175.396,-14303.532,-23700.737
1512180276,23.700,3.300,2.700,-35770.000,-10860.000,1042720.000,-28000.000,-8000.000,15000.000,1.538,6.902,-38.045,-16.331,-21.024,31.613,-11175.808,-14378.529,-23850.777
1512180276,101.600,-26.400,3.300,-23800.000,-27650.000,1052370.000,-33000.000,7000.000,20000.000,-10.265,-46.532,-36.271,-12.582,-31.749,-2.940,-11175.442,-14303.532,-23775.749
1512180276,-164.200,-9.600,16.400,-42360.000,-41380.000,934450.000,-33000.000,7000.000,20000.000,0.549,10.108,-43.383,-26.438,-20.654,7.555,-11100.842,-14378.407,-23926.414
1512180276,-120.200,-20.800,16.500,-53280.000,-40160.000,997440.000,-33000.000,7000.000,20000.000,1.422,-19.818,-32.812,-5.107,-38.159,24.119,-11403.957,-15053.867,-24074.165
1512180276,116.600,-45.500,6.700,-55050.000,-23440.000,1016910.000,-33000.000,7000.000,20000.000,-19.773,-51.876,-41.758,-15.714,-29.403,-10.354,-11399.868,-14153.858,-23998.756
1512180276,-85.000,-24.100,14.400,-9640.000,-70130.000,951230.000,-33000.000,7000.000,20000.000,19.800,38.988,-45.133,-34.104,-14.196,51.137,-11324.841,-14153.751,-23924.400
1512180276,-79.600,-29.800,12.800,-12700.000,-60670.000,988950.000,-42000.000,5000.000,8000.000,-22.035,-85.006,-35.510,0.998,-40.356,-18.984,-11250.439,-14303.638,-23775.108
1512180276,-26.600,-41.000,11.900,-29970.000,-38390.000,1023740.000,-42000.000,5000.000,8000.000,9.201,28.297,-49.588,-30.435,-17.090,43.358,-11476.223,-14453.983,-23998.268
1512180276,51.000,-57.900,15.600,-26790.000,-13000.000,976440.000,-42000.000,5000.000,8000.000,-3.776,-55.058,-42.605,-13.764,-31.266,2.137,-10949.841,-14153.187,-23927.574
1512180276,-109.900,-31.000,20.800,-9830.000,-77640.000,949520.000,-42000.000,5000.000,8000.000,0.706,11.202,-51.901,-19.525,-26.491,28.325,-11324.764,-14153.751,-23774.406
1512180276,-131.400,-30.400,31.600,-41690.000,-33450.000,932430.000,-42000.000,5000.000,8000.000,-7.958,-34.755,-45.789,-19.833,-26.081,32.657,-11248.638,-13928.638,-23549.919
1512180276,-100.100,-25.400,24.000,-20140.000,-37290.000,1008060.000,-38000.000,-8000.000,25000.000,-7.823,-21.928,-54.275,-23.263,-29.078,3.128,-11173.489,-13853.519,-23925.529
1512180276,27.600,-36.400,24.500,-13310.000,-56520.000,1019530.000,-38000.000,-8000.000,25000.000,5.000,-5.881,-55.099,-40.132,-10.490,22.794,-11399.426,-14078.861,-23773.720
1512180276,-81.900,-22.100,27.300,-3300.000,-85270.000,946590.000,-38000.000,-8000.000,25000.000,-3.686,-31.547,-46.785,-4.854,-29.774,15.731,-11175.167,-14228.535,-23925.697
1512180276,-79.500,-17.400,24.900,1950.000,-72750.000,987490.000,-38000.000,-8000.000,25000.000,-13.044,-17.650,-60.732,-36.847,-24.308,19.862,-11548.412,-13854.084,-23772.346
1512180276,68.700,-35.200,22.500,-4880.000,-65980.000,994870.000,-35000.000,-12000.000,25000.000,13.564,1.612,-57.081,-7.834,-37.004,29.499,-11474.346,-14078.968,-23623.085
1512180276,6.100,-22.400,25.300,13850.000,-93870.000,994930.000,-35000.000,-12000.000,25000.000,-19.436,-64.655,-63.120,-21.227,-18.179,3.493,-11173.031,-13778.522,-23700.493
1512180276,-139.400,-12.000,38.300,670.000,-67990.000,909000.000,-35000.000,-12000.000,25000.000,12.647,36.875,-64.435,-40.933,-14.234,57.930,-10948.864,-13928.181,-24002.480
1512180276,-17.000,-23.800,36.100,-9460.000,-44680.000,1016540.000,-35000.000,-12000.000,25000.000,-17.434,-64.670,-55.630,0.782,-41.431,-2.332,-11323.452,-13853.748,-23849.251
1512180276,105.100,-31.000,35.700,34550.000,-42660.000,1042850.000,-35000.000,-12000.000,25000.000,3.147,16.578,-71.039,-27.356,-22.852,29.374,-11173.565,-13853.519,-24075.523
1512180276,-132.500,-4.000,48.700,20450.000,-75870.000,957890.000,-29000.000,-3000.000,10000.000,-16.189,-58.231,-65.180,-22.698,-31.162,3.120,-11548.779,-13929.081,-23847.374
1512180276,-45.400,3.600,38.500,19840.000,-83680.000,1031250.000,-29000.000,-3000.000,10000.000,11.676,14.457,-70.921,-27.486,-26.532,18.104,-11174.084,-14003.529,-23775.612
1512180276,1.100,10.500,34.900,26860.000,-79830.000,1044250.000,-29000.000,-3000.000,10000.000,-15.138,-42.214,-64.046,-14.663,-33.298,22.149,-10795.742,-13252.949,-23853.447
1512180276,79.000,-4.900,35.000,29540.000,-58650.000,1034730.000,-29000.000,-3000.000,10000.000,-0.071,-11.730,-70.648,-21.670,-29.233,13.992,-11060.551,-13740.856,-24076.439
1512180276,29.400,-0.500,38.000,3910.000,-63600.000,980830.000,-29000.000,-3000.000,10000.000,-11.830,-28.847,-70.349,-11.439,-30.825,13.086,-11096.081,-13328.412,-23850.929
1512180276,-46.500,12.500,47.500,-19530.000,-39610.000,977110.000,-33000.000,-10000.000,6000.000,-4.819,-38.971,-75.612,-20.318,-29.653,4.707,-10984.936,-13628.239,-23852.028
1512180276,65.100,2.700,52.700,-24660.000,-31010.000,959590.000,-33000.000,-10000.000,6000.000,-4.258,-34.696,-77.188,-19.239,-30.172,25.321,-10984.630,-13553.242,-23926.986
1512180276,75.800,2.500,58.100,16420.000,-27530.000,957090.000,-33000.000,-10000.000,6000.000,-9.635,-32.035,-73.523,-13.461,-35.942,26.678,-10684.162,-13440.289,-24004.486
1512180276,-13.800,14.000,62.500,-6160.000,-50960.000,951970.000,-33000.000,-10000.000,6000.000,-3.654,-23.470,-80.871,-33.025,-25.694,29.559,-10984.257,-13478.237,-23851.951
1512180276,-38.600,14.900,66.600,670.000,-56700.000,955510.000,-28000.000,-19000.000,25000.000,-5.269,-34.690,-80.400,-17.938,-28.889,11.221,-11283.641,-13328.686,-23961.838
1512180276,-4.000,14.400,67.900,-10800.000,-37410.000,982180.000,-28000.000,-19000.000,25000.000,-14.834,-41.645,-82.696,-8.963,-25.858,10.667,-10494.587,-12952.503,-24230.858
1512180276,38.600,7.500,64.400,4330.000,-49190.000,990840.000,-28000.000,-19000.000,25000.000,-14.807,-46.980,-84.312,-16.685,-36.067,10.447,-10983.173,-13215.740,-24039.329
1512180276,-72.600,25.000,62.700,31560.000,-51880.000,915950.000,-28000.000,-19000.000,25000.000,-0.952,-38.951,-84.085,-20.533,-23.185,20.527,-10757.099,-12990.398,-23928.635
1512180276,57.100,17.400,52.300,-6530.000,-77090.000,1021550.000,-28000.000,-19000.000,25000.000,1.275,-26.650,-88.806,-22.800,-17.799,16.900,-10757.199,-12990.398,-24116.142
1512180276,169.900,-4.800,51.900,-12330.000,-30090.000,984560.000,-28000.000,-5000.000,11000.000,-16.909,-40.575,-86.455,-24.683,-30.644,19.417,-10795.124,-13065.449,-24303.360
1512180277,17.000,13.800,63.800,-3170.000,-66770.000,952330.000,-28000.000,-5000.000,11000.000,-7.353,-93.435,-86.500,-10.695,-13.312,-28.826,-10945.034,-13028.187,-24452.065
1512180277,-61.800,21.800,70.700,-25090.000,-65000.000,961060.000,-28000.000,-5000.000,11000.000,-3.922,5.932,-95.699,-40.725,-14.575,64.641,-10944.622,-12953.175,-24302.025
1512180277,-3.600,15.400,75.600,3300.000,-42360.000,974980.000,-28000.000,-5000.000,11000.000,-10.468,-82.747,-90.771,12.090,-22.238,-23.955,-10644.772,-13027.729,-23929.604
1512180277,75.400,2.500,79.800,-20870.000,-26180.000,1019230.000,-15000.000,0.000,23000.000,9.859,-15.421,-92.377,-40.416,-7.228,38.877,-10721.645,-13402.851,-24304.146
1512180277,-30.500,12.300,83.200,-3110.000,-69150.000,977290.000,-15000.000,0.000,23000.000,-32.809,-53.936,-92.060,-9.842,-39.243,-2.542,-10944.546,-12953.175,-24152.031
1512180277,-38.600,15.800,78.200,4150.000,-63170.000,1004390.000,-15000.000,0.000,23000.000,19.656,-30.332,-105.078,-3.750,-1.422,-26.614,-10946.682,-13403.187,-24377.235
1512180277,-6.100,12.400,73.800,3970.000,-31430.000,996700.000,-15000.000,0.000,23000.000,-15.741,-51.774,-92.872,-31.419,-9.145,27.095,-11171.764,-13403.522,-24525.322
1512180277,130.600,-10.900,68.200,23620.000,-16420.000,1009700.000,-15000.000,0.000,23000.000,-26.353,-65.668,-96.272,-14.723,-15.538,0.636,-10718.502,-12727.848,-24078.835
1512180277,-78.300,19.700,73.900,-6650.000,-84170.000,955630.000,-29000.000,-3000.000,33000.000,22.839,18.803,-101.662,-4.266,6.764,28.480,-10718.914,-12802.845,-24228.874
1512180277,-189.500,38.600,78.800,-14400.000,-90450.000,873050.000,-29000.000,-3000.000,33000.000,-49.917,-122.328,-92.547,-11.718,-12.591,0.093,-10793.499,-12727.955,-24078.194
1512180277,144.600,17.800,71.000,-28930.000,-36560.000,988040.000,-29000.000,-3000.000,33000.000,-1.517,8.108,-111.645,-52.142,3.260,11.218,-10794.689,-12952.946,-24453.300
1512180277,96.300,1.100,81.900,-8670.000,-44490.000,901790.000,-29000.000,-3000.000,33000.000,8.789,-32.508,-92.449,-12.120,-15.090,40.905,-10793.911,-12802.952,-24228.233
1512180277,-100.700,12.400,86.000,13240.000,-85820.000,947810.000,-29000.000,-3000.000,33000.000,-62.624,-95.638,-96.904,-28.178,-29.348,-1.891,-10943.005,-12578.175,-24451.851
1512180277,-46.600,-11.100,85.900,-39060.000,-23990.000,934390.000,-31000.000,8000.000,28000.000,15.395,-7.907,-103.995,-34.539,5.248,21.397,-10867.641,-12503.071,-24377.464
1512180277,-1.900,-10.900,81.000,-22520.000,-31490.000,1006770.000,-31000.000,8000.000,28000.000,3.539,-52.798,-97.925,0.797,-10.399,15.469,-10717.892,-12577.839,-24228.767
1512180277,102.000,-26.600,81.100,-13180.000,-27280.000,1035030.000,-31000.000,8000.000,28000.000,-37.883,-35.758,-106.996,-19.073,-13.967,60.459,-10718.502,-12727.848,-24078.835
1512180277,29.800,-16.900,81.800,-13550.000,-42300.000,989870.000,-31000.000,8000.000,28000.000,-7.031,-64.556,-104.517,-9.590,-11.333,-12.448,-11094.585,-12953.403,-24225.761
1512180277,-86.200,-11.900,82.800,-20510.000,-51640.000,1004640.000,-19000.000,3000.000,13000.000,16.594,-10.028,-112.515,-23.557,1.098,17.649,-10718.609,-12727.848,-24303.841
1512180277,-23.800,-31.600,81.900,-12080.000,-25820.000,1010440.000,-19000.000,3000.000,13000.000,-33.493,-57.096,-115.535,-32.687,-10.957,24.056,-10942.226,-12428.165,-24226.784
1512180277,-30.500,-30.400,80.300,-16420.000,-48830.000,991520.000,-19000.000,3000.000,13000.000,-4.814,-66.679,-109.823,-25.848,-7.282,-34.785,-10416.958,-12352.390,-24381.218
1512180277,38.200,-36.100,78.800,7080.000,-40830.000,1020260.000,-19000.000,3000.000,13000.000,2.731,-15.385,-111.664,-26.613,0.865,19.628,-11092.632,-12503.407,-24375.542
1512180277,-103.500,-29.000,89.300,-11350.000,-88870.000,942500.000,-19000.000,3000.000,13000.000,-35.714,-104.108,-112.533,-16.699,-11.132,-2.628,-10716.702,-12277.836,-24528.633
1512180277,-122.400,-35.300,88.400,1460.000,-21480.000,961610.000,-8000.000,14000.000,6000.000,7.098,-3.621,-117.959,-25.536,2.950,30.781,-10944.592,-12878.178,-24901.985
1512180277,-44.900,-52.100,88.300,-21060.000,-48580.000,1018190.000,-8000.000,14000.000,6000.000,-28.220,-74.188,-113.388,-14.458,-9.552,24.812,-10941.662,-12278.172,-24451.714
1512180277,-48.100,-54.500,90.900,11900.000,-32530.000,999820.000,-8000.000,14000.000,6000.000,-10.964,-39.420,-123.142,-34.482,-7.033,18.146,-11054.454,-12353.344,-24375.793
1512180277,-129.400,-39.400,94.100,7510.000,-69950.000,995850.000,-8000.000,14000.000,6000.000,-15.188,-37.819,-125.329,-26.116,-4.247,24.313,-10754.695,-12390.392,-24528.359
1512180277,-104.100,-48.300,91.200,-7200.000,-51210.000,998540.000,-8000.000,14000.000,6000.000,-18.853,-51.170,-130.226,-35.282,-3.750,4.761,-10640.301,-11977.726,-24454.124
1512180277,20.900,-61.800,87.600,-180.000,-38570.000,1016240.000,-21000.000,8000.000,32000.000,-10.345,-62.909,-129.611,-22.725,-10.681,3.297,-10602.749,-11940.166,-24679.429
1512180277,-37.300,-57.500,90.100,17460.000,-77150.000,967100.000,-21000.000,8000.000,32000.000,-24.617,-56.505,-136.190,-20.019,-22.913,15.011,-10679.325,-12277.775,-24791.443
1512180277,-18.600,-54.100,85.800,28690.000,-73790.000,976680.000,-21000.000,8000.000,32000.000,-20.877,-51.692,-136.653,-35.457,-32.033,4.721,-10714.931,-11865.330,-24715.935
1512180277,-76.700,-45.000,90.100,21360.000,-89660.000,931090.000,-21000.000,8000.000,32000.000,-17.600,-46.339,-141.386,-34.295,-32.961,16.023,-10414.441,-11752.377,-24755.928
1512180277,-12.300,-39.100,88.300,-8910.000,-48950.000,947940.000,-14000.000,5000.000,15000.000,-13.810,-26.566,-143.927,-31.015,-26.123,30.551,-10564.251,-11677.609,-25054.619
1512180277,21.600,-42.700,85.800,60420.000,-84230.000,999020.000,-14000.000,5000.000,15000.000,-3.177,-27.624,-142.712,-26.130,-26.388,26.220,-10299.656,-11227.215,-24906.647
1512180277,57.500,-57.400,89.500,34910.000,-79160.000,958620.000,-14000.000,5000.000,15000.000,-24.430,-44.735,-147.343,-37.315,-19.827,20.963,-10563.023,-11415.104,-24942.001
1512180277,-63.400,-45.100,92.000,5800.000,-89290.000,921020.000,-14000.000,5000.000,15000.000,-24.426,-50.614,-148.431,-34.715,-16.343,14.048,-10224.132,-11114.597,-24869.736
1512180277,52.900,-40.700,81.200,44130.000,-38330.000,1026980.000,-14000.000,5000.000,15000.000,-14.266,-40.443,-149.312,-27.603,-21.381,2.129,-10337.307,-11264.766,-24868.843
1512180277,116.200,-31.800,76.300,68420.000,-98820.000,1082820.000,-15000.000,-3000.000,6000.000,-16.273,-22.813,-156.745,-35.454,-6.848,13.698,-10072.308,-10701.870,-24945.816
1512180278,11.300,-20.100,101.300,65060.000,-95760.000,975950.000,-15000.000,-3000.000,6000.000,-20.918,3.905,-164.180,-33.732,-14.745,6.861,-9959.576,-10626.698,-25134.239
1512180278,-43.000,-2.300,87.400,70860.000,-78060.000,1022770.000,-15000.000,-3000.000,6000.000,-11.398,-28.131,-160.954,-14.167,-6.299,32.282,-10034.298,-10551.807,-25283.562
1512180278,92.000,-11.900,80.300,37170.000,-73790.000,1083190.000,-15000.000,-3000.000,6000.000,-18.889,-56.988,-161.165,-39.019,18.822,10.497,-9960.323,-10776.707,-25284.309
1512180278,77.200,-7.300,86.800,31010.000,-57250.000,1017580.000,-15000.000,-3000.000,6000.000,-4.911,48.793,-162.725,-28.488,-12.327,63.762,-10033.779,-10476.810,-24908.531
1512180278,0.700,11.100,89.700,23320.000,-60850.000,962040.000,-15000.000,3000.000,10000.000,-41.307,-110.429,-161.675,-5.372,-18.891,-67.031,-9734.188,-10551.365,-25061.104
1512180278,-71.900,25.000,97.100,19840.000,-54440.000,950680.000,-15000.000,3000.000,10000.000,38.900,55.282,-168.463,-57.334,27.839,34.857,-10036.816,-11151.814,-24908.836
1512180278,7.100,21.400,91.600,57800.000,-58900.000,996770.000,-15000.000,3000.000,10000.000,-37.026,-68.764,-160.401,3.362,4.363,-22.598,-9810.238,-10776.478,-25135.582
1512180278,75.000,31.400,91.300,79650.000,-21910.000,1042050.000,-15000.000,3000.000,10000.000,0.423,-2.471,-166.026,-9.581,-11.145,-1.372,-9582.500,-10176.136,-25062.218
1512180278,65.900,50.100,120.500,53040.000,-55420.000,1024600.000,-8000.000,17000.000,13000.000,-15.613,-21.727,-164.194,-29.888,-6.596,3.865,-9509.640,-10626.026,-25288.063
1512180278,-27.000,83.400,130.400,37780.000,-60730.000,964970.000,-8000.000,17000.000,13000.000,-6.064,-67.642,-163.147,-6.911,10.708,-55.583,-9509.228,-10551.029,-25138.023
1512180278,-53.700,80.000,129.300,26670.000,-43330.000,852480.000,-8000.000,17000.000,13000.000,14.282,85.137,-161.254,13.522,-3.546,71.529,-9357.876,-10250.797,-25139.168
1512180278,132.600,39.100,88.600,-38020.000,-35710.000,968570.000,-8000.000,17000.000,13000.000,-78.733,-179.927,-158.195,-13.515,-20.535,-61.973,-9284.191,-10550.694,-25064.934
1512180278,58.700,17.000,88.300,-55180.000,-35830.000,856810.000,-8000.000,17000.000,13000.000,48.558,125.796,-169.145,-8.367,18.793,45.579,-9358.288,-10325.794,-25289.192
1512180278,-47.800,16.900,90.000,-46260.000,-36010.000,933410.000,-21000.000,26000.000,15000.000,-35.085,-100.830,-150.892,8.098,-15.322,-3.186,-9432.613,-10175.907,-25288.490
1512180278,56.300,-12.800,90.300,-63290.000,-48280.000,947080.000,-21000.000,26000.000,15000.000,-30.479,-2.515,-166.473,-28.626,18.180,23.496,-9133.923,-10475.468,-25216.179
1512180278,-28.100,-6.300,89.200,-55850.000,-71470.000,937010.000,-21000.000,26000.000,15000.000,19.381,2.870,-151.875,-2.217,15.564,7.574,-9433.636,-10400.913,-25288.597
1512180278,-36.400,-22.200,87.800,-26000.000,-79280.000,957210.000,-21000.000,26000.000,15000.000,-38.191,-63.443,-155.073,5.842,-13.753,-1.776,-9283.138,-10325.687,-24989.830
1512180278,9.300,-45.000,85.100,14160.000,-48030.000,1055300.000,0.000,26000.000,-1000.000,4.601,15.685,-159.505,-26.743,19.530,31.907,-9432.461,-10175.907,-24988.487
1512180278,-8.500,-68.400,87.500,-17940.000,-108090.000,980530.000,0.000,26000.000,-1000.000,-14.852,-62.347,-147.265,0.414,5.509,8.457,-9355.846,-9800.800,-25138.954
1512180278,-23.300,-57.300,85.800,-17330.000,-123600.000,905580.000,0.000,26000.000,-1000.000,-29.507,-1.459,-161.126,-26.314,0.088,24.191,-9356.304,-9875.797,-25363.991
1512180278,65.800,-50.300,83.000,-1770.000,-115050.000,946590.000,0.000,26000.000,-1000.000,-2.048,-35.626,-146.988,1.554,4.628,-11.113,-9505.932,-9801.014,-25287.682
1512180278,49.400,-24.900,110.400,9280.000,-129150.000,941650.000,0.000,26000.000,-1000.000,-11.628,-35.641,-148.194,18.772,-5.356,1.055,-9131.603,-9950.459,-25290.932
1512180278,-70.600,0.700,92.100,18740.000,-111270.000,984860.000,0.000,26000.000,11000.000,-27.504,-15.355,-153.682,-22.969,-0.554,23.861,-9132.381,-10100.468,-25515.999
1512180278,-51.000,2.700,95.500,20320.000,-106140.000,1015990.000,0.000,26000.000,11000.000,0.122,-37.752,-149.095,12.447,-3.668,-16.495,-9131.634,-9950.459,-25365.929
1512180278,-29.200,0.100,102.100,1040.000,-83070.000,961360.000,0.000,26000.000,11000.000,-26.489,-40.992,-151.624,-14.230,-7.555,-14.463,-9129.910,-9575.459,-25290.764
1512180278,-10.800,-9.500,102.100,19900.000,-97600.000,1021730.000,0.000,26000.000,11000.000,-5.261,6.018,-144.761,-6.075,-33.696,1.509,-9131.298,-9875.462,-25365.898
1512180278,96.500,-34.500,100.100,6350.000,-102050.000,1020140.000,0.000,26000.000,11000.000,-1.534,-18.002,-144.786,-11.317,-1.403,9.948,-8980.999,-9800.236,-25442.146
1512180278,-17.800,-25.400,112.400,-2930.000,-85570.000,946410.000,-5000.000,31000.000,10000.000,-12.865,-44.741,-138.116,-21.018,-25.706,-12.959,-8942.493,-9575.176,-25442.352
1512180278,25.200,-19.300,103.500,60.000,-77510.000,1021910.000,-5000.000,31000.000,10000.000,-17.197,-44.755,-133.914,-4.558,-22.487,0.054,-8754.048,-9349.895,-25593.842
1512180278,-53.800,-21.300,109.100,-40280.000,-78190.000,931820.000,-5000.000,31000.000,10000.000,-11.323,-46.879,-134.368,-8.826,-19.520,7.606,-8829.052,-9350.010,-25593.209
1512180278,-53.800,-15.000,103.200,-40590.000,-43330.000,910640.000,-5000.000,31000.000,10000.000,-11.267,-28.182,-136.968,-11.142,-29.634,19.495,-8641.591,-9349.735,-25669.800
1512180278,6.000,-18.100,97.300,-3720.000,-83680.000,990300.000,-5000.000,31000.000,10000.000,-5.974,-6.812,-133.083,-10.197,-29.643,20.770,-8790.974,-9199.948,-25780.952
1512180278,38.200,-30.500,98.300,-26370.000,-57250.000,1009950.000,10000.000,26000.000,8000.000,-16.764,-38.891,-127.491,-19.992,-30.636,0.313,-8829.838,-9500.011,-25818.275
1512180278,-6.900,-41.900,108.400,-19840.000,-74460.000,986820.000,10000.000,26000.000,8000.000,-19.500,-40.507,-123.272,-33.074,-32.505,23.166,-8490.147,-9012.004,-25820.916
1512180278,-40.100,-51.300,113.700,-15870.000,-68910.000,1002080.000,10000.000,26000.000,8000.000,-17.448,-28.230,-117.869,-16.329,-24.412,30.566,-8904.431,-9387.623,-26005.089
1512180278,34.800,-73.600,120.200,-32650.000,-57980.000,989750.000,10000.000,26000.000,8000.000,-3.087,-12.188,-114.939,3.676,-22.172,7.823,-8413.944,-8749.386,-25783.935
1512180278,-35.000,-57.700,117.300,-3050.000,-106750.000,942140.000,5000.000,24000.000,13000.000,-20.044,-21.282,-121.614,-8.647,-18.921,10.153,-8376.873,-8824.329,-25971.794
1512180278,-85.400,-40.200,137.400,5550.000,-124270.000,989810.000,5000.000,24000.000,13000.000,-23.867,-50.139,-117.505,1.765,-27.462,-11.576,-8377.773,-9011.837,-26084.381
1512180279,28.200,-52.100,137.800,37840.000,-90940.000,1005490.000,5000.000,24000.000,13000.000,-0.520,-35.699,-110.722,8.123,-22.546,15.703,-8375.179,-8449.329,-25971.611
1512180279,-22.500,-51.400,149.100,47180.000,-109740.000,1012820.000,5000.000,24000.000,13000.000,-36.749,-66.728,-113.488,0.736,-35.251,0.499,-8374.737,-8299.320,-26421.547
1512180279,-57.900,-53.700,115.600,17640.000,-104490.000,1042420.000,5000.000,24000.000,13000.000,-10.163,-28.244,-107.638,-16.585,-27.352,33.131,-8825.558,-8525.013,-26042.824
1512180279,-143.700,-36.800,123.700,27160.000,-126950.000,984370.000,10000.000,26000.000,8000.000,-8.234,-83.800,-97.139,11.830,-41.779,11.584,-8675.945,-8599.781,-26119.133
1512180279,-103.100,-22.400,112.400,18190.000,-107540.000,1041200.000,10000.000,26000.000,8000.000,-26.220,-36.818,-103.635,-5.762,-28.374,45.655,-8526.608,-8749.561,-26120.476
1512180279,-19.700,-25.800,105.700,64150.000,-98140.000,1042300.000,10000.000,26000.000,8000.000,-5.058,-52.827,-94.856,-3.347,-38.182,57.800,-8604.397,-9349.674,-26270.119
1512180279,1.200,-32.600,125.800,26550.000,-138120.000,992860.000,10000.000,26000.000,8000.000,-36.137,-112.709,-88.053,-10.729,-31.970,-7.321,-8151.318,-8673.985,-26198.631
1512180279,-36.900,-18.400,171.500,38210.000,-108950.000,959410.000,29000.000,31000.000,0.000,24.943,40.162,-99.428,-18.363,-27.466,71.352,-8075.344,-8448.872,-26274.162
1512180279,-99.500,-11.200,229.400,43210.000,-128230.000,988340.000,29000.000,31000.000,0.000,-44.852,-134.105,-77.592,3.026,-30.525,13.954,-8300.488,-8449.207,-26572.243
1512180279,-20.100,-20.600,310.500,37480.000,-130550.000,992250.000,29000.000,31000.000,0.000,-6.257,-20.802,-85.167,-16.294,-16.887,43.137,-8525.753,-8524.555,-26420.372
1512180279,-72.600,-6.800,422.400,11960.000,-134400.000,956240.000,29000.000,31000.000,0.000,0.191,-29.327,-88.299,-10.120,-38.965,14.893,-8451.504,-8674.442,-26571.068
1512180279,61.300,31.000,456.300,5550.000,-145630.000,941770.000,29000.000,31000.000,0.000,-50.013,-103.116,-86.086,-8.389,-18.797,0.121,-8447.720,-7849.430,-26420.692
1512180279,225.800,-56.300,467.500,-17940.000,-113890.000,920170.000,65000.000,59000.000,-16000.000,9.696,6.988,-81.641,-31.822,-11.385,40.866,-8374.737,-8299.320,-26421.547
1512180279,-214.400,84.200,349.800,27830.000,-116880.000,1027280.000,65000.000,59000.000,-16000.000,-34.130,-78.538,-78.308,14.581,-43.997,-23.419,-8524.181,-8149.555,-26645.195
1512180279,-47.500,41.100,363.000,14220.000,-133790.000,959350.000,65000.000,59000.000,-16000.000,-10.478,-40.027,-88.492,-7.178,-24.346,7.905,-8524.883,-8299.549,-26720.268
1512180279,-69.400,59.800,404.500,35520.000,-142270.000,1060850.000,65000.000,59000.000,-16000.000,1.071,-24.006,-76.541,-7.812,-20.017,61.355,-8599.056,-8149.662,-26419.563
1512180279,53.900,32.800,448.200,2750.000,-121950.000,912350.000,65000.000,59000.000,-16000.000,-49.032,-124.486,-81.882,26.453,-23.115,-44.883,-8599.850,-8299.656,-26644.630
1512180279,-12.900,93.700,559.400,-26370.000,-87590.000,627380.000,170000.000,211000.000,-125000.000,31.202,71.130,-89.635,-24.579,-13.130,84.684,-8674.511,-8224.781,-26643.959
1512180279,980.000,552.300,764.600,-16170.000,-100830.000,641540.000,170000.000,211000.000,-125000.000,-74.856,-172.618,-69.630,-5.666,-35.316,-53.043,-8599.926,-8299.656,-26794.624
1512180279,-522.200,1643.700,991.100,168400.000,-310790.000,1355590.000,170000.000,211000.000,-125000.000,32.117,45.482,-81.180,-4.513,-30.738,13.193,-8600.002,-8299.656,-26944.618
1512180279,-630.800,33.400,1035.800,-108830.000,-1040.000,516600.000,170000.000,211000.000,-125000.000,-3.368,-41.126,-67.071,3.534,-38.538,34.790,-8823.986,-8075.001,-26942.604
1512180279,-626.100,-634.000,777.500,-121830.000,-12820.000,920900.000,247000.000,405000.000,-284000.000,-74.809,-130.964,-71.622,2.254,-17.060,-32.965,-8673.611,-7999.775,-26868.858
1512180279,-174.600,12.800,268.400,-3480.000,-50110.000,1030400.000,247000.000,405000.000,-284000.000,58.648,56.183,-74.366,-10.208,-8.206,3.722,-9126.873,-8675.449,-27315.331
1512180279,-199.500,-27.000,95.500,-68360.000,-105290.000,739750.000,247000.000,405000.000,-284000.000,-36.605,-79.655,-58.095,30.170,-54.344,1.805,-8597.942,-7849.659,-26869.423
1512180279,-24.100,144.600,160.100,-44740.000,-98020.000,1134580.000,247000.000,405000.000,-284000.000,-33.249,-47.583,-65.394,5.840,-15.053,34.163,-8522.976,-7849.552,-26945.061
1512180279,-146.500,-155.900,112.700,-20690.000,-133120.000,831480.000,247000.000,405000.000,-284000.000,6.009,-65.705,-55.295,3.833,-22.941,-63.332,-8897.305,-7700.108,-26941.795
1512180279,54.600,134.400,126.100,-29850.000,-130250.000,1006840.000,247000.000,416000.000,-277000.000,-24.390,-57.740,-53.575,12.662,-25.636,22.969,-9124.698,-8225.452,-27015.129
1512180279,51.500,134.600,107.700,6040.000,-105220.000,988950.000,247000.000,416000.000,-277000.000,-6.420,-29.428,-43.089,10.478,-50.038,-0.981,-8785.305,-7812.443,-26942.802
1512180279,-26.400,-83.200,119.400,-32650.000,-125920.000,1030580.000,247000.000,416000.000,-277000.000,-11.298,-33.183,-38.376,17.618,-16.360,48.866,-9084.957,-7737.896,-26902.726
1512180279,-20.900,-53.900,132.900,-62560.000,-68540.000,963750.000,247000.000,416000.000,-277000.000,4.622,-25.158,-33.853,10.861,-20.890,46.953,-8784.504,-7624.943,-27017.724
1512180279,39.800,28.100,143.100,-84110.000,-107910.000,923520.000,247000.000,416000.000,-277000.000,-8.191,-24.648,-32.973,9.916,-13.521,29.982,-9046.986,-7625.332,-26977.989
1512180279,-7.900,-13.400,139.300,-67570.000,-140080.000,982730.000,247000.000,412000.000,-280000.000,-12.704,-14.535,-17.010,4.459,-21.936,31.753,-9159.451,-7625.507,-26902.039
1512180279,75.600,57.900,130.800,-39980.000,-116880.000,1051570.000,247000.000,412000.000,-280000.000,-9.507,-32.691,-18.095,10.037,-15.223,4.012,-9009.617,-7662.777,-26903.328
1512180279,24.500,-13.300,128.200,9950.000,-120000.000,972720.000,247000.000,412000.000,-280000.000,-0.476,-21.462,-15.258,12.303,-7.890,-18.944,-9009.266,-7550.282,-27203.278
1512180279,30.800,34.900,140.300,-30330.000,-115540.000,974980.000,247000.000,412000.000,-280000.000,-7.470,-2.793,-11.033,11.122,-11.132,18.905,-9009.388,-7587.780,-27128.296
1512180279,-15.700,19.600,135.300,-87460.000,-88500.000,997740.000,256000.000,410000.000,-296000.000,-0.545,11.638,-9.815,2.337,-12.121,9.492,-9233.585,-7438.114,-26863.807
1512180279,14.600,-11.500,130.600,-34420.000,-56950.000,1068180.000,256000.000,410000.000,-296000.000,16.451,37.827,-4.679,20.523,-8.773,4.571,-9082.760,-7250.393,-26902.504
1512180279,-13.200,-9.600,133.700,-74830.000,-89420.000,1060550.000,256000.000,410000.000,-296000.000,6.807,15.906,-3.298,21.375,11.496,-9.800,-9120.350,-7287.945,-26752.197
1512180280,-45.100,10.400,132.100,-63480.000,-78310.000,953550.000,256000.000,410000.000,-296000.000,-15.971,49.532,-10.441,-10.223,-11.662,45.448,-9042.233,-6575.321,-26940.010
1512180280,-12.400,34.200,132.600,-14100.000,-141540.000,990360.000,256000.000,410000.000,-296000.000,-1.392,-13.503,7.675,14.739,-19.096,-53.138,-8818.630,-6874.989,-27017.052
1512180280,9.300,51.300,131.300,-4330.000,-111510.000,933960.000,253000.000,428000.000,-286000.000,49.885,116.898,7.806,38.617,-4.557,38.057,-8820.843,-7399.998,-26717.293
1512180280,28.000,50.900,130.400,-16720.000,-123050.000,991090.000,253000.000,428000.000,-286000.000,-43.742,-1.780,-8.887,9.071,-12.207,30.407,-8970.318,-7250.217,-27015.953
1512180280,38.600,4.900,134.000,-18010.000,-82090.000,1068790.000,253000.000,428000.000,-286000.000,21.115,34.611,2.838,-6.878,-1.165,-42.047,-8668.774,-6949.772,-26643.364
1512180280,5.900,32.200,130.900,-63050.000,-60240.000,1082460.000,253000.000,428000.000,-286000.000,36.906,84.816,18.170,47.535,-18.575,42.473,-8746.136,-7474.888,-26642.967
1512180280,39.700,-109.500,142.300,-66890.000,-66040.000,1044370.000,261000.000,437000.000,-270000.000,-49.325,-3.957,5.948,43.936,-31.184,11.685,-8819.454,-7099.995,-26642.159
1512180280,8.300,-33.800,144.200,-67320.000,-82090.000,989320.000,261000.000,437000.000,-270000.000,34.753,68.785,18.080,34.875,2.306,4.312,-8819.378,-7099.995,-26492.165
1512180280,74.200,-12.400,154.600,-46140.000,-62500.000,1011660.000,261000.000,437000.000,-270000.000,12.259,18.543,22.913,60.183,-9.996,12.236,-8595.089,-7249.653,-26569.145
1512180280,3.100,-51.700,149.800,-47730.000,-106450.000,940860.000,261000.000,437000.000,-270000.000,-27.880,52.699,1.125,32.891,4.357,17.614,-8822.308,-7700.001,-26942.436
1512180280,4.800,31.700,142.100,-6590.000,-130190.000,866030.000,261000.000,437000.000,-270000.000,38.598,15.339,41.405,48.583,-9.391,-16.773,-8895.611,-7325.108,-26941.628
1512180280,-15.000,-30.600,132.200,10930.000,-120970.000,985840.000,261000.000,433000.000,-277000.000,-11.305,55.869,30.159,53.251,-1.136,7.537,-8667.202,-6574.772,-26868.187
1512180280,-9.500,-41.100,131.400,17400.000,-129150.000,988950.000,261000.000,433000.000,-277000.000,22.905,53.796,24.251,11.288,24.238,33.212,-8518.810,-6949.543,-26719.643
1512180280,-7.100,11.900,129.800,-16780.000,-152340.000,974300.000,261000.000,433000.000,-277000.000,-6.263,19.528,46.097,37.600,-34.645,-53.320,-8744.793,-7174.885,-26642.830
1512180280,-17.000,-1.900,130.800,9770.000,-106750.000,969540.000,261000.000,433000.000,-277000.000,16.277,40.943,37.970,36.076,5.016,-7.425,-8442.806,-6724.430,-26720.177
1512180280,2.800,67.400,129.400,-2690.000,-152160.000,1021480.000,261000.000,433000.000,-277000.000,33.334,113.601,41.669,28.657,19.616,20.658,-8523.312,-7924.549,-26945.091
1512180280,-18.400,0.300,137.600,-20320.000,-116330.000,963010.000,258000.000,437000.000,-277000.000,-28.740,-60.624,47.625,31.068,-26.221,-78.826,-8370.129,-7249.317,-26646.049
1512180280,41.100,38.200,138.000,-19900.000,-82210.000,973270.000,258000.000,437000.000,-277000.000,61.181,148.908,35.800,31.054,13.031,11.543,-8368.511,-6874.317,-26795.891
1512180280,39.000,12.400,134.600,-17760.000,-114870.000,1020320.000,258000.000,437000.000,-277000.000,-1.123,-5.051,56.748,45.144,0.481,20.200,-8593.777,-6949.650,-26644.005
1512180280,-16.500,-16.000,135.700,-27280.000,-87040.000,939940.000,258000.000,437000.000,-277000.000,21.371,102.872,55.316,50.939,-37.785,13.994,-8296.398,-7549.213,-26496.834
1512180280,53.400,85.800,137.600,-85020.000,-115360.000,1061950.000,263000.000,446000.000,-272000.000,21.315,23.828,55.041,61.718,-1.886,-12.333,-8369.976,-7249.317,-26346.062
1512180280,-12.500,-23.700,144.300,-90210.000,-70370.000,922730.000,263000.000,446000.000,-272000.000,26.945,103.978,40.476,5.784,19.787,43.256,-8221.737,-7624.104,-26497.505
1512180280,25.600,61.000,138.900,-68850.000,-120610.000,961980.000,263000.000,446000.000,-272000.000,-3.277,37.659,58.993,26.327,-11.630,-8.474,-8596.401,-7549.656,-26494.286
1512180280,133.300,45.000,138.400,-42540.000,-66280.000,1014220.000,263000.000,446000.000,-272000.000,42.534,96.474,64.127,29.512,-4.813,4.222,-7845.684,-7398.533,-26425.591
1512180280,71.800,-19.000,139.000,-54200.000,-114620.000,1033750.000,263000.000,446000.000,-272000.000,7.203,46.202,70.903,16.673,17.548,-4.922,-7921.627,-7623.646,-26275.063
1512180280,80.200,34.400,134.500,-45100.000,-145260.000,977840.000,249000.000,442000.000,-292000.000,28.685,95.389,63.925,71.288,-10.510,-32.235,-7922.451,-7773.655,-26575.127
1512180280,55.100,7.500,137.000,-5550.000,-95640.000,1001160.000,249000.000,442000.000,-292000.000,2.091,43.553,58.029,13.836,19.148,-1.481,-8073.406,-7998.875,-26461.457
1512180280,110.700,63.900,137.200,-18860.000,-123900.000,1005980.000,249000.000,442000.000,-292000.000,20.488,64.910,74.359,78.736,-14.425,-10.159,-7659.633,-7735.752,-26277.344
1512180280,55.800,41.700,138.500,-50050.000,-116760.000,951540.000,249000.000,442000.000,-292000.000,17.334,63.308,71.643,58.703,2.055,-4.865,-7960.095,-7848.705,-26199.845
1512180280,36.900,77.100,132.800,-15810.000,-92350.000,971980.000,249000.000,442000.000,-292000.000,2.169,63.791,86.350,45.019,-12.467,27.732,-7586.002,-8073.146,-25978.134
1512180280,31.000,39.300,142.500,-50420.000,-68730.000,1032410.000,254000.000,447000.000,-280000.000,7.342,38.144,94.330,31.966,-12.452,-2.192,-7586.353,-8148.144,-26015.671
1512180280,25.600,3.700,139.500,-23800.000,-58110.000,1011840.000,254000.000,447000.000,-280000.000,1.816,28.500,105.944,41.432,-13.325,6.455,-7887.218,-8336.094,-26050.705
1512180280,18.100,8.300,135.300,-37110.000,-47360.000,996280.000,254000.000,447000.000,-280000.000,-10.977,-13.175,104.015,45.883,6.568,3.861,-7999.157,-8223.766,-25937.202
1512180280,-33.600,35.600,134.900,-70620.000,-108090.000,1068360.000,254000.000,447000.000,-280000.000,-16.113,-3.546,92.781,14.798,1.741,8.308,-8149.723,-8336.490,-26048.477
1512180280,-66.800,0.000,135.700,-27470.000,-98080.000,976010.000,258000.000,458000.000,-280000.000,3.635,27.996,92.643,23.714,16.290,-1.127,-8038.776,-8673.825,-26124.588
1512180280,12.300,68.000,133.000,-17520.000,-103520.000,1036440.000,258000.000,458000.000,-280000.000,-18.051,-4.593,81.022,-18.688,10.003,-16.155,-8075.764,-8561.382,-26124.215
1512180280,-8.000,10.100,128.100,-17940.000,-114870.000,966670.000,258000.000,458000.000,-280000.000,9.075,34.956,85.815,16.327,-1.229,6.719,-7886.822,-8261.097,-25938.172
1512180280,37.200,21.000,128.000,5490.000,-138790.000,934080.000,258000.000,458000.000,-280000.000,7.507,48.848,85.310,22.170,-10.213,-1.950,-8148.953,-8186.497,-25860.909
1512180281,42.500,28.200,122.400,-39920.000,-125730.000,966610.000,258000.000,458000.000,-280000.000,-15.503,-41.453,86.261,-9.255,30.555,-2.654,-7925.182,-8448.658,-25975.441
1512180281,35.800,-0.100,127.800,-29050.000,-103700.000,979430.000,254000.000,465000.000,-280000.000,4.735,88.882,93.403,30.649,-29.364,15.098,-8076.168,-8673.878,-25899.269
1512180281,-5.100,10.800,130.000,-38390.000,-108760.000,980830.000,254000.000,465000.000,-280000.000,8.202,33.383,75.140,29.647,-17.936,-21.866,-8151.730,-8823.994,-25673.698
1512180281,-58.600,35.600,138.900,-50900.000,-102360.000,910830.000,254000.000,465000.000,-280000.000,-4.745,22.661,83.442,-6.789,36.266,26.563,-8150.448,-8523.991,-25823.555
1512180281,-32.900,59.100,136.100,-60420.000,-80630.000,959720.000,254000.000,465000.000,-280000.000,-1.585,46.158,86.767,16.262,-8.245,2.885,-7701.046,-8673.313,-25677.467
1512180281,-57.300,4.700,129.400,-10990.000,-142030.000,987120.000,254000.000,465000.000,-280000.000,18.878,67.578,75.412,47.979,-22.422,20.680,-7925.411,-8523.655,-25750.481
1512180281,-48.500,9.900,133.200,-52920.000,-99850.000,951110.000,263000.000,477000.000,-272000.000,-14.316,4.484,80.037,13.613,16.853,56.005,-7776.043,-8673.435,-25676.826
1512180281,18.900,-8.300,123.800,-68360.000,-83070.000,915890.000,263000.000,477000.000,-272000.000,7.103,54.734,77.327,20.865,4.009,4.851,-7626.431,-8748.203,-25753.136
1512180281,19.200,-23.300,127.300,-83130.000,-70980.000,1002010.000,263000.000,477000.000,-272000.000,12.568,63.306,69.976,44.021,14.455,27.646,-7701.687,-8823.322,-25602.531
1512180281,37.700,1.100,118.800,-14040.000,-88870.000,1036800.000,263000.000,477000.000,-272000.000,-24.944,-6.201,78.785,-10.159,-1.001,21.715,-8303.570,-9199.223,-25972.603
1512180281,19.700,4.300,123.700,-56950.000,-70130.000,1057800.000,261000.000,472000.000,-277000.000,11.330,69.692,80.640,30.563,-27.495,-19.191,-8156.109,-9799.000,-25674.156
1512180281,-57.300,-17.400,123.300,-7750.000,-124450.000,956300.000,261000.000,472000.000,-277000.000,14.572,37.651,75.241,61.283,-7.970,12.934,-7926.907,-8898.655,-25375.648
1512180281,-3.100,61.400,127.300,-9160.000,-102540.000,1020020.000,261000.000,472000.000,-277000.000,-33.423,-15.820,75.431,3.291,14.007,12.384,-7776.760,-8823.429,-25751.884
1512180281,-34.200,7.200,121.800,-71470.000,-131160.000,956730.000,261000.000,472000.000,-277000.000,0.600,71.802,84.756,36.716,-18.446,-14.750,-7927.105,-8898.655,-25750.648
1512180281,-9.300,22.800,116.800,12570.000,-134770.000,989010.000,261000.000,472000.000,-277000.000,27.211,22.707,84.971,69.820,-16.114,-2.589,-8152.401,-8973.988,-25673.775
1512180281,-38.300,83.100,117.200,-29660.000,-106990.000,1109800.000,254000.000,475000.000,-270000.000,-45.144,-7.294,75.290,28.966,7.914,4.971,-7852.657,-9048.542,-25526.360
1512180281,-25.000,-35.200,121.600,-119320.000,-60850.000,955320.000,254000.000,475000.000,-270000.000,10.204,44.046,82.665,22.031,15.354,1.351,-7927.700,-9048.649,-25600.716
1512180281,26.200,-28.400,123.400,-47120.000,-106320.000,935550.000,254000.000,475000.000,-270000.000,10.063,38.690,91.174,28.801,-5.717,13.798,-7927.364,-8973.652,-25600.685
1512180281,126.800,207.300,117.800,16240.000,-118770.000,1072140.000,254000.000,475000.000,-270000.000,-33.622,4.448,88.291,12.543,-13.547,14.688,-8077.663,-9048.878,-25524.452
1512180281,-97.700,-77.900,116.400,-35100.000,-159360.000,797360.000,256000.000,477000.000,-269000.000,26.112,67.555,88.306,22.726,-10.059,18.257,-7853.756,-9273.548,-25676.460
1512180281,34.800,82.000,121.300,-82340.000,-116700.000,986450.000,256000.000,477000.000,-269000.000,-33.702,-24.402,91.386,10.063,-7.568,-10.352,-7851.421,-8748.539,-25751.213
1512180281,-44.300,15.300,92.300,-18130.000,-91920.000,943050.000,256000.000,477000.000,-269000.000,18.484,49.368,97.727,21.653,-14.512,-12.294,-7928.341,-9198.658,-25525.795
1512180281,5.700,11.300,100.000,-101500.000,-51820.000,1011900.000,256000.000,477000.000,-269000.000,17.517,49.383,92.386,27.368,-0.841,46.441,-7853.344,-9198.551,-25526.421
1512180281,-55.100,17.400,100.300,-89170.000,-81850.000,947570.000,256000.000,477000.000,-269000.000,-58.271,-54.352,93.058,18.037,-5.171,-34.599,-8151.943,-8898.991,-25448.738
1512180281,-4.100,45.700,96.500,-9090.000,-52310.000,943420.000,260000.000,481000.000,-275000.000,63.378,122.084,94.368,39.590,-13.667,30.699,-8154.430,-9424.000,-25673.988
1512180281,-18.900,87.500,102.100,-52120.000,-92100.000,1114560.000,260000.000,481000.000,-275000.000,-43.323,-48.983,92.229,47.798,-7.214,-10.763,-7927.929,-9123.661,-25375.755
1512180281,-108.400,-30.400,97.300,-50840.000,-71900.000,929260.000,260000.000,481000.000,-275000.000,7.913,42.959,92.758,24.719,-3.149,-3.341,-8153.675,-9273.991,-25523.910
1512180281,55.500,48.900,85.400,-19350.000,-82090.000,1046630.000,260000.000,481000.000,-275000.000,-4.253,31.733,86.145,16.893,1.337,26.564,-8078.587,-9273.877,-25337.044
1512180281,-75.100,-17.200,85.500,-46880.000,-96310.000,991030.000,260000.000,481000.000,-275000.000,15.485,71.820,87.103,16.831,9.915,30.219,-8154.934,-9573.994,-25336.548
1512180281,17.700,33.600,73.800,11960.000,-96130.000,977230.000,256000.000,481000.000,-279000.000,-10.099,36.001,85.543,-1.124,-11.362,-14.805,-7816.891,-9460.987,-25264.366
1512180281,88.200,65.400,71.200,-36740.000,-48950.000,1041870.000,256000.000,481000.000,-279000.000,-4.304,50.414,89.404,58.259,-0.729,-4.492,-7930.683,-9761.158,-25151.047
1512180281,29.300,24.600,69.800,-34000.000,-59140.000,962710.000,256000.000,481000.000,-279000.000,-11.143,42.410,84.484,38.423,-17.463,-28.124,-7819.081,-9948.490,-25264.588
1512180281,46.600,46.500,72.600,-31490.000,-53650.000,1012020.000,256000.000,481000.000,-279000.000,-26.352,12.975,99.616,35.805,-7.893,-22.608,-7779.782,-9573.429,-25039.734
1512180281,13.000,43.400,72.600,-33690.000,-77270.000,1032040.000,268000.000,497000.000,-284000.000,-15.740,23.671,103.541,34.096,19.114,-19.703,-7779.858,-9573.429,-25189.735
1512180281,-12.400,21.000,75.800,-67200.000,-30940.000,978210.000,268000.000,497000.000,-284000.000,15.614,26.910,109.336,38.802,-7.943,-18.982,-7555.622,-9760.601,-25041.733
1512180281,-27.700,53.500,71.400,-11720.000,-28750.000,945560.000,268000.000,497000.000,-284000.000,31.318,38.649,127.194,60.505,3.596,32.518,-7967.411,-9611.210,-24963.158
1512180281,-40.700,50.900,72.200,-39310.000,-90090.000,1001650.000,268000.000,497000.000,-284000.000,13.712,44.558,96.043,38.408,2.260,13.608,-7743.763,-9910.877,-24965.202
1512180281,-70.300,30.800,67.400,-49680.000,-72020.000,927860.000,268000.000,497000.000,-284000.000,7.099,35.977,108.710,1.146,16.588,28.486,-7969.402,-10061.214,-24888.375
1512180282,-35.700,58.200,57.900,-20510.000,-75010.000,932130.000,268000.000,493000.000,-284000.000,44.999,91.046,107.850,23.399,-3.644,-13.880,-7631.069,-9873.203,-24928.658
1512180282,-67.200,39.100,56.300,-72080.000,-55600.000,984010.000,268000.000,493000.000,-284000.000,7.840,70.714,97.647,17.928,13.468,77.585,-8156.033,-9873.997,-24849.190
1512180282,7.300,8.500,47.400,-43880.000,-43210.000,971010.000,268000.000,493000.000,-284000.000,-9.075,58.959,88.834,-43.249,5.032,34.078,-7706.707,-10023.319,-24853.081
1512180282,41.400,18.800,50.500,-42660.000,-61340.000,1001460.000,268000.000,493000.000,-284000.000,24.815,86.751,103.279,16.966,-6.941,23.414,-7931.683,-10023.655,-24776.176
1512180282,51.700,24.500,47.400,-37600.000,-48220.000,1031490.000,268000.000,493000.000,-284000.000,6.728,99.547,101.996,35.504,5.053,80.737,-7631.191,-9948.215,-24478.691
1512180282,-8.300,11.900,51.000,-26000.000,-77270.000,957280.000,254000.000,500000.000,-294000.000,-18.648,84.582,88.785,21.435,0.559,27.913,-7779.613,-9573.429,-24702.232
1512180282,4.700,41.700,44.700,-30330.000,-60060.000,989010.000,254000.000,500000.000,-294000.000,39.901,122.047,96.162,56.473,12.134,27.075,-7481.853,-10097.980,-24480.034
1512180282,-34.500,18.900,47.100,-36010.000,-32170.000,980710.000,254000.000,500000.000,-294000.000,-41.098,69.584,91.604,44.935,-4.938,27.552,-7707.272,-10173.313,-24628.151
1512180282,-66.600,-23.200,46.200,-36680.000,-37290.000,1003720.000,254000.000,500000.000,-294000.000,-1.579,139.079,90.286,11.594,-7.453,5.390,-7707.943,-10323.322,-24628.227
1512180282,-74.200,14.800,49.700,-111150.000,-46880.000,1016420.000,267000.000,491000.000,-299000.000,-0.914,53.590,111.323,57.555,2.508,-69.941,-7710.094,-10773.335,-24853.432
1512180282,-90.800,-22.000,33.600,-4330.000,-74890.000,925110.000,267000.000,491000.000,-299000.000,-18.804,146.516,101.793,43.619,-15.713,35.264,-7931.973,-10098.667,-24701.195
1512180282,-53.800,40.300,45.800,-13610.000,-99180.000,877500.000,267000.000,491000.000,-299000.000,-30.647,62.102,104.525,35.758,-13.947,-22.256,-7256.557,-10022.648,-24556.923
1512180282,4.000,119.400,43.900,-53770.000,-73000.000,917050.000,267000.000,491000.000,-299000.000,0.221,108.071,109.395,70.512,-8.842,-12.294,-7708.782,-10548.328,-24253.334
1512180282,-39.700,63.600,35.600,-67930.000,-39120.000,974370.000,267000.000,491000.000,-299000.000,-62.741,48.153,110.406,66.982,-15.956,-0.801,-7483.517,-10472.996,-24405.205
1512180282,36.000,-72.800,33.200,-42790.000,-40220.000,1039550.000,261000.000,497000.000,-294000.000,3.407,117.686,110.540,54.736,2.241,3.653,-7634.380,-10623.219,-24778.999
1512180282,110.900,29.400,34.000,-44560.000,-4270.000,1044310.000,261000.000,497000.000,-294000.000,-16.969,39.670,114.239,75.476,-14.050,-12.195,-7482.235,-10172.977,-24555.077
1512180282,67.000,-43.900,35.300,-42720.000,-76290.000,988280.000,261000.000,497000.000,-294000.000,-40.317,61.008,108.643,58.555,-16.120,11.944,-7333.843,-10547.764,-24406.517
1512180282,60.100,33.000,34.900,-72690.000,-29110.000,927730.000,261000.000,497000.000,-294000.000,1.097,61.054,118.840,38.626,-1.244,13.032,-7333.401,-10472.767,-24181.480
1512180282,73.400,51.300,27.400,-28320.000,-32590.000,958680.000,254000.000,497000.000,-297000.000,-36.268,46.031,120.374,60.442,-21.331,-4.489,-7409.557,-10697.880,-24480.949
1512180282,60.900,33.800,41.100,-81670.000,-5250.000,1046750.000,254000.000,497000.000,-297000.000,3.043,58.895,129.519,54.602,-10.862,24.588,-7483.852,-10547.993,-24405.251
1512180282,-16.200,-59.100,28.500,-71720.000,13610.000,955200.000,254000.000,497000.000,-297000.000,-35.316,13.975,125.606,36.873,-9.315,-13.050,-7484.112,-10622.990,-24255.272
1512180282,2.000,-45.800,28.000,-58780.000,-39250.000,1031430.000,254000.000,497000.000,-297000.000,-9.620,66.367,121.898,9.183,-13.781,28.812,-7333.889,-10547.764,-24481.514
1512180282,20.800,-24.900,28.400,-54690.000,-45230.000,1051570.000,254000.000,497000.000,-297000.000,-31.337,39.586,144.945,28.327,-13.138,0.491,-7484.783,-10772.999,-24255.348
1512180282,-29.600,0.800,19.300,-46940.000,-65310.000,985720.000,256000.000,488000.000,-286000.000,15.474,27.896,149.846,64.656,-15.284,-10.975,-7783.138,-10398.441,-24327.614
1512180282,-40.700,23.200,16.100,-51090.000,-46080.000,963070.000,256000.000,488000.000,-286000.000,-27.335,21.465,127.349,34.239,-5.749,17.850,-7710.308,-10885.822,-24290.985
1512180282,22.900,41.700,6.700,-51090.000,-61220.000,1023620.000,256000.000,488000.000,-286000.000,-8.957,49.229,145.301,65.115,-17.101,-0.835,-7710.987,-11035.832,-24291.061
1512180282,13.800,-52.300,14.500,-74280.000,-40710.000,1055360.000,256000.000,488000.000,-286000.000,-4.952,54.078,129.387,22.207,3.366,-14.806,-7449.146,-11185.436,-24255.851
1512180282,-23.800,-34.000,12.100,-15560.000,-35640.000,969790.000,254000.000,490000.000,-301000.000,6.151,58.889,134.893,32.345,-1.144,-14.806,-7523.410,-10998.043,-24480.125
1512180282,-18.800,0.800,18.500,-88320.000,-57920.000,981990.000,254000.000,490000.000,-301000.000,30.646,88.297,138.017,42.194,20.144,-13.940,-7636.005,-11035.717,-24329.193
1512180282,-49.400,20.900,16.800,-59750.000,-80750.000,952640.000,254000.000,490000.000,-301000.000,25.572,106.476,123.081,8.229,26.087,1.164,-7674.633,-11298.275,-24216.499
1512180282,42.500,49.300,17.200,-43400.000,-35030.000,980040.000,254000.000,490000.000,-301000.000,31.817,66.950,130.497,38.585,-29.334,8.468,-7713.932,-11710.835,-24103.867
1512180282,-10.700,40.500,9.700,-105100.000,-69760.000,967100.000,254000.000,490000.000,-301000.000,14.410,48.252,118.453,39.680,-10.614,8.151,-7825.436,-11485.996,-24140.304
1512180282,4.000,-12.300,7.600,-74400.000,-32900.000,928770.000,261000.000,472000.000,-297000.000,36.005,94.184,136.516,56.518,-12.491,10.796,-7825.947,-11598.507,-24140.365
1512180282,56.700,-13.400,3.200,-85390.000,-4150.000,1019960.000,261000.000,472000.000,-297000.000,-4.102,48.712,142.173,63.251,-4.846,2.743,-7751.819,-11785.892,-24216.088
1512180282,20.600,-19.400,1.700,-89600.000,-33390.000,1007810.000,261000.000,472000.000,-297000.000,34.970,90.446,134.356,57.647,3.222,-1.146,-7451.595,-11785.443,-23768.631
1512180282,-5.900,12.100,-1.900,-39370.000,-43640.000,931460.000,261000.000,472000.000,-297000.000,28.106,28.964,159.627,39.742,0.765,-10.857,-7453.320,-12160.443,-23843.811
1512180282,-20.600,22.100,-1.100,-85140.000,-99240.000,954160.000,261000.000,472000.000,-297000.000,1.864,45.998,167.834,77.987,-35.093,13.219,-7416.256,-12235.386,-24031.662
1512180283,-8.800,72.000,-9.100,-30820.000,-75500.000,948180.000,247000.000,493000.000,-294000.000,35.508,51.395,164.075,40.690,20.941,13.312,-7416.088,-12197.880,-24031.639
1512180283,2.500,54.200,-8.500,-72810.000,-43520.000,974730.000,247000.000,493000.000,-294000.000,-6.975,97.282,157.225,76.478,-12.305,26.997,-7565.411,-12048.115,-24030.296
1512180283,-19.600,-38.300,-4.400,-113220.000,-26920.000,998050.000,247000.000,493000.000,-294000.000,13.951,-38.385,174.111,92.062,2.133,-37.248,-7792.370,-12498.447,-23878.593
1512180283,-8.300,-21.800,-4.100,-106380.000,-12700.000,964780.000,247000.000,493000.000,-294000.000,20.614,75.947,163.947,27.223,19.366,45.926,-7718.380,-12723.347,-23879.341
1512180283,17.800,-8.400,3.600,-103880.000,-10130.000,985600.000,251000.000,475000.000,-301000.000,-31.529,7.516,154.423,42.899,-22.000,-19.435,-7942.287,-12498.676,-23727.318
1512180283,49.300,-2.800,-3.200,-82460.000,-26610.000,960630.000,251000.000,475000.000,-301000.000,55.794,93.088,164.515,72.685,-6.542,30.317,-7941.921,-12423.679,-23652.290
1512180283,58.200,14.000,-4.100,-72630.000,-27400.000,982120.000,251000.000,475000.000,-301000.000,-70.316,-70.559,175.979,20.850,-15.258,12.339,-7942.623,-12573.673,-23727.348
1512180283,18.400,13.000,-10.000,-70130.000,-36500.000,977110.000,251000.000,475000.000,-301000.000,36.636,135.791,165.455,30.720,-14.620,27.249,-8016.918,-12423.786,-23651.649
1512180283,-47.400,-29.800,-10.900,-105710.000,-55240.000,972530.000,251000.000,475000.000,-301000.000,-12.663,28.868,175.025,100.323,-32.181,-49.672,-8093.044,-12648.899,-23876.106
1512180283,-26.100,-9.200,-12.400,-83560.000,-12450.000,950620.000,258000.000,475000.000,-294000.000,-45.728,-30.997,173.273,49.247,-4.549,-20.725,-8171.444,-13399.021,-23950.813
1512180283,-35.200,-10.900,-11.700,-94300.000,-59140.000,1016360.000,258000.000,475000.000,-294000.000,46.177,135.793,167.722,30.183,18.947,15.709,-8167.889,-12649.021,-23575.478
1512180283,-44.700,-31.600,-7.500,-111570.000,-52730.000,972290.000,258000.000,475000.000,-294000.000,-53.531,-53.476,193.339,78.317,-27.691,-56.028,-7867.779,-12648.563,-23353.020
1512180283,-19.800,30.400,-9.700,-90330.000,-61400.000,952210.000,258000.000,475000.000,-294000.000,-26.619,58.742,182.390,30.237,-0.907,-40.142,-8318.600,-12799.244,-23649.269
1512180283,-35.700,8.000,-9.600,-76110.000,-91060.000,971070.000,258000.000,475000.000,-294000.000,17.991,35.295,191.484,35.709,46.176,-66.528,-8170.254,-13174.015,-23575.722
1512180283,45.100,-12.000,-16.000,-84410.000,-42050.000,998720.000,258000.000,479000.000,-308000.000,-33.117,54.443,187.608,98.802,-12.688,-34.811,-7943.859,-12873.676,-23502.495
1512180283,37.200,-20.200,-10.300,-118350.000,-60180.000,950320.000,258000.000,479000.000,-308000.000,-45.939,-2.186,187.228,14.669,-49.835,-57.583,-8245.968,-13324.131,-23650.154
1512180283,31.800,-7.300,-11.200,-96740.000,-4940.000,1014890.000,258000.000,479000.000,-308000.000,37.105,58.813,197.173,18.533,2.787,-7.547,-8168.941,-12874.012,-23650.581
1512180283,47.400,-1.900,-12.500,-64390.000,-16540.000,1013490.000,258000.000,479000.000,-308000.000,-23.569,54.455,190.947,48.149,14.393,59.532,-8167.171,-12499.012,-23500.404
1512180283,19.200,-0.700,-11.700,-103270.000,-73550.000,997920.000,247000.000,475000.000,-297000.000,-11.595,61.986,177.292,50.172,-2.947,49.034,-8244.579,-13024.128,-23575.005
1512180283,49.500,25.000,-20.000,-51390.000,-37600.000,917660.000,247000.000,475000.000,-297000.000,16.082,95.133,181.005,34.220,1.661,47.807,-8244.686,-13024.128,-23800.011
1512180283,63.800,12.100,-14.600,-90030.000,-18620.000,1001830.000,247000.000,475000.000,-297000.000,0.303,72.702,166.838,26.356,4.150,38.987,-8468.899,-12874.470,-23573.021
1512180283,-50.100,-35.600,-16.400,-147030.000,-37350.000,992610.000,247000.000,475000.000,-297000.000,30.235,74.894,161.949,-2.028,15.711,26.101,-8318.493,-12799.244,-23424.278
1512180283,-22.400,-18.800,-20.100,-93630.000,13180.000,959110.000,247000.000,475000.000,-297000.000,4.502,41.724,168.922,-11.326,18.533,30.553,-8320.217,-13174.244,-23499.443
1512180283,38.200,-35.300,-19.200,-92100.000,-34850.000,1077030.000,249000.000,477000.000,-306000.000,55.818,114.449,163.521,20.277,7.717,43.107,-8621.151,-13399.693,-23346.992
1512180283,2.500,-29.300,-23.600,-79470.000,-43760.000,1006100.000,249000.000,477000.000,-306000.000,21.569,15.048,166.944,69.351,-15.577,0.150,-8547.131,-13624.592,-23272.743
1512180283,68.600,34.900,-26.500,-89780.000,-44190.000,989500.000,249000.000,477000.000,-306000.000,31.571,87.744,146.022,13.054,-5.137,53.224,-8620.739,-13324.696,-23196.953
1512180283,8.000,-15.300,-20.000,-145140.000,-40530.000,969670.000,249000.000,477000.000,-306000.000,32.414,45.533,158.149,42.358,4.661,22.733,-8547.901,-13774.586,-23460.311
1512180283,6.700,8.100,-27.200,-80570.000,-11720.000,950070.000,249000.000,477000.000,-306000.000,45.787,78.132,156.322,32.066,-17.889,-5.148,-8359.288,-13549.298,-23274.300
1512180283,-0.900,-45.900,-20.600,-128360.000,-12700.000,1004330.000,254000.000,497000.000,-294000.000,35.541,79.706,163.642,52.974,-9.794,9.604,-8509.922,-13699.528,-23198.097
1512180283,-56.500,-72.800,-21.600,-116640.000,-41560.000,928890.000,254000.000,497000.000,-294000.000,32.385,33.242,158.637,45.909,2.901,-18.390,-8398.251,-13886.860,-23161.628
1512180283,23.600,19.800,-22.000,-79040.000,-27470.000,1006770.000,254000.000,497000.000,-294000.000,24.150,23.590,172.876,54.877,-21.709,-18.143,-8811.145,-13999.980,-22933.181
1512180283,0.100,-20.600,-22.900,-94120.000,-56760.000,1005550.000,254000.000,497000.000,-294000.000,15.316,5.442,157.758,39.620,7.987,-2.389,-8888.042,-14412.593,-23007.728
1512180283,8.100,0.500,-26.000,-87590.000,-27530.000,959350.000,235000.000,484000.000,-299000.000,20.704,19.879,155.222,35.467,-3.746,9.746,-8812.740,-14337.483,-23083.336
1512180283,44.100,-11.900,-26.600,-111330.000,-10620.000,974490.000,235000.000,484000.000,-299000.000,46.268,40.740,157.263,42.136,-4.258,11.552,-8888.355,-14450.092,-23307.755
1512180283,22.900,-60.100,-30.400,-92220.000,-23500.000,984680.000,235000.000,484000.000,-299000.000,45.800,35.411,153.508,15.357,2.706,21.680,-9338.833,-14563.275,-23228.981
1512180283,35.800,-52.300,-28.500,-80510.000,-24480.000,977480.000,235000.000,484000.000,-299000.000,50.607,57.846,153.655,37.277,-6.144,23.523,-9263.546,-14525.654,-23004.601
1512180283,31.400,-20.200,-30.000,-74580.000,-21000.000,931950.000,235000.000,484000.000,-299000.000,41.592,32.743,150.242,16.405,-7.293,5.734,-9227.886,-14938.106,-22967.605
1512180283,33.800,-7.700,-23.400,-98450.000,-41690.000,969730.000,261000.000,475000.000,-297000.000,23.395,-6.282,152.506,35.142,-5.997,-2.198,-9603.863,-15163.669,-22889.526
1512180284,24.600,4.700,-28.400,-72140.000,-47790.000,989620.000,261000.000,475000.000,-297000.000,56.012,76.019,149.530,52.484,-7.617,7.331,-9379.147,-15200.825,-23116.447
1512180284,-13.800,-29.700,-27.700,-94970.000,-40590.000,974490.000,261000.000,475000.000,-297000.000,27.288,-0.919,142.451,37.900,-23.627,-14.513,-9604.702,-15351.170,-22889.610
1512180284,-31.200,-31.200,-26.400,-110600.000,-23740.000,958680.000,261000.000,475000.000,-297000.000,34.892,56.792,137.435,37.100,3.917,-4.230,-9603.573,-15126.163,-22664.513
1512180284,-28.200,-7.900,-26.900,-98390.000,-29050.000,978330.000,251000.000,472000.000,-291000.000,41.117,7.644,144.814,5.622,18.206,-10.981,-9906.353,-15726.627,-22812.233
1512180284,-30.100,-22.600,-29.000,-101990.000,-31800.000,974300.000,251000.000,472000.000,-291000.000,36.908,73.869,144.985,37.421,-27.848,-11.241,-9832.027,-15876.514,-22812.935
1512180284,-35.800,-4.000,-28.000,-91490.000,-29300.000,946410.000,251000.000,472000.000,-291000.000,28.327,-11.595,144.565,26.859,-17.368,-41.953,-9981.701,-15801.731,-22811.623
1512180284,26.500,9.200,-30.500,-74220.000,-33690.000,968990.000,251000.000,472000.000,-291000.000,42.236,66.394,143.967,19.324,6.155,1.106,-9829.708,-15351.505,-22887.703
1512180284,-10.700,-22.500,-30.900,-97050.000,-59200.000,988400.000,251000.000,472000.000,-291000.000,-7.850,2.235,139.820,40.858,-4.828,-47.264,-9980.724,-15576.740,-22886.528
1512180284,-11.900,-9.900,-32.100,-77390.000,-30460.000,959470.000,251000.000,475000.000,-287000.000,62.580,77.123,140.038,25.517,-6.471,-26.783,-9755.260,-15501.392,-22663.414
1512180284,21.600,-7.700,-36.500,-98140.000,-30090.000,976990.000,251000.000,475000.000,-287000.000,-22.802,-6.332,141.708,14.919,-27.012,-6.599,-10283.947,-16327.183,-22584.328
1512180284,-24.800,-25.600,-37.700,-107060.000,-58230.000,970700.000,251000.000,475000.000,-287000.000,57.097,70.684,148.463,34.287,-2.405,8.280,-10056.286,-15726.841,-22660.973
1512180284,-8.700,1.200,-39.500,-80810.000,-30090.000,1004520.000,251000.000,475000.000,-287000.000,19.827,30.049,144.586,57.267,-21.769,-15.666,-10432.034,-15877.415,-22807.838
1512180284,-32.100,-29.700,-36.900,-102290.000,-39920.000,971860.000,263000.000,467000.000,-292000.000,-5.525,39.648,130.391,26.548,-24.217,27.713,-10732.830,-16102.863,-22355.400
1512180284,-6.400,-3.300,-40.900,-90330.000,-44490.000,953740.000,263000.000,467000.000,-292000.000,72.340,81.426,129.532,28.510,-25.333,-6.313,-10057.598,-16026.844,-22586.098
1512180284,62.200,-8.500,-37.600,-74040.000,-9580.000,949770.000,263000.000,467000.000,-292000.000,-3.447,33.237,133.598,30.028,-42.698,34.233,-10437.466,-17077.427,-22883.400
1512180284,59.300,-5.600,-37.800,-119810.000,-15990.000,1013610.000,263000.000,467000.000,-292000.000,27.399,21.527,137.202,1.222,-37.374,14.801,-10507.183,-15952.518,-22432.243
1512180284,43.400,-39.000,-34.100,-111760.000,14830.000,1017090.000,263000.000,467000.000,-292000.000,40.267,68.548,134.352,12.675,-56.025,-4.205,-10282.894,-16102.192,-22509.224
1512180284,-22.800,-22.800,-36.000,-97780.000,-26370.000,1018130.000,249000.000,449000.000,-296000.000,15.779,65.314,132.922,-6.093,-69.561,73.014,-10285.625,-16702.198,-22584.511
1512180284,-19.400,-8.500,-39.300,-82280.000,-5070.000,1012270.000,249000.000,449000.000,-296000.000,7.953,-14.852,150.651,13.443,-103.727,-40.209,-10659.283,-16402.760,-22581.184
1512180284,-14.600,-19.200,-45.400,-99430.000,-25820.000,983150.000,249000.000,449000.000,-296000.000,53.153,150.822,132.692,-12.326,-88.357,81.693,-10884.212,-16403.095,-22429.268
1512180284,-63.100,-15.000,-41.800,-116270.000,-32040.000,959050.000,249000.000,449000.000,-296000.000,9.154,-10.565,142.153,-13.427,-74.694,24.331,-10510.632,-16702.534,-22582.588
1512180284,-27.800,9.100,-48.200,-57310.000,-11050.000,953370.000,249000.000,449000.000,-296000.000,44.378,93.104,145.159,25.461,-102.960,34.773,-10734.631,-16477.863,-22580.574
1512180284,-28.200,-33.000,-44.600,-86360.000,-34850.000,995480.000,247000.000,461000.000,-277000.000,24.155,73.854,142.668,11.890,-101.797,46.107,-10734.844,-16552.860,-22355.614
1512180284,32.900,-25.400,-45.800,-96070.000,-26180.000,984560.000,247000.000,461000.000,-277000.000,43.362,81.362,141.907,33.601,-104.719,32.368,-10511.196,-16852.528,-22357.658
1512180284,56.600,-12.500,-45.500,-94970.000,33870.000,981870.000,247000.000,461000.000,-277000.000,27.881,46.088,141.559,29.299,-67.579,2.669,-10811.146,-16852.978,-22242.615
1512180284,66.800,-39.500,-47.300,-81420.000,13850.000,1005310.000,247000.000,461000.000,-277000.000,25.643,39.128,147.365,75.895,-74.002,15.590,-10963.283,-17303.211,-22466.545
1512180284,-21.000,-49.400,-47.000,-96560.000,-2380.000,997380.000,265000.000,461000.000,-284000.000,20.916,48.209,143.597,42.291,-59.150,32.424,-11146.892,-16440.983,-22464.554
1512180284,-20.200,-26.000,-45.500,-91000.000,-15440.000,932500.000,265000.000,461000.000,-284000.000,26.647,35.385,151.098,37.904,-41.233,6.902,-11149.617,-17040.982,-22502.327
1512180284,-18.000,-12.000,-51.500,-48520.000,-35100.000,1007870.000,265000.000,461000.000,-284000.000,27.322,48.754,143.159,0.689,-34.474,21.232,-11148.693,-16853.489,-22352.249
1512180284,-49.500,-11.500,-48.700,-97960.000,-48220.000,978520.000,265000.000,461000.000,-284000.000,11.623,54.574,157.876,21.350,-61.425,21.018,-11374.767,-17116.329,-22125.458
1512180284,-47.000,-16.500,-48.300,-90450.000,-62810.000,939210.000,265000.000,461000.000,-284000.000,9.551,9.720,152.361,31.786,-49.578,19.289,-11300.426,-17228.718,-22426.140
1512180284,-20.900,13.600,-49.100,-114070.000,-44430.000,981570.000,261000.000,468000.000,-294000.000,7.491,-18.047,146.370,52.848,-42.040,29.955,-11449.917,-17116.444,-22424.812
1512180284,-35.400,-36.900,-51.100,-45230.000,-24230.000,1012080.000,261000.000,468000.000,-294000.000,24.649,10.295,141.386,33.157,-57.507,23.588,-11787.845,-17191.944,-22609.482
1512180284,-32.800,-15.300,-53.000,-55240.000,-29970.000,1001650.000,261000.000,468000.000,-294000.000,19.869,-20.150,139.079,25.113,-49.575,1.799,-12239.834,-17642.628,-22530.861
1512180284,-18.000,-24.600,-49.800,-86430.000,-49560.000,967900.000,261000.000,468000.000,-294000.000,25.657,-20.148,143.962,8.722,-63.215,3.526,-12238.361,-17305.126,-22605.713
1512180284,-44.200,-12.800,-53.100,-80990.000,-31800.000,983890.000,261000.000,468000.000,-294000.000,27.953,-1.973,133.927,-5.058,-62.488,18.102,-12689.579,-17568.302,-22676.994
1512180284,35.400,-15.700,-50.300,-83370.000,13490.000,990780.000,249000.000,456000.000,-279000.000,26.822,-9.992,137.614,-17.000,-67.100,17.373,-12691.097,-17905.803,-22677.162
1512180285,23.400,-25.800,-60.600,-69820.000,-46450.000,1025760.000,249000.000,456000.000,-279000.000,23.175,42.890,136.151,14.629,-74.839,46.874,-12689.053,-17455.799,-22639.458
1512180285,27.600,-22.800,-62.700,-40590.000,-18010.000,983280.000,249000.000,456000.000,-279000.000,28.589,-34.002,126.363,17.156,-46.047,11.689,-13065.548,-17756.367,-22936.394
1512180285,-27.200,-6.700,-63.300,-55180.000,-37840.000,956600.000,249000.000,456000.000,-279000.000,27.821,3.419,110.493,-48.555,-26.304,16.573,-13065.472,-17756.367,-22786.400
1512180285,-54.100,-9.900,-68.300,-60550.000,-24170.000,952210.000,242000.000,463000.000,-282000.000,36.370,57.907,111.872,-24.860,-19.079,75.943,-13140.774,-17831.470,-22710.808
1512180285,-83.600,-21.200,-66.700,-16660.000,8120.000,986270.000,242000.000,463000.000,-282000.000,26.603,-43.595,117.776,6.218,-18.887,1.519,-13067.059,-18131.367,-22561.577
1512180285,-85.200,-18.400,-62.500,-88440.000,1770.000,997920.000,242000.000,463000.000,-282000.000,18.469,66.451,98.850,-26.546,-29.392,44.000,-13365.444,-17756.809,-22708.855
1512180285,-76.600,-24.400,-63.300,-48650.000,-3660.000,960020.000,242000.000,463000.000,-282000.000,38.866,50.478,89.496,-27.062,-41.682,32.356,-13367.611,-18206.821,-23009.056
1512180285,-26.200,4.000,-65.000,-86060.000,-34610.000,1029420.000,242000.000,463000.000,-282000.000,18.670,7.730,83.724,-33.730,-54.095,-3.769,-13367.840,-18281.818,-22784.081
1512180285,-11.500,32.500,-66.800,-53100.000,-2140.000,964050.000,244000.000,447000.000,-277000.000,5.851,44.021,86.861,-49.723,-48.185,14.204,-13443.737,-18506.931,-22558.556
1512180285,43.400,49.400,-71.100,-54930.000,-15560.000,1010990.000,244000.000,447000.000,-277000.000,73.015,86.849,89.051,4.880,-46.818,18.438,-13594.006,-18507.160,-23082.283
1512180285,15.000,10.900,-67.000,-86430.000,9950.000,1014280.000,244000.000,447000.000,-277000.000,2.706,6.643,82.424,29.615,-68.858,-10.547,-13592.388,-18207.157,-22557.152
1512180285,-7.700,-7.500,-72.800,-55600.000,-1590.000,994810.000,244000.000,447000.000,-277000.000,48.942,74.046,60.938,-0.353,-52.610,27.599,-13592.770,-18282.154,-22632.195
1512180285,13.200,-21.400,-67.800,-87650.000,33810.000,1001220.000,256000.000,463000.000,-265000.000,29.685,29.147,62.634,-17.472,-41.055,3.936,-13669.003,-18582.264,-22406.685
1512180285,-59.100,1.300,-71.800,-59940.000,-8670.000,954470.000,256000.000,463000.000,-265000.000,21.950,-0.800,78.411,7.163,-72.095,-18.930,-14119.839,-18732.944,-22702.934
1512180285,0.300,49.900,-77.200,-31190.000,-15630.000,981260.000,256000.000,463000.000,-265000.000,62.549,102.880,78.295,17.790,-66.800,59.359,-13822.414,-19332.493,-22480.766
1512180285,-21.400,32.000,-69.200,-82640.000,-2930.000,975040.000,256000.000,463000.000,-265000.000,-3.718,-59.598,79.965,20.938,-58.480,-2.055,-13896.328,-19107.609,-22330.009
1512180285,-6.100,-21.600,-72.400,-68660.000,13370.000,911500.000,256000.000,463000.000,-265000.000,57.371,99.684,68.613,25.148,-59.395,42.375,-13669.338,-18657.276,-22406.715
1512180285,27.400,-26.400,-67.800,-94180.000,25150.000,943420.000,247000.000,447000.000,-243000.000,-4.536,-59.569,65.028,9.640,-6.794,-7.866,-14123.058,-19482.944,-22403.267
1512180285,4.100,-37.800,-81.000,-81670.000,21670.000,984250.000,247000.000,447000.000,-243000.000,68.920,71.904,77.209,-21.756,-51.523,30.287,-13671.963,-19257.267,-22256.996
1512180285,5.600,-39.800,-75.800,-56640.000,41440.000,1006960.000,247000.000,447000.000,-243000.000,-4.594,-15.778,71.580,28.151,-78.172,-10.222,-13672.756,-19407.276,-22482.063
1512180285,32.900,-30.000,-81.600,-70310.000,17330.000,1018920.000,247000.000,447000.000,-243000.000,72.312,18.530,63.215,-28.340,-15.429,0.370,-13670.803,-19032.276,-21956.902
1512180285,62.600,-11.100,-75.000,-87160.000,49990.000,973450.000,247000.000,447000.000,-243000.000,1.652,-10.451,80.215,-1.786,-96.319,27.193,-14045.879,-19032.841,-22103.706
1512180285,17.200,31.400,-88.300,-68970.000,21120.000,1019960.000,261000.000,479000.000,-253000.000,19.922,-20.018,70.851,4.950,-64.339,33.803,-14121.563,-19182.941,-22103.142
1512180285,19.700,-32.500,-91.600,-54690.000,-4580.000,995300.000,261000.000,479000.000,-253000.000,41.246,-59.504,68.892,14.566,-18.907,-21.615,-13971.111,-19107.716,-21879.372
1512180285,20.200,-4.100,-94.500,-7450.000,-22580.000,990170.000,261000.000,479000.000,-253000.000,10.640,61.182,56.076,-6.717,-63.706,119.505,-13896.816,-19257.618,-21955.086
1512180285,-15.700,50.100,-90.400,-66590.000,-27950.000,1026670.000,261000.000,479000.000,-253000.000,9.429,-89.438,57.667,22.420,-51.484,-41.790,-13671.474,-19182.270,-21956.963
1512180285,-100.000,-19.600,-87.200,-58230.000,-7570.000,986510.000,268000.000,490000.000,-267000.000,4.947,-5.029,42.437,-28.309,-21.150,40.020,-13935.894,-19595.165,-22067.428
1512180285,-39.900,8.700,-87.000,-60730.000,4520.000,967100.000,268000.000,490000.000,-267000.000,40.399,3.007,58.971,-18.184,-38.910,-16.106,-14084.805,-19370.396,-21916.038
1512180285,-51.700,21.200,-87.200,-109440.000,-14040.000,974000.000,268000.000,490000.000,-267000.000,7.633,-25.320,39.738,-31.897,-34.208,1.715,-14310.894,-19595.729,-22064.231
1512180285,-8.300,-4.300,-91.100,-65370.000,-27710.000,948850.000,268000.000,490000.000,-267000.000,-9.875,-21.062,35.236,-32.517,-38.160,66.757,-14010.868,-19595.280,-22029.282
1512180285,20.100,10.800,-91.300,-88930.000,4460.000,989260.000,268000.000,490000.000,-267000.000,39.439,78.380,23.504,-7.838,-47.412,41.619,-14010.136,-19445.278,-21916.710
1512180285,2.400,-4.700,-98.500,-80510.000,-25020.000,970830.000,268000.000,479000.000,-280000.000,19.789,23.887,16.634,-27.490,-22.314,1.849,-13974.720,-19895.229,-22029.739
1512180285,5.300,17.700,-104.100,-33940.000,-6770.000,1000550.000,268000.000,479000.000,-280000.000,14.603,19.622,7.482,-13.350,-50.125,-9.166,-13823.284,-19594.997,-21843.376
1512180285,-28.800,6.800,-103.700,-54570.000,-13670.000,1005070.000,268000.000,479000.000,-280000.000,29.891,31.909,18.407,22.538,-40.370,18.063,-13899.456,-19857.617,-21842.865
1512180285,-55.300,-16.400,-99.100,-91980.000,46750.000,991880.000,268000.000,479000.000,-280000.000,21.768,-6.035,24.555,26.656,-44.718,-17.581,-13713.139,-20157.337,-21507.095
1512180285,-31.600,21.300,-104.100,-72510.000,24540.000,1034120.000,268000.000,479000.000,-280000.000,24.911,8.381,28.381,25.496,-63.368,-14.652,-13675.083,-20044.781,-21394.860
1512180285,-22.800,-27.600,-102.700,-59390.000,-20940.000,1007200.000,268000.000,472000.000,-280000.000,0.249,-13.566,36.478,10.796,-24.100,-5.665,-13676.503,-20382.282,-21207.519
1512180285,-40.500,-2.800,-107.700,-44190.000,-48160.000,942810.000,268000.000,472000.000,-280000.000,35.843,3.027,43.978,51.093,-53.143,6.299,-14199.467,-19970.570,-20827.873
1512180286,3.300,42.200,-112.100,-41020.000,-17400.000,986760.000,268000.000,472000.000,-280000.000,33.186,-28.484,42.232,-0.979,0.038,12.557,-13675.457,-20232.273,-20457.451
1512180286,-18.400,-54.100,-114.600,-35950.000,-16910.000,982970.000,268000.000,472000.000,-280000.000,43.721,20.649,52.150,58.326,-33.424,-22.643,-14051.098,-20382.847,-20379.326
1512180286,47.700,-20.100,-121.600,-61520.000,5680.000,993650.000,265000.000,475000.000,-291000.000,1.097,12.040,50.435,49.957,-32.740,54.261,-13597.271,-19557.163,-20157.784
1512180286,48.100,-45.800,-116.400,-59570.000,9520.000,1001160.000,265000.000,475000.000,-291000.000,43.552,-47.735,58.303,15.845,11.912,-35.544,-14125.835,-20307.957,-20528.664
1512180286,29.800,-36.000,-115.600,-58650.000,31680.000,966130.000,265000.000,475000.000,-291000.000,23.621,83.654,45.681,34.283,-26.858,48.737,-13823.956,-19932.499,-20156.044
1512180286,72.600,39.900,-119.300,-55110.000,18800.000,982850.000,265000.000,475000.000,-291000.000,-4.424,-76.644,57.509,13.144,-11.417,-16.899,-13446.072,-19331.928,-19783.943
1512180286,1.500,-11.500,-118.200,-59390.000,5620.000,976260.000,265000.000,475000.000,-291000.000,27.364,34.461,74.345,43.594,26.900,-36.919,-14195.873,-19258.060,-20077.538
1512180286,1.500,19.600,-122.200,-49190.000,-6710.000,953120.000,261000.000,461000.000,-277000.000,30.660,43.024,69.094,52.578,-0.657,36.590,-13897.610,-19632.603,-20155.266
1512180286,-20.200,8.000,-123.800,-57680.000,-19900.000,989750.000,261000.000,461000.000,-277000.000,-5.502,-49.944,59.719,21.980,5.470,-29.941,-13972.912,-19707.722,-20079.659
1512180286,-134.400,-6.700,-126.100,-40650.000,-13240.000,929260.000,261000.000,461000.000,-277000.000,14.573,26.966,74.135,45.033,23.374,23.020,-14572.643,-19633.625,-20224.525
1512180286,-68.400,34.600,-126.400,-37720.000,-10500.000,954830.000,261000.000,461000.000,-277000.000,19.868,15.218,75.235,62.788,17.143,16.414,-13971.035,-19332.722,-19704.491
1512180286,-78.600,37.700,-132.100,-56820.000,-39980.000,993650.000,260000.000,467000.000,-286000.000,9.352,2.407,66.512,43.976,-4.200,20.397,-14270.061,-19108.173,-19776.833
1512180286,-83.800,18.100,-129.400,-51210.000,2690.000,968260.000,260000.000,467000.000,-286000.000,-10.785,12.003,59.858,27.035,22.550,21.383,-13969.418,-18957.722,-19854.317
1512180286,-12.300,6.100,-131.200,-56090.000,-20510.000,972350.000,260000.000,467000.000,-286000.000,3.884,13.060,74.997,26.970,7.602,-45.571,-13743.328,-18732.380,-19706.123
1512180286,-38.100,1.300,-125.800,-81180.000,-9950.000,985170.000,260000.000,467000.000,-286000.000,12.554,37.658,67.746,47.289,-1.953,-45.775,-14044.750,-19032.825,-19853.722
1512180286,-84.800,-12.100,-132.600,-37720.000,-24230.000,958010.000,260000.000,467000.000,-286000.000,-7.836,-29.680,72.547,10.938,12.560,-24.147,-13595.470,-19182.148,-19932.610
1512180286,-8.800,-29.000,-122.500,-75320.000,8910.000,942930.000,261000.000,440000.000,-287000.000,22.046,75.049,76.546,39.815,-17.589,57.054,-13742.916,-18657.383,-19556.084
1512180286,30.900,16.900,-127.200,-61460.000,-6710.000,934630.000,261000.000,440000.000,-287000.000,-8.822,-45.692,67.147,62.181,11.771,29.952,-13818.249,-18732.487,-19555.489
1512180286,32.100,3.300,-134.600,-47240.000,-20810.000,980590.000,261000.000,440000.000,-287000.000,-16.432,-41.447,76.648,31.650,39.751,-10.103,-14043.819,-18807.835,-20003.609
1512180286,18.600,-29.300,-132.400,-73120.000,30820.000,967160.000,261000.000,440000.000,-287000.000,42.495,123.162,66.345,7.154,10.018,108.910,-13971.813,-19482.716,-19929.558
1512180286,18.200,2.000,-128.400,-54570.000,47240.000,951480.000,261000.000,440000.000,-287000.000,-34.617,-132.277,74.998,31.998,6.473,-91.518,-13742.962,-18657.383,-19631.081
1512180286,29.600,-7.600,-134.900,-61040.000,21180.000,1036010.000,260000.000,453000.000,-282000.000,35.069,172.287,66.408,20.788,5.436,91.818,-13593.334,-18732.151,-19707.405
1512180286,-19.400,-10.800,-135.000,-42180.000,8970.000,1028260.000,260000.000,453000.000,-282000.000,-37.790,-140.818,73.860,13.503,13.915,-97.947,-13816.189,-18282.490,-19480.278
1512180286,-4.400,9.100,-134.000,-51760.000,42660.000,974730.000,260000.000,453000.000,-282000.000,24.339,75.065,65.915,22.248,25.006,-54.172,-14041.302,-18282.825,-19703.362
1512180286,41.700,16.500,-141.500,-45590.000,9520.000,1016600.000,260000.000,453000.000,-282000.000,13.512,-24.307,70.741,14.371,-13.057,0.786,-13744.381,-18957.386,-19781.227
1512180286,-52.600,-4.100,-140.300,-62990.000,22890.000,1013000.000,253000.000,453000.000,-282000.000,18.884,-26.426,68.681,13.159,-5.986,32.601,-13893.627,-18807.606,-19629.875
1512180286,-8.100,2.000,-141.000,-58040.000,44370.000,987730.000,253000.000,453000.000,-282000.000,-6.463,22.694,56.223,23.593,34.356,48.458,-13591.060,-18244.648,-19557.175
1512180286,-21.700,-1.300,-140.500,-73060.000,4460.000,971130.000,253000.000,453000.000,-282000.000,21.297,17.934,53.411,-12.594,0.588,-40.325,-13893.482,-18770.108,-19667.366
1512180286,-45.800,2.800,-143.500,-55790.000,14040.000,970640.000,253000.000,453000.000,-282000.000,0.131,28.072,45.147,-1.585,7.844,8.916,-14007.779,-19145.275,-19891.586
1512180286,-11.900,44.900,-143.400,-62440.000,27400.000,950260.000,253000.000,453000.000,-282000.000,1.739,40.889,44.679,27.949,6.448,3.160,-13517.956,-18657.040,-19633.004
1512180286,10.700,16.000,-149.800,-52860.000,6900.000,1036560.000,258000.000,440000.000,-284000.000,-0.022,10.426,53.077,40.985,-10.971,-14.854,-13930.591,-18695.164,-19554.512
1512180286,-25.600,35.400,-155.300,10250.000,17640.000,1029420.000,258000.000,440000.000,-284000.000,-10.510,6.158,42.248,20.466,-1.675,-10.280,-14157.932,-19183.002,-19852.822
1512180286,-10.400,15.600,-152.700,-43270.000,7630.000,1043950.000,258000.000,440000.000,-284000.000,-11.173,18.959,50.812,37.714,-12.266,5.187,-13889.561,-17907.597,-19591.972
1512180286,-53.800,-0.400,-150.700,-35220.000,17030.000,981750.000,258000.000,440000.000,-284000.000,-6.021,-6.689,60.392,47.986,6.042,-42.662,-14079.860,-18507.885,-19778.152
1512180286,-17.300,34.600,-154.500,-22090.000,31310.000,1029170.000,253000.000,449000.000,-282000.000,-3.922,-12.562,62.536,37.060,9.119,-25.488,-14004.573,-18470.272,-19553.772
1512180286,-16.100,17.300,-156.600,-50780.000,-12880.000,1009280.000,253000.000,449000.000,-282000.000,-40.143,-25.966,60.366,30.937,18.899,-7.060,-13628.895,-18319.713,-19556.885
1512180286,-40.700,46.700,-155.300,-61650.000,-1160.000,966370.000,253000.000,449000.000,-282000.000,-20.434,2.901,62.349,24.795,20.208,1.190,-13967.091,-18470.211,-19591.591
1512180286,-17.600,38.700,-156.300,-65430.000,23800.000,965760.000,253000.000,449000.000,-282000.000,-2.313,-7.756,61.508,17.296,29.224,6.404,-13928.715,-18245.160,-19854.309
1512180287,-57.100,-1.900,-157.900,-24840.000,14470.000,975160.000,253000.000,449000.000,-282000.000,-74.840,-92.784,59.628,48.988,30.953,-3.108,-13889.919,-17982.594,-19629.494
1512180287,-5.500,34.500,-158.300,-34790.000,30820.000,965450.000,256000.000,431000.000,-286000.000,14.913,9.919,52.760,6.664,51.678,0.250,-14115.292,-18057.926,-19702.629
1512180287,-22.100,-12.900,-157.500,-57130.000,17880.000,1004760.000,256000.000,431000.000,-286000.000,-22.429,-15.777,53.195,16.263,45.666,28.119,-13666.500,-18357.258,-19406.593
1512180287,-39.300,16.800,-155.100,-60360.000,23860.000,940370.000,256000.000,431000.000,-286000.000,-40.649,-54.269,57.061,12.968,50.110,-0.157,-14192.806,-18583.057,-20002.220
1512180287,18.200,70.600,-163.900,-45170.000,430.000,973750.000,256000.000,431000.000,-286000.000,4.255,45.146,53.792,30.720,28.303,1.653,-14192.989,-18658.054,-19702.263
1512180287,-15.600,13.400,-155.400,-74890.000,-8120.000,1027830.000,256000.000,431000.000,-286000.000,-26.579,-2.954,46.782,-3.102,43.535,38.738,-14039.883,-17982.822,-19553.230
1512180287,-50.900,34.600,-153.500,-65430.000,34060.000,968320.000,240000.000,437000.000,-280000.000,-19.223,-40.341,51.021,10.887,48.716,-37.307,-13816.906,-18432.484,-19555.351
1512180287,-72.600,28.800,-161.700,-31680.000,-13670.000,931030.000,240000.000,437000.000,-280000.000,10.870,83.633,42.294,-1.455,39.019,51.174,-13666.866,-18432.255,-19481.621
1512180287,-112.100,-22.000,-157.300,-61280.000,-1100.000,928890.000,240000.000,437000.000,-280000.000,-16.981,2.396,45.870,16.983,34.592,44.482,-13816.525,-18357.487,-19480.324
1512180287,-26.000,82.700,-158.500,-52730.000,26370.000,947510.000,240000.000,437000.000,-280000.000,-43.712,-42.508,49.595,16.742,44.780,-79.898,-13892.437,-18507.603,-19929.741
1512180287,-25.800,68.400,-169.500,-36620.000,10740.000,985600.000,244000.000,440000.000,-294000.000,66.475,156.372,35.892,5.194,52.713,79.050,-14043.667,-18807.835,-19703.606
1512180287,-38.200,10.100,-164.300,-87220.000,39730.000,988770.000,244000.000,440000.000,-294000.000,-78.861,-97.033,44.630,40.399,28.076,-46.846,-14116.604,-18357.944,-19627.754
1512180287,-5.500,25.700,-165.400,-78980.000,33940.000,945560.000,244000.000,440000.000,-294000.000,26.819,28.120,43.404,23.705,41.059,12.002,-14118.923,-18882.938,-19553.001
1512180287,-14.800,46.500,-167.900,-52980.000,-6040.000,1015810.000,244000.000,440000.000,-294000.000,-13.524,88.956,35.566,50.787,40.184,12.024,-13891.537,-18357.609,-19479.683
1512180287,-46.700,12.100,-167.500,-69640.000,15140.000,1026000.000,244000.000,440000.000,-294000.000,-51.051,-93.772,39.716,38.541,41.864,-9.897,-13819.912,-19107.487,-19480.659
1512180287,-17.000,40.500,-163.700,-73850.000,17820.000,1022340.000,244000.000,423000.000,-277000.000,4.599,70.826,34.699,12.445,21.547,-43.500,-14268.108,-18658.161,-19926.628
1512180287,-35.600,24.000,-163.900,-114810.000,23380.000,1015560.000,244000.000,423000.000,-277000.000,-19.048,4.541,42.652,56.435,9.061,30.078,-13966.198,-18282.719,-19479.012
1512180287,-104.900,15.600,-167.000,-102970.000,17760.000,937990.000,244000.000,423000.000,-277000.000,-29.645,-54.213,35.898,27.577,30.429,-25.929,-13892.910,-18657.612,-19554.817
1512180287,-45.800,53.400,-169.400,-76840.000,8970.000,1018550.000,244000.000,423000.000,-277000.000,-26.360,32.320,35.182,-1.807,27.138,9.347,-14044.308,-18957.829,-19628.670
1512180287,15.300,0.400,-175.100,-127620.000,-12020.000,967770.000,242000.000,421000.000,-279000.000,2.173,-6.120,48.253,28.606,13.649,-5.480,-14645.550,-19258.732,-19398.720
1512180287,31.000,45.500,-172.300,-94600.000,-19590.000,925540.000,242000.000,421000.000,-279000.000,-21.238,-21.106,44.662,25.008,22.442,-1.543,-14041.988,-18432.819,-19703.438
1512180287,65.200,73.000,-177.600,-120000.000,-11110.000,975830.000,242000.000,421000.000,-279000.000,-18.974,31.253,39.548,4.170,36.170,27.758,-13821.636,-19482.502,-19555.840
1512180287,32.900,43.500,-175.900,-134700.000,-18130.000,976260.000,242000.000,421000.000,-279000.000,18.296,-37.054,38.784,27.288,43.094,-41.773,-13968.487,-18807.713,-19329.247
1512180287,0.400,64.800,-183.400,-94670.000,-11410.000,951420.000,242000.000,421000.000,-279000.000,-38.136,-16.835,35.907,6.280,23.681,5.480,-14043.301,-18732.838,-19628.578
1512180287,20.200,67.600,-176.700,-132570.000,3050.000,1044430.000,249000.000,428000.000,-282000.000,10.353,17.948,38.328,11.251,35.660,8.936,-14080.921,-18770.390,-19553.276
1512180287,10.100,16.000,-181.800,-118590.000,8850.000,1021670.000,249000.000,428000.000,-282000.000,-43.677,14.703,17.812,-6.646,31.715,3.741,-13818.721,-18844.990,-19480.538
1512180287,37.000,31.400,-181.200,-125240.000,59940.000,945980.000,249000.000,428000.000,-282000.000,-20.983,-10.924,30.312,2.183,22.679,-16.149,-13967.129,-18507.717,-19329.109
1512180287,42.100,37.600,-185.500,-105710.000,10500.000,972410.000,249000.000,428000.000,-282000.000,0.026,25.979,17.948,40.838,30.195,5.399,-14121.051,-19332.943,-19740.715
1512180287,56.900,32.000,-185.600,-135620.000,65000.000,947570.000,249000.000,428000.000,-282000.000,-28.710,-0.224,14.245,-5.819,32.725,2.383,-14154.690,-18507.992,-19440.017
1512180287,74.800,30.900,-189.200,-134280.000,43030.000,1039860.000,240000.000,419000.000,-277000.000,-35.781,8.293,23.233,23.827,17.701,6.832,-13893.497,-18807.606,-19367.386
1512180287,29.400,-26.900,-194.800,-96680.000,66160.000,990050.000,240000.000,419000.000,-277000.000,-31.393,23.268,16.419,7.465,24.952,-16.972,-13857.532,-19145.047,-19405.357
1512180287,71.400,2.100,-196.300,-141300.000,40280.000,1000000.000,240000.000,419000.000,-277000.000,-7.620,17.404,29.004,21.648,22.471,-11.138,-13817.135,-18507.488,-19330.383
1512180287,-17.700,-3.500,-192.400,-115840.000,40890.000,955930.000,240000.000,419000.000,-277000.000,-26.530,36.631,12.804,3.730,31.427,3.684,-13931.492,-18882.663,-19667.099
1512180287,24.500,23.300,-194.500,-101010.000,48950.000,1020630.000,238000.000,421000.000,-286000.000,-17.586,42.511,20.953,24.241,3.786,-19.467,-13895.298,-19182.606,-19592.559
1512180287,-34.900,-3.600,-193.600,-120000.000,6530.000,984680.000,238000.000,421000.000,-286000.000,-31.867,0.842,11.536,21.800,20.587,-3.762,-13741.772,-18432.385,-19293.480
1512180287,-45.700,11.600,-194.300,-128540.000,26120.000,998540.000,238000.000,421000.000,-286000.000,-23.461,10.988,19.691,42.670,14.121,1.076,-14044.926,-19107.830,-19516.251
1512180287,36.000,0.800,-196.900,-107240.000,18680.000,1016480.000,238000.000,421000.000,-286000.000,-6.500,34.500,26.413,31.142,19.979,14.415,-13931.843,-18957.661,-19704.643
1512180288,21.000,13.300,-202.000,-145630.000,-1400.000,1010680.000,238000.000,421000.000,-286000.000,-19.720,50.511,20.412,37.480,11.100,32.194,-13966.824,-18432.713,-19404.076
1512180288,-15.600,7.500,-198.900,-108280.000,5550.000,937810.000,235000.000,407000.000,-292000.000,-8.000,37.713,20.539,20.523,29.034,31.062,-14117.840,-18657.948,-19402.901
1512180288,-2.000,29.200,-203.200,-70190.000,-8000.000,998720.000,235000.000,407000.000,-292000.000,-14.697,-12.534,36.258,6.544,13.667,8.048,-14042.843,-18657.825,-19403.542
1512180288,24.000,-8.800,-204.300,-141050.000,16850.000,994690.000,235000.000,407000.000,-292000.000,-8.227,41.958,34.409,16.123,10.892,9.562,-14046.139,-19332.829,-19928.856
1512180288,74.200,0.500,-203.600,-117000.000,56090.000,1007200.000,235000.000,407000.000,-292000.000,17.335,39.859,35.839,29.621,31.166,32.467,-14267.208,-18508.167,-19476.555
1512180288,42.900,-25.300,-201.200,-156860.000,37900.000,992310.000,235000.000,407000.000,-292000.000,-41.431,-44.625,40.025,21.565,8.161,-29.401,-13741.604,-18357.380,-19630.943
1512180288,64.600,1.100,-202.300,-138180.000,75380.000,979430.000,226000.000,409000.000,-280000.000,32.515,115.743,23.528,1.958,33.026,37.278,-14343.258,-18733.280,-19551.018
1512180288,33.300,39.500,-199.200,-133970.000,29050.000,1014220.000,226000.000,409000.000,-280000.000,-25.593,-93.754,46.478,45.087,18.287,-53.835,-14042.400,-18507.832,-19853.477
1512180288,-2.700,12.100,-206.400,-100590.000,9830.000,993350.000,226000.000,409000.000,-280000.000,19.626,117.850,29.746,21.464,16.453,63.452,-14045.025,-19107.838,-19703.743
1512180288,4.100,25.800,-209.100,-73790.000,-9090.000,978150.000,226000.000,409000.000,-280000.000,-24.337,-68.090,36.994,46.516,28.443,-53.199,-14192.730,-18583.057,-19852.226
1512180288,-27.000,29.000,-208.000,-112000.000,22460.000,1038570.000,238000.000,396000.000,-275000.000,30.314,63.397,25.447,25.823,29.102,19.027,-14269.985,-19108.173,-19626.839
1512180288,-91.500,25.000,-213.100,-75990.000,-25020.000,970460.000,238000.000,396000.000,-275000.000,-36.876,-44.587,21.966,8.496,7.373,-15.748,-14042.660,-18582.829,-19703.514
1512180288,-74.300,-18.000,-204.800,-116210.000,15140.000,970700.000,238000.000,396000.000,-275000.000,6.897,44.144,22.911,21.306,38.348,7.469,-14270.016,-19108.173,-19701.836
1512180288,-56.900,38.100,-203.900,-103820.000,36620.000,942320.000,238000.000,396000.000,-275000.000,-14.657,-14.670,33.050,12.214,31.881,7.076,-14043.667,-18807.835,-19703.606
1512180288,-21.400,50.200,-206.000,-98630.000,55050.000,997190.000,238000.000,396000.000,-275000.000,-28.526,-0.802,35.032,26.057,1.093,-28.556,-14345.425,-19183.277,-19851.234
1512180288,-127.700,-17.700,-212.900,-142580.000,6040.000,979740.000,230000.000,394000.000,-280000.000,13.260,39.873,24.052,18.747,19.342,13.284,-14270.733,-19258.167,-19776.909
1512180288,-87.600,18.000,-216.100,-52920.000,38090.000,928470.000,230000.000,394000.000,-280000.000,-50.578,-8.272,14.432,-21.099,31.507,8.421,-13819.042,-18882.496,-19780.556
1512180288,-81.600,13.200,-208.100,-129390.000,-35770.000,961670.000,230000.000,394000.000,-280000.000,12.143,20.638,26.100,5.881,19.968,-4.645,-14266.979,-18433.155,-19701.530
1512180288,-36.000,48.700,-216.600,-92530.000,-64390.000,935850.000,230000.000,394000.000,-280000.000,-13.428,18.469,25.725,26.049,31.357,20.098,-14047.344,-19557.835,-20303.963
1512180288,-93.200,42.500,-211.200,-122440.000,-58350.000,984680.000,230000.000,394000.000,-280000.000,-9.086,37.709,21.589,-20.025,27.787,73.038,-13972.012,-19557.713,-19629.585
1512180288,-139.500,7.700,-219.300,-107180.000,-9580.000,974000.000,226000.000,394000.000,-277000.000,-18.844,-2.912,29.836,23.180,-0.699,-32.325,-14267.986,-18658.161,-19701.622
1512180288,-72.600,28.500,-211.500,-93750.000,-5000.000,984250.000,226000.000,394000.000,-277000.000,19.807,62.336,16.765,8.617,57.610,15.053,-14043.972,-18882.832,-19628.639
1512180288,-79.200,-17.400,-210.100,-148990.000,-15870.000,942200.000,226000.000,394000.000,-277000.000,-23.921,-6.090,14.829,-4.887,19.397,-16.065,-14044.903,-19107.838,-19478.752
1512180288,-81.900,29.200,-206.300,-127500.000,12760.000,915340.000,226000.000,394000.000,-277000.000,10.250,45.234,13.368,-14.536,26.471,-16.637,-14195.248,-19183.048,-19477.516
1512180288,-63.400,-20.500,-205.300,-114690.000,18490.000,945680.000,224000.000,393000.000,-269000.000,-1.654,4.603,21.580,17.213,32.657,-20.768,-14119.610,-19032.948,-19553.078
1512180288,-30.400,11.700,-201.300,-135130.000,51940.000,916200.000,224000.000,393000.000,-269000.000,-13.431,0.308,24.594,18.705,12.135,-44.939,-13745.693,-19257.389,-19706.367
1512180288,71.500,17.200,-205.300,-123540.000,54500.000,983580.000,224000.000,393000.000,-269000.000,4.451,16.924,7.319,12.662,8.060,-15.705,-13781.818,-18994.931,-19330.925
1512180288,13.400,-37.800,-211.100,-122380.000,30640.000,1003480.000,224000.000,393000.000,-269000.000,5.971,36.678,13.274,19.658,12.797,7.199,-14120.465,-19182.941,-19928.139
1512180288,23.000,-29.300,-216.400,-91190.000,58530.000,1030210.000,224000.000,393000.000,-269000.000,-4.568,23.860,5.616,18.065,11.700,3.594,-14120.464,-19182.941,-19928.139
1512180288,6.700,-21.200,-212.700,-109620.000,60180.000,987180.000,216000.000,380000.000,-280000.000,5.957,8.371,12.642,12.816,14.725,20.064,-13933.247,-19257.664,-19817.276
1512180288,-40.200,-2.800,-208.700,-146550.000,44560.000,983520.000,216000.000,380000.000,-280000.000,3.878,7.840,9.412,1.219,35.755,12.436,-14119.717,-19032.947,-19778.084
1512180288,-34.600,-13.600,-215.200,-111330.000,23250.000,938420.000,216000.000,380000.000,-280000.000,8.710,60.720,9.665,1.740,9.268,21.349,-14345.944,-19295.780,-19851.288
1512180288,-48.700,14.200,-207.700,-134580.000,25760.000,996580.000,216000.000,380000.000,-280000.000,-1.890,29.204,4.605,-23.056,16.340,-10.363,-14307.186,-18995.724,-20038.964
1512180288,-34.100,5.200,-215.800,-75440.000,16850.000,957700.000,216000.000,380000.000,-280000.000,2.873,20.128,6.242,10.816,10.592,14.402,-14308.178,-19220.722,-20001.564
1512180288,-14.200,-10.900,-204.900,-117130.000,48160.000,1027100.000,223000.000,359000.000,-280000.000,7.819,24.425,-2.734,31.635,20.251,8.162,-14233.288,-19220.615,-20227.204
1512180288,-38.300,-42.900,-208.100,-104490.000,30700.000,927250.000,223000.000,359000.000,-280000.000,-14.666,-22.617,1.041,16.460,7.221,-16.582,-14419.704,-18958.393,-20412.987
1512180288,9.100,-20.600,-205.100,-113770.000,72140.000,1000120.000,223000.000,359000.000,-280000.000,-15.211,3.550,3.257,22.188,12.314,4.391,-14122.638,-19595.448,-20565.826
1512180288,24.800,-3.500,-208.700,-87770.000,55850.000,995420.000,223000.000,359000.000,-280000.000,-13.019,12.636,-0.412,-4.294,24.663,1.774,-14308.323,-19183.231,-20639.046
1512180289,26.800,-4.000,-207.300,-115660.000,50230.000,1024110.000,212000.000,370000.000,-294000.000,2.949,43.100,2.591,-24.659,-7.838,14.455,-14121.593,-19332.951,-20828.209
1512180289,38.700,0.700,-214.700,-108520.000,45290.000,933780.000,212000.000,370000.000,-294000.000,-17.512,-30.653,11.633,-12.556,5.581,-12.565,-14196.560,-19333.057,-20752.571
1512180289,37.200,16.100,-206.400,-111450.000,49440.000,991330.000,212000.000,370000.000,-294000.000,11.477,48.453,2.732,2.480,5.289,27.445,-14271.450,-19258.167,-21201.897
1512180289,6.000,22.100,-219.300,-76110.000,11540.000,980410.000,212000.000,370000.000,-294000.000,-27.769,-26.351,-13.022,5.930,8.598,-28.394,-14195.690,-19108.067,-21052.467
1512180289,24.100,10.500,-219.700,-58840.000,65060.000,1021670.000,212000.000,370000.000,-294000.000,-3.183,1.472,-14.697,-32.759,50.582,-17.952,-14494.976,-18958.500,-20974.846
1512180289,-56.500,-30.100,-205.300,-124390.000,24290.000,1032710.000,203000.000,371000.000,-292000.000,-5.572,19.592,1.321,-6.591,7.875,11.896,-14121.746,-19332.951,-21128.197
1512180289,-85.100,6.800,-208.000,-95460.000,31490.000,931820.000,203000.000,371000.000,-292000.000,-8.623,-6.033,-9.476,19.111,1.426,-19.960,-14122.051,-19407.948,-21053.246
1512180289,-68.200,-1.100,-196.100,-128850.000,41870.000,989870.000,203000.000,371000.000,-292000.000,3.302,20.714,-19.869,-3.683,47.823,23.569,-14421.444,-19258.396,-21200.630
1512180289,-64.300,-20.600,-199.100,-82520.000,14950.000,892090.000,203000.000,371000.000,-292000.000,-30.819,-25.267,-21.589,-14.880,34.719,-9.590,-14121.853,-19332.951,-21353.203
1512180289,-43.000,64.400,-203.300,-87650.000,9700.000,1000550.000,205000.000,356000.000,-284000.000,35.534,83.810,-31.976,-9.456,25.720,10.439,-14346.813,-19333.286,-21276.299
1512180289,-124.900,-42.300,-202.800,-85330.000,23250.000,958860.000,205000.000,356000.000,-284000.000,-35.138,-61.600,-20.715,-14.573,36.749,-37.810,-14270.245,-18958.164,-21501.762
1512180289,-95.900,-5.200,-192.000,-72140.000,61400.000,947690.000,205000.000,356000.000,-284000.000,32.170,41.064,-23.643,-40.103,16.618,-25.306,-14345.654,-19033.283,-21651.161
1512180289,-0.500,32.900,-198.400,-104550.000,36440.000,1014530.000,205000.000,356000.000,-284000.000,-2.070,6.816,-17.863,-7.404,1.719,-40.439,-14722.378,-19408.848,-21723.137
1512180289,-90.400,-59.500,-193.900,-97900.000,34550.000,957280.000,205000.000,356000.000,-284000.000,16.085,-5.972,-20.844,14.060,23.921,-48.157,-14272.762,-19483.173,-21801.994
1512180289,-25.700,37.300,-195.600,-67020.000,19230.000,955990.000,196000.000,343000.000,-272000.000,10.821,2.575,-24.087,-10.533,10.412,-19.938,-14652.065,-20383.747,-22324.226
1512180289,-47.800,6.700,-187.200,-107240.000,15690.000,996090.000,196000.000,343000.000,-272000.000,4.360,-38.031,-22.190,10.719,6.732,-40.111,-14798.885,-19708.958,-22022.636
1512180289,-23.800,-50.500,-190.000,-92650.000,11050.000,905270.000,196000.000,343000.000,-272000.000,22.506,2.586,-21.787,18.982,27.926,-6.974,-14348.202,-19558.277,-22026.390
1512180289,48.900,26.500,-189.000,-61220.000,16780.000,1013120.000,196000.000,343000.000,-272000.000,-2.162,-50.871,-14.866,25.043,31.288,-2.060,-14875.042,-19934.071,-22322.105
1512180289,2.000,-19.700,-182.800,-75740.000,11660.000,1024290.000,196000.000,343000.000,-272000.000,29.936,-7.014,-19.577,21.138,19.448,-17.354,-14949.963,-19934.193,-22171.471
1512180289,26.800,-45.900,-168.000,-60970.000,68600.000,1013980.000,202000.000,342000.000,-267000.000,1.221,-24.146,-25.387,24.992,21.785,11.857,-15172.878,-19409.519,-22694.313
1512180289,39.000,-30.000,-161.700,-54080.000,39790.000,960690.000,202000.000,342000.000,-267000.000,20.598,-23.026,-36.829,-20.815,44.135,0.331,-14948.925,-19634.190,-22771.324
1512180289,58.300,21.200,-165.400,-67630.000,11960.000,966550.000,202000.000,342000.000,-267000.000,7.762,-17.709,-33.798,-36.291,36.836,9.191,-15024.929,-19859.303,-22770.790
1512180289,-2.800,-49.300,-160.300,-76900.000,37290.000,857240.000,202000.000,342000.000,-267000.000,10.784,-29.471,-23.132,-20.704,33.962,6.198,-15402.264,-20384.861,-22692.863
1512180289,42.500,21.200,-164.200,-82400.000,69640.000,968510.000,195000.000,342000.000,-277000.000,23.626,-19.836,-26.113,-31.266,25.783,-1.170,-15028.042,-20534.306,-22921.104
1512180289,-67.800,-31.700,-165.600,-30520.000,54080.000,941100.000,195000.000,342000.000,-277000.000,0.315,-0.636,-34.917,-25.183,29.604,34.641,-15326.321,-20159.748,-22843.376
1512180289,9.600,-71.800,-152.200,-67930.000,29790.000,1017270.000,195000.000,342000.000,-277000.000,3.562,-43.345,-39.280,-20.684,34.328,9.813,-15702.450,-20385.319,-23065.300
1512180289,-2.900,-10.000,-145.300,-51030.000,-39120.000,1040410.000,195000.000,342000.000,-277000.000,4.250,3.673,-46.035,-19.149,43.798,28.407,-15627.613,-20422.703,-23065.957
1512180289,-47.500,-16.600,-122.500,-10560.000,-80380.000,952270.000,195000.000,342000.000,-277000.000,-4.658,-21.954,-56.379,-17.221,37.379,12.229,-15817.951,-21022.992,-23327.134
1512180289,-42.300,74.800,-149.500,-57370.000,-55540.000,1013670.000,202000.000,338000.000,-277000.000,-9.418,-20.889,-58.576,-18.727,37.336,18.446,-16082.440,-21473.385,-23250.114
1512180289,-1.200,29.600,-132.200,-68600.000,17940.000,931090.000,202000.000,338000.000,-277000.000,4.003,11.714,-63.602,-35.392,24.159,0.562,-15632.939,-21622.715,-22916.504
1512180289,-45.100,12.900,-130.200,-57680.000,56460.000,970830.000,202000.000,338000.000,-277000.000,-1.308,-10.722,-65.889,-38.036,28.228,4.187,-16047.863,-22148.334,-23025.742
1512180289,-72.200,-31.400,-130.100,-103210.000,-43520.000,952580.000,202000.000,338000.000,-277000.000,7.796,14.934,-66.733,-5.931,22.248,18.779,-15783.635,-21810.444,-22615.319
1512180289,85.200,-46.700,-116.600,-35460.000,26120.000,974730.000,202000.000,338000.000,-277000.000,4.717,-6.950,-74.848,-24.352,21.518,-11.997,-15447.689,-22184.940,-22355.865
1512180289,129.000,55.000,-124.900,-36130.000,-13610.000,1031680.000,195000.000,349000.000,-284000.000,-1.825,-58.251,-69.261,-8.469,22.383,-15.407,-15747.898,-22260.388,-22090.858
1512180289,46.500,17.600,-123.700,-80380.000,17700.000,929500.000,195000.000,349000.000,-284000.000,3.716,-29.910,-80.274,-9.663,12.741,-7.483,-15486.966,-22634.998,-21868.255
1512180289,126.500,100.100,-122.400,-57560.000,35280.000,985960.000,195000.000,349000.000,-284000.000,10.585,-24.567,-76.425,-38.932,20.037,-15.300,-15336.674,-22597.271,-21607.018
1512180289,47.000,-28.100,-119.400,-113770.000,2010.000,1048890.000,195000.000,349000.000,-284000.000,-6.875,-55.020,-85.846,-33.668,34.630,-22.765,-15527.157,-23272.556,-21493.225
1512180289,-14.500,-8.100,-122.400,-28930.000,4210.000,921260.000,186000.000,336000.000,-282000.000,2.143,-37.922,-82.457,-35.172,20.409,1.690,-15110.264,-22334.431,-21158.814
1512180290,16.500,-4.500,-108.000,-35890.000,-7080.000,1066350.000,186000.000,336000.000,-282000.000,-33.081,-93.523,-82.629,-49.222,29.989,9.288,-15184.872,-22259.541,-21045.631
1512180290,-47.000,-4.800,-93.900,-71350.000,-33810.000,964660.000,186000.000,336000.000,-282000.000,9.681,-22.946,-86.026,-20.332,46.919,-1.449,-15487.194,-22784.992,-20968.330
1512180290,5.200,71.100,-89.500,-32710.000,3360.000,900630.000,186000.000,336000.000,-282000.000,-20.984,-30.439,-101.421,-24.833,22.219,54.895,-15563.961,-23160.114,-21117.851
1512180290,30.900,66.700,-87.500,-14890.000,-36990.000,1012760.000,186000.000,336000.000,-282000.000,-27.457,-106.294,-100.713,-42.890,39.143,-15.912,-14809.078,-22108.982,-20823.753
1512180290,-40.900,47.800,-86.300,-27530.000,-50540.000,963680.000,180000.000,342000.000,-287000.000,7.837,-3.692,-103.045,-45.916,61.795,37.343,-15111.629,-22709.431,-20521.477
1512180290,17.600,21.700,-73.200,-46390.000,-2320.000,944400.000,180000.000,342000.000,-287000.000,-39.111,-87.076,-104.013,-42.940,17.685,-3.247,-15109.386,-22184.437,-20746.239
