unixtime,rx,ry,rz,ax,ay,az,mx,my,mz,apprx,appry,apprz,appax,appay,appaz,appmx,appmy,appmz
1512180023,9.200,-3.200,2.700,-76050.000,-79160.000,1033690.000,-50000.000,14000.000,3000.000,48.295,211.212,-24.957,-60.801,13.414,-61.804,30303.726,-32251.030,-31950.645
1512180023,-9.300,5.600,2.300,-90390.000,-92040.000,989810.000,-43000.000,-7000.000,-10000.000,203.813,91.933,-88.150,-26.516,9.717,-27.083,30977.798,-32475.014,-31806.480
1512180023,-1.200,2.100,2.700,-82280.000,-92350.000,989560.000,-43000.000,-7000.000,-10000.000,200.648,-85.369,-98.405,-4.036,-0.522,8.407,30752.045,-32625.359,-31954.643
1512180023,2.500,1.900,0.300,-71530.000,-84900.000,1031620.000,-43000.000,-7000.000,-10000.000,117.322,-137.860,-91.270,12.049,-6.741,34.879,30749.527,-33150.352,-32254.875
1512180023,-3.600,1.200,2.800,-79350.000,-93570.000,975340.000,-43000.000,-7000.000,-10000.000,26.156,-103.879,-55.157,6.615,-3.218,23.425,30976.181,-32775.017,-32331.612
1512180023,-11.600,7.300,-0.800,-62620.000,-96310.000,1001950.000,-43000.000,-7000.000,-10000.000,26.459,8.304,-68.623,-1.930,10.735,16.688,30750.122,-33000.359,-32404.808
1512180023,-0.500,0.300,1.900,-69820.000,-65190.000,1004460.000,-43000.000,10000.000,-20000.000,34.285,62.828,-88.577,10.925,14.439,18.664,30675.507,-32925.468,-32329.124
1512180023,-7.200,4.100,2.500,-83010.000,-81540.000,994510.000,-43000.000,10000.000,-20000.000,51.377,77.816,-89.341,15.286,14.320,8.968,30898.331,-33375.130,-32631.248
1512180023,-6.700,-0.500,2.800,-79040.000,-79960.000,991940.000,-43000.000,10000.000,-20000.000,142.861,134.547,-73.956,11.654,23.139,6.973,31801.559,-32698.784,-32263.588
1512180023,6.400,-5.700,2.000,-70010.000,-72880.000,1022950.000,-43000.000,10000.000,-20000.000,128.652,63.988,-56.285,30.246,17.720,1.925,31425.201,-32999.336,-32260.536
1512180023,0.100,-2.400,2.500,-72270.000,-74520.000,993840.000,-38000.000,12000.000,-11000.000,-64.841,54.141,-88.973,19.256,4.553,26.541,31722.122,-33673.897,-32338.402
1512180023,-13.200,3.600,2.400,-62190.000,-75870.000,993350.000,-38000.000,12000.000,-11000.000,-380.289,286.389,-19.177,3.205,0.855,55.602,32026.108,-32773.445,-32490.532
1512180023,3.700,-8.300,0.300,-54500.000,-63960.000,1035710.000,-38000.000,12000.000,-11000.000,-550.627,488.964,40.889,-5.997,3.733,17.658,32254.898,-31948.097,-32342.064
1512180023,-14.000,-1.500,1.500,-58170.000,-76420.000,984560.000,-38000.000,12000.000,-11000.000,-467.523,682.669,-75.563,-40.056,3.474,-65.775,32855.118,-31872.200,-32572.136
1512180023,-12.000,-3.700,1.700,-40160.000,-63780.000,1002080.000,-38000.000,12000.000,-11000.000,-464.485,971.420,-246.152,-38.216,-17.836,-7.481,33834.137,-31045.738,-31980.049
1512180023,-1.300,-11.500,1.600,-38090.000,-43400.000,1032040.000,-59000.000,8000.000,-18000.000,-480.642,1170.298,-355.497,-48.059,-90.003,-13.119,34661.240,-30594.490,-31836.861
1512180023,-5.100,-8.700,1.300,-36930.000,-49500.000,995360.000,-59000.000,8000.000,-18000.000,-736.218,848.318,-323.007,-92.592,-10.565,37.910,35563.904,-29993.126,-31919.228
1512180023,-11.600,-5.200,2.400,-20450.000,-47610.000,991640.000,-59000.000,8000.000,-18000.000,-1201.343,-34.682,-346.678,-77.003,79.407,107.385,35941.376,-29392.570,-32372.124
1512180023,2.800,-7.500,0.800,-4090.000,-39250.000,1020200.000,-59000.000,8000.000,-18000.000,-1311.506,-1075.904,-569.372,-100.320,-23.535,104.065,36473.618,-27666.771,-33425.789
1512180023,-2.400,-7.900,3.200,-11540.000,-39310.000,969670.000,-59000.000,8000.000,-18000.000,-1175.792,-1760.436,-558.062,-26.785,-91.372,56.197,35957.169,-25642.540,-34545.387
1512180023,-12.300,-4.800,1.900,-5370.000,-47000.000,986510.000,-45000.000,-1000.000,-11000.000,-707.130,-1899.132,-282.042,64.542,-70.821,42.039,35216.278,-23468.651,-35887.993
1512180023,3.900,-6.800,1.900,6710.000,-34480.000,1013920.000,-45000.000,-1000.000,-11000.000,-341.871,-308.351,-115.570,52.239,58.333,165.762,34394.348,-22644.890,-37155.602
1512180023,-0.100,-2.700,0.100,-6590.000,-39670.000,990300.000,-45000.000,-1000.000,-11000.000,-187.030,508.071,-156.327,-92.081,132.050,177.031,34324.600,-21445.000,-37454.414
1512180023,-2.900,1.200,0.100,240.000,-46880.000,985470.000,-45000.000,-1000.000,-11000.000,-223.834,489.919,-187.838,-41.163,115.370,33.727,34401.398,-21069.878,-37229.881
1512180023,8.900,-4.800,-0.100,2500.000,-28630.000,1022580.000,-43000.000,3000.000,-6000.000,-350.335,-732.901,118.429,66.330,78.458,-269.633,35082.031,-19868.858,-36785.057
1512180023,9.700,-2.900,1.600,5190.000,-26610.000,995180.000,-43000.000,3000.000,-6000.000,-268.494,-1204.731,562.519,1.835,107.366,-81.950,34561.523,-18819.633,-37230.110
1512180023,-2.000,2.500,2.100,1890.000,-33630.000,1001340.000,-43000.000,3000.000,-6000.000,-42.128,-425.569,514.142,109.987,76.958,8.237,33586.044,-18896.095,-37521.858
1512180023,3.100,1.900,3.100,21670.000,-16850.000,1016300.000,-43000.000,3000.000,-6000.000,244.560,-486.966,450.918,108.807,45.502,-78.360,32836.227,-18897.224,-37140.495
1512180023,3.900,-1.600,1.500,19960.000,-14830.000,989070.000,-43000.000,3000.000,-6000.000,5.560,-223.661,541.120,309.440,-133.346,-68.799,32535.919,-18972.679,-37062.981
1512180023,-4.400,1.200,1.500,19650.000,-20320.000,992070.000,-36000.000,0.000,-6000.000,-160.251,-236.163,251.904,94.301,43.157,-71.343,32087.051,-18748.344,-36834.038
1512180023,-3.200,-0.400,-0.500,35100.000,-7630.000,1009220.000,-36000.000,0.000,-6000.000,98.958,-719.338,89.806,74.144,33.504,-142.656,31488.052,-18524.254,-36828.835
1512180023,6.300,-4.900,-0.500,31680.000,-3910.000,1007080.000,-36000.000,0.000,-6000.000,511.694,-1000.668,64.955,34.828,45.585,-123.355,31412.079,-18674.355,-37428.276
1512180023,-9.900,-2.100,0.100,22710.000,-15380.000,993290.000,-36000.000,0.000,-6000.000,627.166,-1054.237,235.946,7.375,25.453,-60.527,30435.608,-18975.822,-37645.119
1512180023,-2.700,-6.100,-0.800,37230.000,-4760.000,1003420.000,-36000.000,0.000,-6000.000,513.930,-919.862,256.091,-16.517,4.977,-26.597,29382.202,-19727.409,-37711.540
1512180023,1.700,-10.900,0.800,37780.000,180.000,1022030.000,-59000.000,-1000.000,-5000.000,406.036,-622.864,155.354,-57.241,-5.869,-7.451,28479.843,-20253.761,-37704.140
1512180023,-16.500,-4.700,2.700,28320.000,-9220.000,981690.000,-59000.000,-1000.000,-5000.000,405.927,-422.416,75.031,-73.850,-22.223,26.710,27501.343,-21005.226,-37921.196
1512180023,-20.900,-2.400,2.900,33020.000,-11900.000,996030.000,-59000.000,-1000.000,-5000.000,62.959,-266.750,225.714,-103.296,-37.922,59.637,26673.507,-21606.468,-38176.963
1512180023,4.100,-7.100,2.400,43150.000,-2440.000,1019900.000,-59000.000,-1000.000,-5000.000,-201.573,96.986,284.979,-130.969,-28.830,28.636,26409.195,-21981.865,-38437.409
1512180024,-12.400,-0.700,1.700,24660.000,-18920.000,979680.000,-36000.000,-7000.000,-16000.000,-361.515,88.210,-262.657,-139.419,0.313,19.257,26976.273,-20931.007,-38741.692
1512180024,-9.200,0.300,1.700,29790.000,-19290.000,986510.000,-36000.000,-7000.000,-16000.000,-373.414,-20.902,-192.850,-34.020,-23.673,41.340,27352.814,-20555.443,-39044.701
1512180024,-6.500,-3.500,-0.100,37110.000,-9700.000,1013120.000,-36000.000,-7000.000,-16000.000,-152.338,-212.344,96.457,-45.966,33.249,50.492,27278.702,-20330.559,-39268.974
1512180024,-6.400,-3.500,0.000,29050.000,-10190.000,984680.000,-36000.000,-7000.000,-16000.000,-105.913,-411.124,180.657,-92.198,-8.743,48.310,26829.727,-20106.239,-39265.038
1512180024,-15.200,1.700,0.000,17460.000,-19900.000,977290.000,-36000.000,-7000.000,-16000.000,-119.305,-615.905,13.446,-157.761,-5.846,92.812,26531.937,-19581.688,-39562.233
1512180024,-4.800,-0.500,-0.800,39790.000,-9520.000,996460.000,-45000.000,5000.000,-28000.000,-39.303,-790.568,-192.821,-132.890,-24.752,91.456,26232.010,-19507.133,-40084.663
1512180024,-1.600,-4.000,2.300,37660.000,-14100.000,1003540.000,-45000.000,5000.000,-28000.000,59.841,-699.499,-252.899,-114.315,-12.426,148.085,26458.130,-19206.795,-40536.430
1512180024,-11.700,0.000,3.500,17820.000,-19710.000,986820.000,-45000.000,5000.000,-28000.000,131.145,-393.929,-230.547,-63.450,-42.014,173.952,26308.884,-19057.014,-40385.094
1512180024,-10.500,2.900,4.100,37480.000,-12150.000,996340.000,-45000.000,5000.000,-28000.000,110.001,-625.712,-251.912,-6.892,15.955,190.745,25860.382,-18682.686,-40756.096
1512180024,5.200,-9.300,3.200,34730.000,-18130.000,1018920.000,-54000.000,7000.000,-3000.000,32.815,-850.571,-43.803,14.606,22.716,197.099,26161.621,-18382.240,-40983.498
1512180024,-7.600,-1.300,2.000,28020.000,-15690.000,979680.000,-54000.000,7000.000,-3000.000,-75.975,-1273.278,262.308,142.859,32.548,74.018,25338.974,-17858.467,-40976.250
1512180024,-7.900,-0.700,1.200,25630.000,-17330.000,997070.000,-54000.000,7000.000,-3000.000,194.434,-1351.947,280.877,203.518,7.126,-37.694,24218.292,-16885.155,-41116.234
1512180024,-0.500,-6.900,-2.000,27770.000,-6350.000,1019780.000,-54000.000,7000.000,-3000.000,443.210,-1126.833,75.254,188.239,-26.504,-85.442,23393.555,-16811.378,-41259.178
1512180024,-7.600,-5.100,-1.700,9640.000,-16660.000,979370.000,-54000.000,7000.000,-3000.000,242.924,-882.276,-50.461,279.191,-100.211,-90.577,22941.864,-17187.065,-41255.531
1512180024,-14.600,-2.900,-1.500,19900.000,-23320.000,996950.000,-52000.000,1000.000,-18000.000,-336.797,-809.695,69.319,264.699,-84.647,-48.367,22494.339,-16662.743,-41026.466
1512180024,-2.500,-8.500,-1.500,42970.000,-8910.000,1015930.000,-52000.000,1000.000,-18000.000,-899.084,-379.484,313.193,218.160,-66.370,7.228,21973.877,-15613.518,-41396.507
1512180024,-5.200,-6.400,0.700,25940.000,-18430.000,993040.000,-52000.000,1000.000,-18000.000,-1222.587,306.193,117.936,94.727,-38.504,21.592,21979.721,-14338.509,-41170.921
1512180024,-7.600,-2.700,2.000,29910.000,-32230.000,997860.000,-52000.000,1000.000,-18000.000,-1720.796,476.668,-45.398,174.731,-11.443,-227.877,22662.109,-12687.477,-41250.893
1512180024,-5.100,-3.100,1.300,41810.000,-14160.000,998600.000,-52000.000,1000.000,-18000.000,-1355.639,1060.392,530.131,196.093,-50.926,-12.629,23195.435,-10886.681,-40804.543
1512180024,3.700,-4.000,3.700,40280.000,-14650.000,989990.000,-36000.000,10000.000,-13000.000,-836.416,830.102,709.554,133.739,-28.474,-68.714,24025.085,-9910.439,-40286.095
1512180024,-9.200,2.900,4.000,19230.000,-31860.000,983760.000,-36000.000,10000.000,-13000.000,-217.673,311.444,399.027,34.113,-69.950,-41.914,24325.348,-9909.996,-39763.649
1512180024,-2.400,2.900,0.800,36800.000,-12940.000,1001160.000,-36000.000,10000.000,-13000.000,164.897,-11.241,197.696,3.755,-116.641,5.219,24475.128,-9984.764,-39539.955
1512180024,1.200,-1.200,0.000,32840.000,-18010.000,990840.000,-36000.000,10000.000,-13000.000,118.692,-41.130,154.283,-40.485,-75.946,90.609,24474.197,-10209.770,-39390.068
1512180024,-10.400,2.400,1.700,8300.000,-31620.000,982540.000,-36000.000,-3000.000,0.000,-165.605,140.050,142.264,-87.842,-74.653,133.485,24700.836,-9834.435,-39466.805
1512180024,-10.400,3.500,-1.300,9090.000,-30880.000,995790.000,-36000.000,-3000.000,0.000,-261.910,15.364,190.541,-176.340,-51.077,144.433,24927.979,-9421.585,-38906.029
1512180024,7.300,-5.300,-0.500,4090.000,-23620.000,1004760.000,-36000.000,-3000.000,0.000,85.234,-861.708,-313.861,-297.478,-60.548,147.887,24405.525,-8859.871,-38863.815
1512180024,-2.100,-1.200,-0.400,-18620.000,-43700.000,993290.000,-36000.000,-3000.000,0.000,134.628,-1100.354,-864.061,-237.517,-41.987,140.370,23511.078,-7586.212,-39230.568
1512180024,-9.200,0.300,-0.700,-15440.000,-44430.000,1000790.000,-36000.000,-3000.000,0.000,270.665,-1968.088,-848.584,-124.823,-14.854,124.052,21902.900,-6538.628,-40003.876
1512180024,-1.300,-1.300,1.200,-11230.000,-47550.000,1010440.000,-50000.000,3000.000,-16000.000,475.407,-2377.787,-936.592,-56.505,49.498,70.653,19094.635,-5492.836,-40954.483
1512180024,-12.300,2.000,5.100,-19590.000,-61040.000,976620.000,-50000.000,3000.000,-16000.000,648.332,-2151.620,-1198.218,58.884,79.108,101.174,16172.890,-4672.218,-41829.239
1512180024,-10.000,0.400,2.100,-30760.000,-73970.000,1011900.000,-50000.000,3000.000,-16000.000,783.030,-2065.220,-1572.284,92.482,164.598,75.429,13101.593,-3851.821,-41802.719
1512180024,0.800,-4.900,5.300,-22090.000,-54810.000,1019100.000,-50000.000,3000.000,-16000.000,723.115,-2285.944,-1279.691,71.420,112.255,100.069,9955.238,-3069.046,-41550.583
1512180024,-3.900,-0.900,4.400,-21480.000,-58590.000,995970.000,-47000.000,3000.000,-13000.000,527.902,-2124.556,-390.728,87.368,44.966,18.027,6507.409,-2699.211,-40546.096
1512180024,-10.100,2.900,2.900,-22520.000,-76970.000,1002620.000,-47000.000,3000.000,-13000.000,-355.467,-1618.619,-66.492,118.362,208.572,-96.700,3550.224,-1691.155,-38982.948
1512180024,5.900,2.300,0.900,-11660.000,-57190.000,991090.000,-47000.000,3000.000,-13000.000,-739.872,-3620.640,-255.460,152.457,123.546,-135.310,222.038,178.855,-37191.231
1512180024,9.200,6.000,-2.500,-9700.000,-89420.000,1092350.000,-47000.000,3000.000,-13000.000,-899.003,-2844.201,-846.192,-50.068,-96.948,-297.231,-6810.730,3543.312,-33004.768
1512180024,-15.200,11.300,2.100,-30210.000,-76540.000,948430.000,-47000.000,3000.000,-13000.000,-288.938,-1713.829,-485.353,-59.832,13.677,-262.015,-9430.481,4476.875,-30919.533
1512180025,-7.700,5.200,1.900,-18310.000,-62930.000,992250.000,-33000.000,3000.000,-10000.000,808.670,-3184.875,-919.116,43.734,-33.566,-263.721,-11682.205,3911.003,-29250.679
1512180025,1.200,1.500,0.000,-16970.000,-64760.000,1003540.000,-33000.000,3000.000,-10000.000,1440.902,-2367.411,-1658.683,123.676,-25.980,-181.678,-13487.228,2708.290,-28485.939
1512180025,-24.000,7.300,0.900,-37050.000,-69640.000,997990.000,-33000.000,3000.000,-10000.000,1679.110,-1626.549,-1781.650,-6.640,-105.805,-215.544,-14018.570,1207.497,-27657.173
1512180025,-16.500,5.100,3.200,-21550.000,-50960.000,1000370.000,-33000.000,3000.000,-10000.000,1695.068,-2359.114,-1879.913,-1.927,-63.584,-231.836,-15075.439,-369.087,-27198.967
1512180025,-2.400,-1.300,2.900,-26730.000,-51450.000,1003230.000,-33000.000,3000.000,-10000.000,1339.647,-2887.470,-1814.405,119.616,48.203,-188.609,-16802.872,-1046.684,-25984.627
1512180025,-8.000,-0.100,3.600,-38700.000,-65310.000,989810.000,-38000.000,8000.000,-8000.000,1042.635,-3006.693,-1716.784,18.420,-7.057,-210.003,-18235.123,-2773.827,-24923.317
1512180025,-15.600,3.100,2.700,-21670.000,-62560.000,992610.000,-38000.000,8000.000,-8000.000,933.455,-2644.010,-1542.267,-143.752,-98.398,-152.668,-19364.395,-3825.523,-24014.244
1512180025,5.100,-5.600,3.900,-15630.000,-56880.000,1022830.000,-38000.000,8000.000,-8000.000,1057.340,-2469.016,-1354.374,84.744,-24.260,-150.467,-20495.102,-5252.220,-22580.360
1512180025,-12.800,2.400,4.000,-34670.000,-71960.000,980590.000,-38000.000,8000.000,-8000.000,1344.873,-2067.431,-1638.774,92.042,242.590,-156.418,-21025.696,-6603.020,-21601.524
1512180025,-10.300,1.700,3.300,-20510.000,-65730.000,996090.000,-38000.000,8000.000,-8000.000,1548.125,-1814.638,-2381.196,-22.139,319.417,-208.696,-21709.473,-8704.048,-20246.758
1512180025,-3.100,-1.600,3.100,-19530.000,-55540.000,1022580.000,-45000.000,5000.000,-28000.000,4868.762,2145.220,-370.552,60.440,510.778,-281.611,-20520.523,-11102.257,-20783.058
1512180025,-2.400,-0.100,2.900,-24960.000,-66590.000,986880.000,-45000.000,5000.000,-28000.000,3707.791,-578.805,-1212.386,-175.159,450.642,-211.739,-19856.216,-13576.271,-19889.931
1512180025,-10.900,4.000,2.100,-24600.000,-69030.000,998350.000,-45000.000,5000.000,-28000.000,1938.837,-1219.168,-2319.091,-185.944,193.734,276.867,-19487.854,-15225.716,-18318.901
1512180025,7.200,-3.100,3.500,-19290.000,-53100.000,1027890.000,-45000.000,5000.000,-28000.000,501.353,-842.501,-2144.584,-72.738,-256.542,315.528,-18446.289,-17174.156,-17653.725
1512180025,4.400,-1.600,4.300,-21180.000,-51090.000,991940.000,-40000.000,7000.000,-16000.000,-464.048,1434.040,-831.935,57.655,-582.291,607.889,-17922.714,-17473.366,-17808.327
1512180025,-2.000,-2.700,4.300,-26790.000,-62010.000,998720.000,-40000.000,7000.000,-16000.000,358.144,3604.475,422.028,666.873,215.441,185.045,-16649.658,-17846.458,-18344.337
1512180025,0.400,0.000,3.100,-12700.000,-51390.000,1024600.000,-40000.000,7000.000,-16000.000,1480.263,2223.266,2384.365,657.811,283.958,-27.843,-15823.563,-17620.216,-18201.241
1512180025,0.900,-1.100,4.300,-16480.000,-59330.000,990970.000,-40000.000,7000.000,-16000.000,-162.486,4897.793,2318.699,307.126,582.800,-47.097,-14621.613,-17093.422,-19036.186
1512180025,-10.300,4.000,4.300,-28990.000,-71960.000,997380.000,-40000.000,7000.000,-16000.000,1842.687,6250.718,3035.802,466.380,49.564,228.483,-12594.131,-16490.364,-19503.120
1512180025,-8.300,-0.100,4.800,-16480.000,-64700.000,1019470.000,-40000.000,-3000.000,-10000.000,2316.609,11866.337,4437.424,835.698,-369.280,393.843,-9519.806,-16560.753,-20204.292
1512180025,-8.400,2.100,5.600,-46630.000,-86240.000,983340.000,-40000.000,-3000.000,-10000.000,-1951.712,1868.634,2970.914,517.946,-162.824,283.404,-7030.991,-13332.024,-21648.827
1512180025,-16.400,5.500,8.500,-64940.000,-86240.000,980530.000,-40000.000,-3000.000,-10000.000,-2287.974,-1813.567,-478.415,538.565,614.484,72.393,-7401.901,-12357.582,-22245.186
1512180025,-12.700,4.500,9.500,-70190.000,-79160.000,1007750.000,-40000.000,-3000.000,-10000.000,-1547.344,-772.048,623.319,-181.287,-1602.456,-755.883,-8146.362,-11158.699,-21938.271
1512180025,8.500,-2.400,8.500,-59690.000,-85510.000,1006650.000,-31000.000,-1000.000,-15000.000,-246.919,-1103.024,1004.533,441.293,356.046,-910.694,-8368.988,-10634.026,-21936.119
1512180025,-4.700,5.600,9.100,-68790.000,-95890.000,980100.000,-31000.000,-1000.000,-15000.000,787.809,174.888,1092.201,315.413,173.518,-64.138,-9043.289,-10485.039,-21855.309
1512180025,-11.300,5.500,7.200,-54020.000,-89420.000,994750.000,-31000.000,-1000.000,-15000.000,667.777,-2455.811,-226.749,-283.167,875.021,-138.947,-9345.078,-10935.493,-21402.962
1512180025,-0.400,-1.600,5.900,-34420.000,-95030.000,1017330.000,-31000.000,-1000.000,-15000.000,320.446,-1033.996,24.223,-72.672,-264.368,73.618,-10694.733,-10900.016,-21016.479
1512180025,-10.500,-2.000,4.100,-62810.000,-94540.000,996580.000,-31000.000,-1000.000,-15000.000,124.742,-483.037,-8.143,99.972,4.863,112.838,-11334.129,-11388.481,-20411.285
1512180025,-10.300,-0.800,4.700,-59510.000,-84840.000,1001590.000,-43000.000,7000.000,0.000,30.571,-173.412,-3.633,75.698,13.213,36.502,-11559.860,-11576.325,-20184.463
1512180025,7.300,-7.200,5.200,-52430.000,-80020.000,1043580.000,-43000.000,7000.000,0.000,2.711,-144.635,6.190,28.013,-49.160,7.255,-11671.952,-11501.488,-20033.462
1512180025,-1.500,0.300,8.300,-63290.000,-90880.000,973880.000,-43000.000,7000.000,0.000,14.402,-178.266,6.776,30.107,-32.232,6.779,-11822.769,-11689.217,-19994.782
1512180025,-5.300,-0.300,9.600,-56520.000,-106750.000,995730.000,-43000.000,7000.000,0.000,17.087,-189.473,5.178,35.434,-30.673,6.528,-12161.155,-11914.718,-19729.515
1512180025,1.100,-7.300,10.500,-35340.000,-97960.000,1021550.000,-43000.000,7000.000,0.000,21.807,-212.438,8.897,40.498,-33.124,4.931,-12162.674,-12289.718,-19392.189
1512180025,-12.400,-4.700,12.500,-54810.000,-77450.000,969730.000,-29000.000,3000.000,-3000.000,34.564,-250.876,8.947,47.752,-16.717,2.177,-12461.495,-12027.672,-19389.511
1512180025,-19.600,-0.100,14.600,-75990.000,-102720.000,981630.000,-29000.000,3000.000,-3000.000,44.741,-310.131,3.560,31.805,-34.320,-9.282,-12800.507,-12365.676,-19386.803
1512180025,-10.800,2.800,16.500,-47550.000,-79900.000,995670.000,-29000.000,3000.000,-3000.000,85.914,-438.759,-10.683,33.529,-27.968,-15.905,-13025.246,-12366.013,-18859.901
1512180025,10.000,-5.200,13.800,-50660.000,-91980.000,1027100.000,-29000.000,3000.000,-3000.000,67.872,-362.944,-12.281,36.197,-24.182,26.333,-13401.436,-12666.588,-18519.348
1512180025,-3.100,2.900,12.100,-54870.000,-89840.000,969790.000,-26000.000,3000.000,-13000.000,27.298,-240.178,-1.778,37.353,-41.839,12.799,-13700.996,-12629.532,-17991.783
1512180026,-29.700,11.500,15.700,-88500.000,-114620.000,968570.000,-26000.000,3000.000,-13000.000,45.245,-296.253,5.212,48.856,-10.068,-24.918,-14076.279,-12742.592,-17538.643
1512180026,-8.400,9.100,9.600,-90820.000,-125310.000,1023990.000,-26000.000,3000.000,-13000.000,76.253,-384.844,-4.240,71.792,-15.883,-15.630,-14225.235,-12517.815,-17462.273
1512180026,7.100,6.300,18.000,-98210.000,-137630.000,1028200.000,-26000.000,3000.000,-13000.000,62.437,-363.495,-5.430,14.741,-50.731,9.282,-14225.693,-12667.824,-17012.352
1512180026,27.600,-1.900,56.200,-112490.000,-106690.000,1018740.000,-26000.000,3000.000,-13000.000,35.591,-293.069,9.349,62.921,-38.685,6.832,-14526.733,-12893.272,-17084.908
1512180026,21.000,22.900,180.200,-134280.000,-53530.000,1010860.000,-33000.000,3000.000,-10000.000,58.335,-381.641,-16.213,20.050,-38.551,-30.723,-14074.188,-12367.592,-16713.478
1512180026,185.000,41.100,332.200,-133180.000,-81730.000,913330.000,-33000.000,3000.000,-10000.000,70.978,-381.642,-7.503,50.398,-10.946,-14.814,-14375.229,-12668.037,-16111.076
1512180026,734.500,387.100,588.200,-119810.000,-68600.000,747800.000,-33000.000,3000.000,-10000.000,68.954,-383.766,-13.935,49.632,-28.984,-4.077,-14599.258,-12518.379,-15509.102
1512180026,813.900,790.600,887.500,-147830.000,-336850.000,1379030.000,-33000.000,3000.000,-10000.000,69.095,-493.765,-28.176,18.343,-16.353,-52.760,-14600.830,-12893.379,-15284.264
1512180026,-359.800,-292.100,674.600,-287230.000,-337650.000,1171690.000,-33000.000,3000.000,-10000.000,138.809,-917.768,-9.451,62.550,5.633,-165.058,-14898.544,-12443.825,-14756.523
1512180026,-256.100,-278.300,271.600,-218440.000,-155270.000,783510.000,-22000.000,59000.000,-328000.000,315.130,-1405.568,-58.698,20.095,-101.911,-140.965,-14975.494,-12968.941,-13931.114
1512180026,197.100,387.000,33.400,-230590.000,-136410.000,1135010.000,-22000.000,59000.000,-328000.000,415.115,-1807.991,-130.078,55.256,34.309,-154.429,-15799.973,-12970.177,-12874.123
1512180026,-156.700,-259.800,27.400,-189150.000,-175110.000,1035830.000,-22000.000,59000.000,-328000.000,338.757,-12.588,-66.303,114.760,-11.869,1120.660,-15197.693,-12519.279,-12354.012
1512180026,-16.200,58.900,34.500,-197690.000,-176450.000,905940.000,-22000.000,59000.000,-328000.000,-78.684,-148.136,93.482,95.955,-4.723,-260.106,-15347.015,-12369.499,-12352.669
1512180026,16.900,98.500,43.300,-214840.000,-158810.000,1100040.000,-14000.000,93000.000,-340000.000,18.925,-40.981,-2.811,75.324,5.209,142.956,-15346.939,-12369.499,-12202.660
1512180026,-43.900,-118.800,42.900,-185970.000,-179570.000,954900.000,-14000.000,93000.000,-340000.000,-1.195,-26.037,-9.444,-43.413,-60.906,-22.769,-15046.112,-12219.048,-11905.144
1512180026,71.600,114.100,54.700,-240480.000,-194580.000,1006410.000,-14000.000,93000.000,-340000.000,-18.525,-7.935,8.494,24.135,-34.134,6.515,-15197.952,-12594.276,-12204.048
1512180026,-28.400,-39.900,59.400,-219910.000,-183840.000,1012630.000,-14000.000,93000.000,-340000.000,-12.036,-7.919,2.188,7.551,-38.373,6.612,-14818.405,-11618.706,-11906.776
1512180026,42.300,31.700,67.500,-210270.000,-166380.000,967220.000,-14000.000,93000.000,-340000.000,-4.763,-10.064,14.015,15.692,-37.952,-23.314,-14516.754,-11318.260,-11309.196
1512180026,16.800,3.500,70.600,-220030.000,-172550.000,1008540.000,-12000.000,95000.000,-341000.000,1.684,-4.709,10.927,70.029,-16.296,-6.423,-14668.442,-11693.474,-11308.098
1512180026,27.300,24.600,73.200,-173280.000,-160950.000,1001040.000,-12000.000,95000.000,-341000.000,17.712,-13.227,7.930,3.393,-42.350,-38.625,-15116.989,-11394.157,-11079.140
1512180026,0.300,9.900,77.500,-208800.000,-165410.000,983700.000,-12000.000,95000.000,-341000.000,20.787,-10.026,16.519,43.836,-30.370,-78.699,-15039.551,-10869.041,-10929.527
1512180026,11.700,1.900,75.800,-183530.000,-159060.000,998230.000,-12000.000,95000.000,-341000.000,-8.834,3.833,2.274,18.962,-22.505,22.395,-14890.106,-11018.822,-10705.879
1512180026,43.300,26.400,82.600,-202390.000,-152470.000,981930.000,-1000.000,105000.000,-335000.000,16.623,-3.617,10.081,32.558,-11.177,0.516,-14438.492,-10643.135,-10859.520
1512180026,38.000,32.400,84.800,-194950.000,-162350.000,978210.000,-1000.000,105000.000,-335000.000,2.908,-3.621,1.354,26.029,-29.611,-47.569,-14438.126,-10568.138,-10784.492
1512180026,22.800,-6.100,89.900,-170410.000,-146610.000,980100.000,-1000.000,105000.000,-335000.000,9.270,2.800,4.671,18.319,-36.727,-13.762,-14437.744,-10493.141,-10709.450
1512180026,54.600,2.000,94.800,-178100.000,-109860.000,1014890.000,-1000.000,105000.000,-335000.000,18.808,0.664,6.929,66.581,-17.585,-46.613,-14135.269,-9967.690,-10486.763
1512180026,26.100,-0.700,97.100,-183960.000,-110470.000,979550.000,-1000.000,105000.000,-335000.000,5.157,-1.467,-5.535,18.406,-19.959,-16.027,-14437.523,-10455.642,-10596.939
1512180026,13.800,24.900,94.000,-114380.000,-118900.000,1001220.000,-17000.000,111000.000,-326000.000,0.947,2.271,-8.781,33.097,-21.977,-0.728,-13945.389,-9442.390,-10450.615
1512180026,-16.600,45.800,91.700,-139830.000,-140010.000,1020390.000,-17000.000,111000.000,-326000.000,9.979,-3.058,-7.069,28.282,-36.942,-28.114,-13945.526,-9479.896,-10375.625
1512180026,27.400,-11.500,95.100,-105160.000,-133480.000,983150.000,-17000.000,111000.000,-326000.000,15.816,-1.450,-5.380,34.269,-31.924,-23.178,-13795.823,-9517.174,-10639.419
1512180026,78.400,32.800,96.700,-81120.000,-73060.000,988530.000,-17000.000,111000.000,-326000.000,17.919,5.494,-3.192,43.492,-27.648,-9.360,-13718.499,-9029.556,-10377.343
1512180026,76.600,11.300,99.500,-135930.000,-88070.000,983640.000,-17000.000,111000.000,-326000.000,22.273,8.178,-8.986,12.056,-32.559,-10.306,-13717.743,-8879.555,-10227.265
1512180026,105.300,37.200,97.500,-122920.000,-84530.000,983890.000,-3000.000,111000.000,-326000.000,21.220,10.314,-9.527,25.457,-27.198,-1.338,-13755.432,-8917.114,-10264.466
1512180026,71.900,37.000,99.100,-143190.000,-68660.000,966060.000,-3000.000,111000.000,-326000.000,31.203,5.506,-0.869,56.312,-37.735,-27.658,-13830.322,-8879.731,-10376.313
1512180026,43.700,31.800,101.500,-159360.000,-61040.000,1007810.000,-3000.000,111000.000,-326000.000,28.631,8.182,-6.762,54.040,-16.328,-27.325,-13718.834,-9104.561,-10377.373
1512180026,11.500,-6.900,101.500,-115050.000,-33140.000,980900.000,-3000.000,111000.000,-326000.000,24.356,13.519,-5.204,63.460,-16.655,-19.266,-13531.784,-9179.275,-10603.996
1512180026,-27.200,31.700,100.300,-123600.000,-64270.000,999020.000,-8000.000,105000.000,-328000.000,29.189,14.596,-7.797,52.733,-24.787,-23.624,-13679.474,-8691.994,-10377.502
1512180026,-27.300,-12.400,101.200,-124270.000,-46390.000,985410.000,-8000.000,105000.000,-328000.000,11.789,23.671,-18.677,40.147,-20.317,9.552,-13418.587,-9029.106,-10567.383
1512180027,45.000,25.700,100.300,-90330.000,-26730.000,1021420.000,-8000.000,105000.000,-328000.000,18.141,25.282,-15.379,65.751,-26.583,-5.050,-13229.416,-8691.322,-10268.822
1512180027,54.300,21.000,102.500,-117740.000,-36070.000,1041500.000,-8000.000,105000.000,-328000.000,19.202,28.484,-15.354,13.468,-46.576,-10.428,-13529.190,-8616.768,-10491.234
1512180027,-40.700,-26.000,94.900,-120730.000,-89230.000,968690.000,-8000.000,105000.000,-328000.000,24.419,30.611,-8.877,46.625,-28.855,-13.077,-13454.453,-8691.658,-10341.911
1512180027,9.100,6.400,89.500,-67320.000,-72940.000,1034730.000,-3000.000,114000.000,-326000.000,7.586,33.819,-21.901,9.599,-40.221,-0.321,-13380.203,-8841.545,-10492.622
1512180027,-36.900,-6.900,90.900,-102660.000,-91550.000,1033870.000,-3000.000,114000.000,-326000.000,14.827,32.733,-9.009,15.875,-22.890,5.770,-13303.864,-8541.435,-10493.111
1512180027,-96.000,-74.800,92.300,-136170.000,-79710.000,976200.000,-3000.000,114000.000,-326000.000,18.102,29.547,-13.235,-6.483,-16.939,-13.450,-13226.761,-8091.316,-10343.544
1512180027,-15.200,-5.500,94.500,-129580.000,-43270.000,988340.000,-3000.000,114000.000,-326000.000,28.749,24.218,-13.101,-33.453,-41.749,-12.077,-12927.536,-8240.868,-10571.159
1512180027,-74.600,-32.400,94.100,-133000.000,-69950.000,995790.000,-3000.000,114000.000,-326000.000,33.844,20.992,0.820,0.345,-1.285,-36.446,-13003.860,-8540.993,-10495.674
1512180027,-71.400,-22.900,96.800,-120910.000,-57190.000,990910.000,-15000.000,109000.000,-328000.000,23.369,25.272,-9.977,-34.170,29.007,-9.062,-13152.878,-8316.200,-10569.283
1512180027,-77.800,-17.600,94.500,-125370.000,-50350.000,1058410.000,-15000.000,109000.000,-328000.000,31.679,19.918,2.918,-43.253,29.033,-24.452,-13601.608,-8016.884,-10715.324
1512180027,-110.000,-64.600,92.100,-103640.000,-84720.000,1028080.000,-15000.000,109000.000,-328000.000,32.730,18.851,3.996,-25.224,37.736,-48.843,-13528.488,-8466.774,-10416.161
1512180027,-75.900,-26.900,90.800,-85570.000,-86240.000,978520.000,-15000.000,109000.000,-328000.000,36.035,23.141,-2.338,-78.339,40.962,-7.267,-13227.844,-8316.322,-10493.645
1512180027,-59.900,-35.300,80.800,-77940.000,-93380.000,1016910.000,-21000.000,114000.000,-333000.000,41.186,24.194,8.400,-54.341,77.466,-49.781,-13228.638,-8466.331,-10718.712
1512180027,-33.200,-58.600,83.500,-105290.000,-123470.000,956850.000,-21000.000,114000.000,-333000.000,23.300,29.536,-5.699,-90.986,70.033,-15.625,-13378.632,-8466.545,-10717.445
1512180027,-6.900,21.000,73.800,-49010.000,-60060.000,1055480.000,-21000.000,114000.000,-333000.000,40.122,28.464,8.399,-74.086,92.036,-0.932,-13226.685,-8016.319,-10868.507
1512180027,11.200,1.100,81.400,-71720.000,-89170.000,1064090.000,-21000.000,114000.000,-333000.000,50.805,24.208,6.406,-39.855,98.735,-43.908,-13378.662,-8466.545,-10792.442
1512180027,-9.600,-41.800,78.400,-81790.000,-119810.000,972230.000,-21000.000,114000.000,-333000.000,39.317,24.222,-7.618,-106.966,71.183,-20.871,-13830.353,-8842.232,-10788.795
1512180027,105.600,79.500,79.200,-14220.000,-65550.000,1045530.000,1000.000,112000.000,-318000.000,47.658,26.351,4.239,-69.741,95.074,-33.069,-13227.951,-8316.322,-10718.651
1512180027,57.100,-10.700,78.800,-112490.000,-131160.000,1082640.000,1000.000,112000.000,-318000.000,24.477,33.824,-12.063,-89.917,85.038,-8.095,-13603.104,-8316.887,-11015.465
1512180027,31.200,-15.800,90.900,-78490.000,-91800.000,969360.000,1000.000,112000.000,-318000.000,24.403,32.746,-7.804,-96.641,70.735,18.180,-13526.871,-8091.774,-10565.987
1512180027,47.700,42.200,73.600,-89970.000,-73610.000,1012080.000,1000.000,112000.000,-318000.000,40.374,30.633,-6.513,-76.786,70.665,-25.193,-13377.762,-8241.539,-11017.342
1512180027,-63.500,-12.800,70.200,-82580.000,-100220.000,945070.000,1000.000,112000.000,-318000.000,27.744,31.701,-16.287,-114.056,66.934,2.431,-13229.416,-8616.325,-10943.779
1512180027,-32.500,31.800,64.700,-117190.000,-121030.000,955020.000,0.000,114000.000,-333000.000,40.302,28.495,-1.187,-66.532,77.065,-16.579,-13078.812,-8466.103,-11094.994
1512180027,22.000,45.900,62.300,-110900.000,-85820.000,965820.000,0.000,114000.000,-333000.000,20.278,32.755,-16.393,-84.099,64.424,23.112,-13228.897,-8466.331,-11243.721
1512180027,-14.900,25.200,55.700,-78370.000,-114010.000,968750.000,0.000,114000.000,-333000.000,26.579,33.826,-9.899,-90.533,61.867,-4.764,-13079.269,-8541.100,-11320.030
1512180027,33.600,41.000,54.100,-94670.000,-87400.000,994320.000,0.000,114000.000,-333000.000,29.721,32.755,-6.659,-30.106,57.520,-14.722,-13154.526,-8616.203,-11169.426
1512180027,-2.000,2.300,55.300,-71230.000,-109370.000,952270.000,-5000.000,109000.000,-321000.000,34.119,30.640,-15.133,-63.280,42.699,-4.439,-13305.321,-8766.434,-11393.227
1512180027,38.300,52.600,60.100,-97720.000,-110470.000,1045720.000,-5000.000,109000.000,-321000.000,16.151,40.779,-23.885,-45.336,37.543,13.179,-13267.654,-8728.881,-11393.516
1512180027,-47.500,-24.500,61.800,-84170.000,-151180.000,969300.000,-5000.000,109000.000,-321000.000,16.184,42.384,-26.012,-38.840,10.326,-9.942,-13154.884,-8653.709,-11544.441
1512180027,-3.200,40.100,68.800,-74460.000,-133060.000,952450.000,-5000.000,109000.000,-321000.000,14.057,42.916,-26.040,2.670,12.009,-4.123,-13195.053,-9216.271,-11806.885
1512180027,-6.500,59.000,73.600,-67200.000,-150270.000,1028690.000,-5000.000,109000.000,-321000.000,15.176,42.925,-29.222,3.040,-8.855,-19.939,-12894.264,-9028.320,-11921.844
1512180027,-23.300,-22.000,85.400,-20140.000,-107790.000,957210.000,-1000.000,130000.000,-331000.000,15.163,47.727,-28.674,7.512,-23.213,-18.505,-13343.780,-8878.990,-12292.938
1512180027,51.300,64.800,96.000,-100950.000,-146670.000,1011350.000,-1000.000,130000.000,-331000.000,12.040,54.677,-32.425,15.749,-34.667,-5.346,-13345.406,-9216.492,-12518.104
1512180027,-50.300,-64.800,99.200,-25090.000,-98330.000,976010.000,-1000.000,130000.000,-331000.000,17.379,56.821,-32.873,23.482,-39.761,-35.912,-13609.482,-9554.390,-12628.525
1512180027,1.700,46.600,106.900,-30820.000,-97780.000,1023620.000,-1000.000,130000.000,-331000.000,14.240,68.038,-36.078,24.437,-43.092,-39.731,-13461.738,-10004.173,-13080.009
1512180027,-75.200,-65.800,112.100,-192750.000,-139280.000,969420.000,-3000.000,128000.000,-313000.000,20.560,71.240,-31.713,34.072,-28.883,-24.066,-13689.926,-10679.512,-13378.410
1512180027,-28.500,-34.500,115.800,-69090.000,-31980.000,930910.000,-3000.000,128000.000,-313000.000,31.148,66.446,-26.776,36.510,-39.704,-53.680,-13653.244,-10829.460,-13678.802
1512180027,-2.000,73.000,116.500,-108640.000,-159420.000,1013550.000,-3000.000,128000.000,-313000.000,30.705,70.728,-32.098,24.201,-29.201,-44.099,-13731.514,-11504.577,-14128.463
1512180028,-98.500,-80.400,116.800,-64880.000,-152340.000,980900.000,-3000.000,128000.000,-313000.000,37.638,69.132,-33.072,30.023,-41.244,-82.045,-13993.484,-11392.479,-14088.676
1512180028,12.400,-8.100,116.400,-64640.000,-121460.000,950260.000,-3000.000,128000.000,-313000.000,48.233,72.348,-28.642,25.384,-47.227,-40.245,-13992.584,-11167.473,-14313.576
1512180028,-24.200,-12.500,115.700,-104490.000,-141850.000,1067320.000,12000.000,109000.000,-324000.000,66.254,67.020,-23.071,58.344,-18.709,-75.050,-13770.813,-11842.140,-14690.804
1512180028,-86.600,-27.400,121.200,-91130.000,-134830.000,1047240.000,12000.000,109000.000,-324000.000,54.852,64.908,-42.430,-23.754,-59.022,-71.877,-13995.667,-11767.479,-15063.850
1512180028,-79.200,-30.800,121.700,-54260.000,-83190.000,1085330.000,12000.000,109000.000,-324000.000,65.316,69.171,-30.538,18.724,-34.682,-56.511,-13770.966,-11842.140,-14990.807
1512180028,-125.800,-61.500,129.600,-94910.000,-144350.000,1045650.000,12000.000,109000.000,-324000.000,54.830,75.588,-40.260,28.960,-12.266,-25.817,-13994.690,-11542.473,-15138.756
1512180028,-113.200,-101.500,135.200,-28690.000,-62740.000,1035890.000,12000.000,109000.000,-324000.000,69.692,73.465,-36.855,2.643,-44.649,-19.520,-13773.102,-12292.137,-15216.011
1512180028,-57.100,-53.400,140.600,-88680.000,-120180.000,1019650.000,7000.000,111000.000,-333000.000,77.092,69.195,-33.566,38.277,-50.506,-84.650,-14450.165,-12743.156,-15285.469
1512180028,-172.800,-96.100,132.400,-54810.000,-165770.000,1023440.000,7000.000,111000.000,-333000.000,68.708,79.878,-42.180,2.355,-38.012,-29.386,-14375.580,-12818.047,-15436.150
1512180028,-22.400,-16.200,128.000,-30210.000,-141660.000,1062260.000,7000.000,111000.000,-333000.000,84.553,79.891,-32.352,59.304,-9.498,-21.426,-14450.317,-12743.156,-15585.472
1512180028,-53.300,-33.800,116.900,-24410.000,-275150.000,956850.000,7000.000,111000.000,-333000.000,71.986,80.964,-46.391,33.388,-28.462,-32.254,-14751.816,-13043.617,-15883.064
1512180028,0.500,13.700,120.100,-14650.000,-198490.000,1039550.000,7000.000,118000.000,-330000.000,73.996,85.224,-38.885,7.203,-49.124,-17.307,-14529.068,-13568.275,-15660.210
1512180028,-91.700,-136.800,117.800,-19710.000,-195740.000,969240.000,7000.000,118000.000,-330000.000,83.466,89.495,-31.271,58.728,-26.757,-50.864,-14606.201,-14018.394,-15884.789
1512180028,15.000,66.700,126.600,-92410.000,-167850.000,1006470.000,7000.000,118000.000,-330000.000,72.929,98.043,-37.788,30.258,-26.620,-14.846,-14455.902,-13943.169,-15961.021
1512180028,-44.500,-79.500,118.900,-14770.000,-84900.000,1005980.000,7000.000,118000.000,-330000.000,85.611,94.844,-31.219,50.375,-30.474,-45.049,-14231.537,-14092.827,-15888.008
1512180028,50.300,-14.500,123.300,-50230.000,-122010.000,904110.000,7000.000,118000.000,-330000.000,69.839,101.255,-44.218,28.672,-27.759,-36.752,-14307.480,-14317.940,-15737.480
1512180028,63.000,40.900,126.200,-79830.000,-104980.000,996460.000,22000.000,119000.000,-328000.000,69.739,102.306,-38.889,6.040,-46.004,-6.678,-14682.892,-14393.501,-15884.315
1512180028,45.800,5.700,124.100,-55180.000,-95760.000,973630.000,22000.000,119000.000,-328000.000,79.252,96.975,-33.436,42.085,-30.746,-42.084,-14008.896,-14617.485,-15890.160
1512180028,30.000,10.100,117.600,-79960.000,-144840.000,989070.000,22000.000,119000.000,-328000.000,70.867,105.522,-42.057,8.359,-36.653,-36.914,-14460.327,-14918.175,-16036.476
1512180028,-11.300,-1.300,108.700,-51510.000,-154910.000,951110.000,22000.000,119000.000,-328000.000,88.908,109.815,-36.449,28.685,-12.721,-59.366,-14384.506,-14768.059,-15737.038
1512180028,-12.900,-11.300,113.900,-29300.000,-118650.000,976620.000,22000.000,119000.000,-328000.000,78.462,114.096,-49.379,17.756,-23.751,-33.615,-14460.693,-14993.172,-16111.504
1512180028,34.800,-16.100,103.700,-74160.000,-171870.000,926820.000,14000.000,132000.000,-323000.000,82.627,113.019,-43.994,-12.284,-58.717,-54.996,-14537.048,-15293.282,-16111.015
1512180028,26.900,-7.600,102.100,-27160.000,-130680.000,932800.000,14000.000,132000.000,-323000.000,92.088,118.360,-35.309,50.790,-12.343,-53.331,-14536.636,-15218.285,-15960.976
1512180028,51.800,38.300,100.900,-66280.000,-143010.000,992920.000,14000.000,132000.000,-323000.000,82.811,116.248,-54.640,-20.269,-52.767,-29.135,-14237.717,-15442.833,-16113.625
1512180028,-15.800,-44.200,97.600,-49130.000,-107420.000,958370.000,14000.000,132000.000,-323000.000,95.416,109.835,-43.819,0.975,-29.721,-35.970,-14350.036,-15405.510,-16075.158
1512180028,83.500,61.900,100.700,-112610.000,-120610.000,973630.000,17000.000,125000.000,-336000.000,117.758,97.581,-41.405,-12.298,-45.380,-81.410,-14353.653,-16230.507,-15888.039
1512180028,-80.400,-79.900,99.500,-57560.000,-75380.000,935670.000,17000.000,125000.000,-336000.000,114.802,101.341,-56.362,-38.100,-28.158,-75.031,-14278.374,-16192.901,-15663.666
1512180028,69.100,57.300,100.300,-71410.000,-84720.000,970400.000,17000.000,125000.000,-336000.000,129.286,93.366,-62.042,-42.746,-51.717,-76.752,-14052.978,-16155.059,-15215.560
1512180028,-28.800,-50.200,103.900,-128230.000,-96980.000,1079410.000,17000.000,125000.000,-336000.000,145.823,94.465,-62.329,-0.961,-14.325,-95.850,-14017.243,-16530.006,-15366.051
1512180028,-59.500,-41.500,103.200,-54990.000,-159790.000,1009090.000,17000.000,125000.000,-336000.000,145.419,97.678,-70.856,5.039,-16.853,-57.760,-13568.275,-16791.832,-15070.000
1512180028,37.000,22.100,112.500,-9460.000,-70190.000,1064580.000,15000.000,133000.000,-338000.000,150.956,96.111,-83.040,-17.868,-14.142,-50.917,-13869.324,-17054.787,-14805.069
1512180028,-8.900,40.100,116.600,-117980.000,-135740.000,1165160.000,15000.000,133000.000,-338000.000,150.983,104.661,-84.075,6.846,-21.179,-41.526,-13492.760,-16716.720,-14733.101
1512180028,-125.600,-120.900,117.800,-52310.000,-124390.000,1073550.000,15000.000,133000.000,-338000.000,150.967,104.657,-83.543,36.424,-5.027,-35.550,-13268.608,-16903.885,-14735.100
1512180028,-103.600,-65.900,120.400,81360.000,-26370.000,1050290.000,15000.000,133000.000,-338000.000,138.763,111.588,-86.361,21.351,-0.801,-19.977,-13080.826,-16866.104,-14511.673
1512180028,-17.800,77.900,104.700,-172180.000,-180110.000,1211360.000,3000.000,125000.000,-346000.000,133.958,115.852,-85.883,-3.554,-7.220,-23.191,-12969.772,-17165.940,-14700.272
1512180028,-195.900,-528.200,136.200,-102480.000,-22950.000,668150.000,3000.000,125000.000,-346000.000,127.005,124.383,-83.822,-6.164,-9.575,-1.262,-12783.661,-17465.660,-14777.008
1512180028,171.500,261.000,121.000,-85020.000,-217470.000,1017090.000,3000.000,125000.000,-346000.000,131.078,123.831,-72.572,4.225,-4.395,-45.700,-12972.679,-17803.444,-14775.566
1512180029,-236.000,-344.600,87.500,5190.000,-149290.000,917050.000,3000.000,125000.000,-346000.000,128.892,133.434,-68.839,5.136,10.187,-27.157,-12746.750,-17615.593,-14627.388
1512180029,-121.600,-57.100,146.500,90390.000,-112060.000,715700.000,3000.000,125000.000,-346000.000,117.224,135.560,-72.198,9.931,0.127,-20.822,-12671.051,-17465.492,-14552.956
1512180029,224.800,269.500,93.600,-55420.000,-160160.000,1041870.000,17000.000,135000.000,-353000.000,119.412,130.225,-76.452,-32.149,-24.431,-22.406,-12597.763,-17840.370,-14628.777
1512180029,-184.000,-404.800,104.000,-8420.000,-181090.000,998410.000,17000.000,135000.000,-353000.000,129.935,129.159,-67.773,6.113,-9.452,-69.104,-12447.464,-17765.144,-14705.009
1512180029,82.700,85.100,135.300,-45530.000,-212710.000,897220.000,17000.000,135000.000,-353000.000,119.463,134.509,-78.565,-6.021,-13.594,-10.527,-12074.799,-18289.589,-14633.446
1512180029,34.200,-53.800,105.200,-46570.000,-104250.000,1067690.000,17000.000,135000.000,-353000.000,138.519,127.045,-70.853,-1.068,-3.819,-48.374,-11998.825,-18064.476,-14708.977
1512180029,18.000,-160.300,117.200,-54630.000,-196900.000,933780.000,17000.000,135000.000,-353000.000,130.016,130.234,-73.100,22.271,-6.535,-93.238,-12073.929,-18139.595,-14258.369
1512180029,26.200,-29.700,117.400,-37900.000,-206120.000,928830.000,29000.000,133000.000,-335000.000,122.707,136.653,-81.711,-17.928,-20.901,-33.076,-12073.364,-17989.586,-14483.299
1512180029,7.900,57.800,101.200,69640.000,-166440.000,1026920.000,29000.000,133000.000,-335000.000,125.808,138.785,-75.260,5.601,19.112,-29.060,-12072.876,-17914.589,-14183.266
1512180029,-46.300,-71.200,108.800,-75990.000,-168330.000,1010250.000,29000.000,133000.000,-335000.000,128.178,131.339,-90.177,-33.122,-22.878,-34.246,-12150.208,-18439.705,-14107.872
1512180029,-54.700,-49.400,102.800,-64330.000,-176940.000,974300.000,29000.000,133000.000,-335000.000,135.517,133.472,-82.601,-44.347,-21.873,-65.194,-11848.145,-17989.250,-14035.210
1512180029,17.700,-24.800,107.200,-56210.000,-126160.000,996460.000,24000.000,132000.000,-346000.000,141.774,140.940,-73.957,11.448,14.736,-49.161,-11699.417,-18289.024,-13886.635
1512180029,-10.000,-7.500,109.500,-68540.000,-190800.000,1031800.000,24000.000,132000.000,-346000.000,133.370,147.356,-80.449,-21.763,-7.808,-40.416,-11699.341,-18289.024,-13736.641
1512180029,-44.600,-30.600,110.400,-7140.000,-179440.000,969060.000,24000.000,132000.000,-346000.000,137.458,151.612,-69.715,-2.822,-16.334,-59.525,-11249.710,-18363.350,-13815.483
1512180029,-7.600,-57.400,101.200,27950.000,-140200.000,917360.000,24000.000,132000.000,-346000.000,139.720,154.831,-78.203,-44.987,-33.692,-80.009,-11026.367,-18738.014,-13742.577
1512180029,100.900,49.700,107.200,-8120.000,-147770.000,975280.000,24000.000,132000.000,-346000.000,139.534,163.353,-66.449,-14.307,-12.074,-76.563,-11253.021,-19113.350,-13665.840
1512180029,121.700,52.900,110.900,-50840.000,-89780.000,1084840.000,26000.000,133000.000,-341000.000,135.245,164.415,-64.373,31.987,-4.214,-28.866,-11022.430,-17913.017,-13292.198
1512180029,133.200,-41.400,108.800,-37540.000,-97110.000,1010740.000,26000.000,133000.000,-341000.000,129.030,164.429,-75.123,-7.418,-16.744,-48.518,-10650.574,-18587.456,-13520.699
1512180029,101.500,134.800,113.200,1280.000,-114560.000,1222290.000,26000.000,133000.000,-341000.000,127.932,160.146,-74.091,-22.209,-7.288,-69.438,-10651.108,-18737.450,-13220.757
1512180029,-6.700,-30.200,110.900,-37540.000,-130190.000,1282350.000,26000.000,133000.000,-341000.000,125.839,169.759,-76.221,-14.031,6.502,-48.091,-10874.008,-18287.788,-13068.642
1512180029,-92.900,-196.500,134.600,-237490.000,-385740.000,1078740.000,26000.000,133000.000,-341000.000,133.386,169.781,-81.442,-20.845,18.788,-20.481,-10650.803,-18662.453,-13295.738
1512180029,42.700,-35.400,112.400,-32100.000,28630.000,831790.000,26000.000,141000.000,-338000.000,120.538,171.894,-77.354,-18.907,-8.501,-22.535,-10349.228,-18362.007,-12848.137
1512180029,-67.800,-21.600,145.500,-156310.000,-231080.000,986570.000,26000.000,141000.000,-338000.000,130.290,168.718,-87.888,-62.399,-26.901,-64.706,-9747.208,-17911.095,-12853.035
1512180029,8.300,-37.800,97.500,70370.000,-96560.000,955080.000,26000.000,141000.000,-338000.000,128.115,179.392,-84.683,-50.479,6.164,-65.334,-9973.175,-18136.436,-12776.222
1512180029,-6.100,-117.200,160.500,-57920.000,-193850.000,875790.000,26000.000,141000.000,-338000.000,128.180,189.014,-87.846,-14.396,11.801,-7.220,-9598.434,-18210.884,-12629.448
1512180029,65.100,134.100,128.900,-17210.000,-87280.000,991520.000,26000.000,130000.000,-328000.000,149.578,173.037,-92.920,-70.554,-43.587,-95.158,-9524.078,-18360.756,-12555.153
1512180029,-27.400,-84.600,123.600,64450.000,-167790.000,921940.000,26000.000,130000.000,-328000.000,139.464,198.120,-92.981,-17.997,8.720,-50.815,-9260.788,-18210.373,-12332.321
1512180029,-113.300,-32.100,149.700,4270.000,-196410.000,810970.000,26000.000,130000.000,-328000.000,139.000,197.063,-96.721,-52.351,-19.127,-110.678,-9297.668,-18097.924,-12106.949
1512180029,14.000,167.500,120.800,-2320.000,-185240.000,996150.000,26000.000,130000.000,-328000.000,136.851,212.545,-95.100,-31.889,7.829,-36.336,-8884.659,-18022.309,-11772.927
1512180029,-84.400,-11.300,125.000,-22770.000,-201970.000,991150.000,26000.000,130000.000,-328000.000,139.561,213.619,-98.257,-80.769,-30.632,-104.286,-8208.496,-17758.797,-11816.040
1512180029,-2.800,110.400,126.800,6710.000,-246520.000,1018860.000,22000.000,137000.000,-328000.000,141.251,214.175,-102.489,-68.395,0.278,-55.804,-7907.669,-17608.338,-11518.516
1512180029,-13.000,76.300,112.900,-20870.000,-175900.000,1010310.000,22000.000,137000.000,-328000.000,136.864,228.567,-95.044,-33.878,2.334,-76.770,-7531.319,-17307.778,-11521.568
1512180029,14.900,60.300,115.800,-41750.000,-152040.000,1050480.000,22000.000,137000.000,-328000.000,156.610,220.059,-96.384,-35.054,2.611,-119.066,-7229.294,-16894.821,-11186.425
1512180029,-15.200,8.900,115.300,-60300.000,-168820.000,999630.000,22000.000,137000.000,-328000.000,157.156,223.264,-97.433,-1.539,45.064,-54.518,-7192.482,-17044.770,-11224.312
1512180029,74.200,104.700,118.100,-49800.000,-132750.000,1056640.000,22000.000,137000.000,-328000.000,162.029,215.267,-102.722,-45.334,-18.430,-82.609,-6743.011,-17156.593,-11265.693
1512180029,12.800,54.900,120.400,-77210.000,-81600.000,1076540.000,17000.000,146000.000,-333000.000,169.002,205.670,-105.852,-73.543,-5.941,-62.730,-6404.007,-16818.588,-11305.900
1512180029,-23.800,66.300,116.600,-17210.000,-152280.000,1058410.000,17000.000,146000.000,-333000.000,196.086,188.076,-100.724,-61.768,3.010,-118.269,-6217.575,-17080.803,-11082.619
1512180029,-24.200,63.100,109.500,44310.000,-138730.000,1040590.000,17000.000,146000.000,-333000.000,196.128,188.617,-102.852,-51.324,-1.435,-73.544,-6446.998,-18056.153,-11156.158
1512180030,-15.200,128.400,110.300,-68660.000,-230650.000,1026000.000,17000.000,146000.000,-333000.000,187.100,191.275,-105.107,-61.574,-8.180,-47.125,-6219.070,-17455.818,-10707.802
1512180030,-155.800,40.900,110.400,-127010.000,-187680.000,1147580.000,22000.000,137000.000,-328000.000,200.723,181.656,-91.084,-19.015,2.010,-23.535,-6295.425,-17755.928,-10707.298
1512180030,-13.800,3.700,106.500,75620.000,-157530.000,1062870.000,22000.000,137000.000,-328000.000,220.979,169.937,-91.898,1.548,12.054,-95.173,-5995.956,-17830.467,-11084.877
1512180030,3.200,118.000,119.800,-83980.000,-110720.000,1217470.000,22000.000,137000.000,-328000.000,200.775,177.391,-94.295,-3.353,11.978,-46.382,-5846.893,-18055.244,-10936.256
1512180030,-41.000,-95.300,117.600,-40100.000,-60240.000,1134280.000,22000.000,137000.000,-328000.000,209.218,178.464,-88.838,27.165,37.111,-19.500,-5772.873,-18280.144,-10861.992
1512180030,31.300,-64.600,136.400,-96250.000,-209170.000,977170.000,22000.000,137000.000,-328000.000,192.285,179.519,-96.543,6.907,9.845,-18.735,-5773.209,-18355.141,-10862.038
1512180030,46.100,39.500,129.000,12210.000,-102840.000,1005920.000,33000.000,155000.000,-318000.000,193.342,181.651,-96.523,-6.943,-1.139,-6.692,-5622.971,-18279.915,-11088.280
1512180030,-38.900,-77.600,120.400,-51150.000,-204410.000,945980.000,33000.000,155000.000,-318000.000,180.603,179.502,-99.913,-17.992,8.754,6.209,-5774.963,-18730.141,-11012.199
1512180030,-15.300,150.500,116.600,2870.000,-155880.000,991460.000,33000.000,155000.000,-318000.000,176.284,175.216,-96.793,-14.629,11.035,6.385,-5626.205,-19029.915,-10788.628
1512180030,-100.800,-8.800,108.100,-7630.000,-145260.000,987490.000,33000.000,155000.000,-318000.000,169.911,179.490,-96.865,-31.228,21.376,5.820,-5625.870,-18954.918,-10788.582
1512180030,-85.400,35.300,110.900,-43400.000,-182920.000,943850.000,17000.000,149000.000,-313000.000,162.373,165.578,-93.828,-74.138,-11.351,-26.800,-5476.761,-19179.695,-10564.964
1512180030,-18.000,124.200,109.900,-73790.000,-122860.000,1022640.000,17000.000,149000.000,-313000.000,173.935,163.438,-84.075,-35.986,28.225,6.886,-5400.864,-18954.582,-10790.504
1512180030,-8.400,92.400,108.400,-50480.000,-114870.000,1036990.000,17000.000,149000.000,-313000.000,177.197,149.568,-88.339,-38.845,24.161,-40.073,-5402.481,-19329.582,-10640.663
1512180030,7.700,80.700,107.100,-60850.000,-101200.000,1018250.000,17000.000,149000.000,-313000.000,187.838,134.626,-88.238,-70.362,-4.518,-77.310,-5253.265,-19479.362,-10867.012
1512180030,5.600,57.700,105.200,-38390.000,-57130.000,983090.000,17000.000,149000.000,-313000.000,196.406,135.714,-90.241,-29.881,6.938,-97.539,-5631.042,-20079.933,-11014.107
1512180030,88.000,89.100,122.400,-157410.000,-23560.000,1092290.000,28000.000,160000.000,-319000.000,196.689,136.817,-107.289,-85.910,-9.129,-88.549,-4879.913,-19853.798,-10795.372
1512180030,71.200,-38.100,106.800,-171200.000,-116090.000,936400.000,28000.000,160000.000,-319000.000,202.895,143.212,-95.451,-43.749,15.103,-77.240,-4955.322,-19928.917,-10944.771
1512180030,138.800,108.300,107.500,-27890.000,-18130.000,1042240.000,28000.000,160000.000,-319000.000,204.141,144.305,-106.088,-38.502,3.901,-107.815,-4881.042,-20078.804,-11020.485
1512180030,93.600,82.000,102.400,-96250.000,-142700.000,1082150.000,28000.000,160000.000,-319000.000,195.616,154.971,-106.176,-45.073,-7.667,-94.382,-5182.724,-20454.262,-11018.105
1512180030,-104.100,-24.500,107.200,-97350.000,-130130.000,1037600.000,28000.000,160000.000,-319000.000,190.347,163.516,-109.421,-0.608,17.070,-27.222,-5107.727,-20454.140,-11018.745
1512180030,-30.400,-16.900,103.300,-48650.000,-71590.000,1080320.000,35000.000,171000.000,-313000.000,197.926,153.929,-116.806,-40.843,13.729,-75.607,-5337.570,-21504.494,-11242.317
1512180030,-36.600,-32.500,104.500,-55970.000,-44860.000,1010440.000,35000.000,171000.000,-313000.000,187.065,161.359,-105.215,-3.187,12.121,-33.357,-5186.554,-21279.259,-11243.477
1512180030,13.400,72.700,99.100,-20320.000,-143190.000,1042970.000,35000.000,171000.000,-313000.000,190.301,152.828,-107.327,16.462,17.704,-16.765,-5036.545,-21279.030,-11244.759
1512180030,-38.900,-2.400,93.700,-69150.000,-156310.000,976320.000,35000.000,171000.000,-313000.000,190.281,140.011,-106.305,-43.553,14.122,-0.820,-5262.634,-21504.372,-11392.952
1512180030,-27.700,90.100,90.100,-27220.000,-148740.000,975400.000,19000.000,172000.000,-324000.000,186.892,133.577,-94.648,26.340,18.769,6.344,-5037.674,-21504.036,-11469.872
1512180030,-71.900,83.000,88.200,-49320.000,-177060.000,1024540.000,19000.000,172000.000,-324000.000,204.838,109.012,-85.948,33.335,26.694,-78.683,-4962.158,-21428.917,-11095.467
1512180030,-100.100,-14.200,91.900,-53770.000,-121700.000,950010.000,19000.000,172000.000,-324000.000,164.986,132.464,-92.307,24.987,1.717,-42.368,-4925.774,-21653.870,-11320.884
1512180030,0.700,92.700,94.800,-85570.000,-102420.000,1025090.000,19000.000,172000.000,-324000.000,137.303,157.527,-93.154,40.727,4.693,-35.718,-5001.885,-21916.488,-11170.372
1512180030,-0.800,22.600,90.800,-62620.000,-118470.000,1093440.000,19000.000,172000.000,-324000.000,112.187,186.321,-87.553,12.449,35.847,-6.058,-4817.192,-22516.204,-11397.247
1512180030,-11.700,2.400,95.100,-68480.000,-162350.000,981450.000,22000.000,172000.000,-348000.000,104.604,207.655,-79.595,-14.367,-11.061,-32.219,-4665.733,-22178.475,-11510.864
1512180030,35.000,78.700,93.900,-67500.000,-134340.000,1012760.000,22000.000,172000.000,-348000.000,115.295,214.618,-81.014,-20.634,-2.383,-34.509,-4403.816,-22290.581,-11663.147
1512180030,14.500,27.400,88.200,-32780.000,-137080.000,1017700.000,22000.000,172000.000,-348000.000,120.049,206.075,-78.843,-33.157,-21.452,-83.499,-4441.948,-22403.137,-11925.369
1512180030,-60.100,3.600,83.800,-48830.000,-181820.000,955260.000,22000.000,172000.000,-348000.000,123.078,201.254,-68.688,-10.697,-9.512,-59.674,-4517.624,-22553.253,-11924.812
1512180030,-13.700,52.300,82.700,-86300.000,-79830.000,949710.000,22000.000,172000.000,-348000.000,134.204,174.023,-66.492,-24.264,-31.096,-89.572,-4407.730,-23115.593,-12076.027
1512180030,52.100,126.000,85.100,-88930.000,-136540.000,1085210.000,26000.000,162000.000,-321000.000,140.590,156.943,-66.457,0.533,-8.972,-38.646,-4257.294,-23002.868,-12227.249
1512180030,-90.500,-203.900,84.000,-13490.000,-53650.000,917420.000,26000.000,162000.000,-321000.000,144.877,141.465,-68.582,-14.628,-21.658,-43.811,-4183.723,-23302.749,-12378.014
1512180030,45.400,141.400,81.400,-88810.000,-163940.000,838990.000,26000.000,162000.000,-321000.000,138.528,152.143,-70.768,-0.046,-5.737,-29.275,-4108.612,-23265.137,-12491.135
1512180030,-24.000,83.100,79.200,-32040.000,-55180.000,1072140.000,26000.000,162000.000,-321000.000,138.000,159.615,-71.284,4.417,-0.902,-11.996,-4148.590,-23827.698,-12378.586
1512180031,108.900,-29.600,71.100,-109560.000,-96800.000,989140.000,14000.000,174000.000,-340000.000,135.377,165.488,-73.969,-20.643,-8.944,-31.924,-4297.501,-23602.928,-12227.196
1512180031,64.700,-17.300,85.200,-117550.000,-91370.000,958620.000,14000.000,174000.000,-340000.000,132.108,175.091,-68.650,1.565,12.576,12.769,-4148.285,-23752.708,-12453.545
1512180031,106.800,45.800,73.000,-92350.000,-98450.000,1082760.000,14000.000,174000.000,-340000.000,137.487,169.765,-71.789,-30.311,-13.482,12.921,-3698.181,-23752.022,-12232.368
1512180031,-50.900,-52.900,75.900,-93440.000,-126280.000,1043520.000,14000.000,174000.000,-340000.000,132.133,161.209,-70.831,-59.532,-28.587,-46.927,-4001.099,-24352.486,-12680.092
1512180031,14.600,-100.900,65.900,-89970.000,-88560.000,900150.000,14000.000,174000.000,-340000.000,132.051,165.473,-65.486,-32.273,-21.592,-55.130,-3773.178,-23752.144,-12231.728
1512180031,137.300,125.600,60.300,-35280.000,-57430.000,1042360.000,26000.000,176000.000,-338000.000,125.683,174.012,-66.614,-8.571,-9.403,9.948,-3623.291,-23751.915,-12458.000
1512180031,53.300,-53.500,62.100,23250.000,-33750.000,999510.000,26000.000,176000.000,-338000.000,130.996,163.341,-65.505,-16.132,5.648,-49.775,-3549.332,-23976.799,-12533.745
1512180031,71.400,-24.500,61.500,-18550.000,-40770.000,981750.000,26000.000,176000.000,-338000.000,101.259,170.784,-72.308,-45.266,-11.014,-66.173,-3700.989,-24352.028,-12457.649
1512180031,93.100,43.500,58.300,-16480.000,-58470.000,1062930.000,26000.000,176000.000,-338000.000,107.553,176.122,-65.802,-25.961,-0.170,16.487,-3775.391,-24202.141,-12606.941
1512180031,50.600,-52.700,60.200,-45470.000,-39860.000,1061160.000,19000.000,169000.000,-328000.000,113.825,165.432,-59.354,-5.764,-14.990,-27.990,-3850.983,-24352.257,-12456.367
1512180031,74.400,-16.000,49.500,-64090.000,-75560.000,995420.000,19000.000,169000.000,-328000.000,112.921,160.105,-70.049,-30.616,-47.458,-58.120,-3625.381,-24201.912,-12608.223
1512180031,96.000,0.700,48.300,-37600.000,-82460.000,947020.000,19000.000,169000.000,-328000.000,112.714,167.563,-56.163,6.585,12.287,9.944,-3250.641,-24276.360,-12461.433
1512180031,125.600,52.600,41.700,-21790.000,-69820.000,959590.000,19000.000,169000.000,-328000.000,111.736,163.301,-61.522,12.596,0.830,-17.232,-3025.421,-24201.012,-12688.316
1512180031,64.700,-15.600,41.500,-72020.000,-79160.000,940860.000,19000.000,169000.000,-328000.000,99.050,157.948,-69.191,-29.382,-27.783,-27.129,-3026.840,-24501.015,-12838.448
1512180031,55.000,36.500,38.700,-25150.000,-77760.000,922420.000,12000.000,165000.000,-328000.000,102.070,163.277,-57.398,8.408,14.299,-58.877,-2952.301,-24575.905,-13064.125
1512180031,62.500,35.600,35.200,-40590.000,-35710.000,985900.000,12000.000,165000.000,-328000.000,83.203,170.761,-76.836,2.292,-2.059,-14.431,-3178.238,-24801.247,-12912.315
1512180031,44.600,-45.100,32.100,-88130.000,-31620.000,945740.000,12000.000,165000.000,-328000.000,88.489,163.286,-74.654,-17.500,-2.595,-0.569,-3026.276,-24351.021,-13063.377
1512180031,53.000,12.800,28.100,-46330.000,-34850.000,968140.000,12000.000,165000.000,-328000.000,100.108,155.817,-68.114,-14.231,13.955,-46.409,-2652.328,-24575.462,-13141.670
1512180031,42.200,-2.900,24.900,-75260.000,-25820.000,942750.000,12000.000,165000.000,-328000.000,83.136,157.941,-72.614,12.807,-9.061,-40.292,-2876.953,-24500.786,-13064.720
1512180031,21.300,-30.400,19.700,-46510.000,-25150.000,954830.000,12000.000,172000.000,-352000.000,84.247,163.284,-75.781,14.614,-44.892,-36.828,-3026.245,-24351.021,-12988.380
1512180031,51.500,39.000,15.000,-57500.000,-60000.000,1005490.000,12000.000,172000.000,-352000.000,84.312,162.222,-80.049,36.870,-19.567,-39.214,-2804.810,-25100.685,-13365.639
1512180031,-5.200,-28.900,19.400,-40470.000,-88130.000,1006040.000,12000.000,172000.000,-352000.000,81.236,161.163,-87.559,15.671,-18.402,-38.153,-2501.663,-24425.224,-13142.876
1512180031,10.000,-33.200,20.800,-40530.000,-18430.000,936520.000,12000.000,172000.000,-352000.000,91.876,151.567,-86.371,47.014,-57.789,-65.298,-2352.142,-24500.008,-13444.191
1512180031,40.200,-4.800,20.100,-730.000,-10250.000,1026060.000,22000.000,176000.000,-355000.000,82.477,161.193,-97.132,43.724,-84.182,-66.524,-2276.398,-24349.892,-13294.762
1512180031,57.000,-42.300,17.600,-18310.000,-45650.000,1008420.000,22000.000,176000.000,-355000.000,84.584,166.529,-96.019,43.144,-84.111,-40.526,-2052.139,-24499.550,-13446.739
1512180031,67.000,-38.600,13.600,-37960.000,-13240.000,967650.000,22000.000,176000.000,-355000.000,96.281,159.065,-94.811,82.270,-72.329,-48.141,-2051.544,-24349.556,-13596.672
1512180031,82.300,-21.000,11.500,-68850.000,31800.000,1015200.000,22000.000,176000.000,-355000.000,94.754,151.598,-99.121,96.477,-56.870,-89.943,-1937.493,-24011.887,-13522.468
1512180031,75.900,-17.200,6.400,-16540.000,24780.000,1045590.000,22000.000,176000.000,-355000.000,84.359,148.406,-115.809,37.047,-86.683,-25.733,-1411.529,-23786.102,-13639.328
1512180031,29.400,-106.000,-3.700,-9160.000,31560.000,981870.000,21000.000,171000.000,-340000.000,109.074,127.576,-96.334,29.460,-71.965,-69.040,-1635.483,-23561.432,-13562.309
1512180031,-3.300,-23.300,-8.000,-21120.000,-33690.000,959530.000,21000.000,171000.000,-340000.000,102.462,125.406,-83.111,90.837,-53.575,-61.054,-733.849,-23222.580,-13344.802
1512180031,-5.900,-58.200,-8.700,-25390.000,-2010.000,986690.000,21000.000,171000.000,-340000.000,86.118,130.742,-93.991,7.755,-73.660,19.311,-620.354,-23034.912,-13045.677
1512180031,3.700,4.300,-14.200,-29240.000,-22280.000,1005620.000,21000.000,171000.000,-340000.000,109.711,116.846,-70.776,31.878,-45.636,-29.896,-280.533,-22546.898,-12785.812
1512180031,-46.300,-61.700,-10.500,-14470.000,-5190.000,972350.000,21000.000,171000.000,-340000.000,106.881,115.216,-61.230,54.816,-74.770,0.719,246.139,-22246.109,-12152.641
1512180031,34.500,-30.200,-14.900,-27470.000,6650.000,963750.000,14000.000,156000.000,-336000.000,108.431,100.263,-58.593,-4.495,-71.221,18.052,472.046,-22095.772,-11704.490
1512180031,5.500,-6.900,-17.800,-40040.000,7750.000,1005130.000,14000.000,156000.000,-336000.000,116.916,79.377,-24.963,44.464,-50.462,-15.207,1036.965,-21607.422,-11259.048
1512180031,-45.000,-37.200,-18.800,-3660.000,23010.000,1001890.000,14000.000,156000.000,-336000.000,109.894,62.268,-19.793,55.759,-68.778,0.878,1375.779,-21381.912,-10661.812
1512180031,12.900,-12.900,-15.300,-25270.000,14950.000,1010930.000,14000.000,156000.000,-336000.000,102.625,69.757,-31.065,54.657,-53.216,30.588,1864.685,-21118.683,-10215.836
1512180031,4.100,-41.500,-18.200,-29970.000,28810.000,955260.000,24000.000,167000.000,-350000.000,98.447,69.226,-36.458,61.140,-16.433,9.764,1638.802,-21381.523,-9614.051
1512180032,24.500,-6.700,-29.800,6230.000,-8670.000,969670.000,24000.000,167000.000,-350000.000,63.405,83.072,-44.381,112.724,-21.578,38.339,1565.643,-21044.136,-8975.761
1512180032,-23.000,-49.700,-36.600,18740.000,10070.000,968140.000,24000.000,167000.000,-350000.000,50.653,81.991,-46.701,136.069,-0.268,56.036,1865.982,-20968.681,-8978.279
1512180032,-7.900,-36.200,-39.400,-4030.000,37780.000,946410.000,24000.000,167000.000,-350000.000,25.437,81.994,-69.455,87.218,-23.798,75.813,2167.297,-20668.236,-9055.687
1512180032,28.500,-3.200,-50.700,-20020.000,46260.000,995420.000,24000.000,167000.000,-350000.000,19.218,77.735,-80.220,44.180,-63.587,28.852,2166.550,-20818.230,-9205.757
1512180032,19.800,8.500,-48.200,-51150.000,13490.000,1015200.000,24000.000,153000.000,-350000.000,31.802,64.911,-68.356,71.253,-47.363,46.321,2467.102,-20742.775,-8758.278
1512180032,-18.500,-58.300,-56.700,-15500.000,45170.000,969970.000,24000.000,153000.000,-350000.000,52.982,54.251,-59.554,103.623,-21.967,-46.635,2618.271,-20517.555,-8459.450
1512180032,34.000,24.400,-59.400,-38150.000,44560.000,1008240.000,24000.000,153000.000,-350000.000,31.515,53.128,-51.343,111.951,-39.258,-50.338,2768.005,-20592.323,-8310.753
1512180032,2.700,-91.200,-67.400,-36320.000,77510.000,970030.000,24000.000,153000.000,-350000.000,51.543,42.450,-38.298,169.974,-28.920,-10.991,2617.401,-20742.546,-8159.554
1512180032,41.500,36.500,-61.000,-58040.000,65000.000,991820.000,24000.000,153000.000,-350000.000,42.175,28.572,-53.410,158.234,-6.568,-53.262,2391.129,-21042.885,-8007.774
1512180032,-14.900,-69.200,-61.000,-78370.000,108700.000,1028870.000,26000.000,137000.000,-335000.000,24.040,24.280,-51.550,81.999,-37.959,-59.858,2615.494,-21192.558,-7934.761
1512180032,6.800,-81.000,-69.900,13120.000,48400.000,941710.000,26000.000,137000.000,-335000.000,8.184,32.817,-59.212,102.986,-42.458,-20.426,2841.507,-20967.216,-7936.562
1512180032,4.900,-3.100,-67.500,-15810.000,35220.000,953980.000,26000.000,137000.000,-335000.000,-9.779,43.485,-69.033,74.690,-38.778,57.327,2837.936,-21792.213,-7636.955
1512180032,-35.700,-64.200,-67.200,-670.000,50660.000,949710.000,26000.000,137000.000,-335000.000,-2.492,38.138,-58.283,33.011,-34.469,17.962,2839.890,-21342.216,-7786.751
1512180032,97.500,55.500,-70.400,-25510.000,60420.000,1036680.000,14000.000,160000.000,-340000.000,-0.428,31.720,-55.080,-0.053,-78.869,22.676,2613.174,-21717.552,-7860.008
1512180032,-55.700,-126.000,-71.800,-21850.000,62260.000,999330.000,14000.000,160000.000,-340000.000,-3.791,30.631,-44.469,29.550,-26.098,20.925,2685.211,-22392.448,-7710.945
1512180032,76.200,12.300,-73.200,-26860.000,80080.000,1057920.000,14000.000,160000.000,-340000.000,0.359,26.350,-38.029,64.911,-31.280,29.001,2161.514,-22093.239,-7781.349
1512180032,-19.300,-70.400,-75.900,-22520.000,71720.000,1045040.000,14000.000,160000.000,-340000.000,9.767,14.593,-27.273,66.289,-57.290,-45.513,2612.534,-21867.561,-7785.072
1512180032,20.900,-36.200,-78.700,-36190.000,32590.000,976620.000,14000.000,160000.000,-340000.000,-24.474,34.815,-19.173,74.972,0.243,66.485,2462.158,-21942.787,-7858.833
1512180032,-14.200,-26.900,-81.200,23990.000,37410.000,1004330.000,14000.000,149000.000,-326000.000,-22.113,33.778,-33.001,60.355,15.204,-17.350,2309.311,-22543.022,-8157.829
1512180032,-34.000,-19.600,-87.100,6470.000,48830.000,1008120.000,14000.000,149000.000,-326000.000,-39.183,39.090,-32.164,96.839,-11.598,20.993,2459.274,-22542.793,-8234.108
1512180032,-55.800,-48.700,-79.900,21120.000,33200.000,981810.000,14000.000,149000.000,-326000.000,-48.552,42.311,-45.079,115.073,-25.331,33.734,2609.863,-22392.570,-8385.307
1512180032,43.900,35.200,-88.400,27530.000,79220.000,1043640.000,14000.000,149000.000,-326000.000,-34.736,30.580,-42.786,47.941,-41.802,6.777,2610.352,-22317.558,-8085.274
1512180032,5.600,-16.500,-91.300,9220.000,68850.000,1091800.000,14000.000,149000.000,-326000.000,-28.575,30.559,-28.840,33.279,-53.711,-20.165,2610.199,-22317.558,-8385.277
1512180032,-34.100,-8.700,-94.500,-40530.000,81970.000,1021120.000,15000.000,158000.000,-318000.000,-13.505,30.595,-38.218,35.259,-46.495,4.078,2383.179,-22767.906,-8383.583
1512180032,-31.000,24.000,-98.800,-18490.000,52310.000,986510.000,15000.000,158000.000,-318000.000,1.839,11.918,-31.662,13.872,-98.154,-25.448,2346.718,-22542.961,-8345.650
1512180032,-41.300,15.600,-104.100,-6290.000,37480.000,1018620.000,15000.000,158000.000,-318000.000,3.199,25.240,-16.672,-11.260,-69.317,14.190,2533.104,-22767.685,-8534.844
1512180032,-43.900,-74.700,-108.800,-15010.000,24960.000,898800.000,15000.000,158000.000,-318000.000,4.682,19.356,-9.740,6.165,-70.124,12.889,2080.803,-23255.867,-8756.241
1512180032,8.400,61.700,-112.000,-45590.000,68910.000,965210.000,19000.000,172000.000,-301000.000,-5.559,34.278,-2.376,-5.995,-57.377,41.566,2231.659,-23068.138,-8719.932
1512180032,-111.100,-96.500,-119.700,-18980.000,54320.000,941470.000,19000.000,172000.000,-301000.000,-12.051,27.847,2.837,17.096,-43.133,20.817,2156.830,-23030.747,-8719.276
1512180032,-31.000,42.300,-121.000,-18490.000,38450.000,931820.000,19000.000,172000.000,-301000.000,-1.952,18.253,5.086,40.075,-40.570,7.753,2267.563,-23405.578,-8870.407
1512180032,-85.400,-37.800,-126.000,-4880.000,17400.000,999940.000,19000.000,172000.000,-301000.000,1.381,6.519,-4.505,23.967,-34.336,-53.287,2117.661,-23368.309,-9019.111
1512180032,-37.800,48.200,-135.600,12080.000,13490.000,978270.000,19000.000,172000.000,-301000.000,-6.631,8.110,-3.014,49.536,-26.454,-38.711,2119.187,-23030.808,-9018.951
1512180032,-55.000,20.200,-136.100,-7140.000,30940.000,1040590.000,19000.000,169000.000,-304000.000,-2.760,4.929,-11.497,52.050,-0.408,-59.709,2192.398,-23443.191,-8869.789
1512180032,-90.700,-20.400,-130.600,23740.000,33140.000,994570.000,19000.000,169000.000,-304000.000,-14.858,12.409,-20.707,26.101,-16.698,-23.397,2342.849,-23330.467,-8983.505
1512180032,-37.800,32.400,-139.400,49440.000,68240.000,1023560.000,19000.000,169000.000,-304000.000,-6.529,9.192,-8.871,54.981,-3.389,12.414,2530.372,-23330.185,-8947.609
1512180032,-17.200,-13.600,-126.000,6900.000,79530.000,971440.000,19000.000,169000.000,-304000.000,-18.741,12.380,-12.237,2.771,-27.703,9.053,2305.352,-23330.520,-8983.184
1512180032,8.700,19.300,-136.200,-8420.000,77640.000,1042720.000,29000.000,172000.000,-314000.000,-2.525,13.970,6.659,28.121,-28.634,13.027,2231.026,-23180.641,-8982.483
1512180033,-41.100,-27.300,-130.400,-33020.000,97530.000,1010500.000,29000.000,172000.000,-314000.000,-10.142,19.814,16.163,7.828,-17.294,7.352,2003.418,-23743.477,-9130.836
1512180033,-48.200,-29.200,-128.600,-24540.000,70800.000,1025090.000,29000.000,172000.000,-314000.000,4.522,12.333,32.344,30.073,-39.217,-0.336,2380.478,-23292.915,-9058.800
1512180033,-2.900,-30.800,-133.700,6350.000,63720.000,1050600.000,29000.000,172000.000,-314000.000,35.217,4.878,45.556,62.530,-34.259,-100.488,2154.312,-23518.257,-9357.002
1512180033,62.600,0.700,-137.300,-12450.000,55970.000,1094790.000,29000.000,172000.000,-314000.000,1.231,25.128,37.667,69.228,-46.780,-57.198,1928.345,-23743.584,-9280.190
1512180033,-19.000,-67.600,-147.900,41140.000,12210.000,985410.000,31000.000,163000.000,-336000.000,15.117,24.090,36.802,107.281,-22.185,21.337,2306.717,-22993.019,-9283.043
1512180033,71.800,-5.900,-150.100,29850.000,63900.000,1018370.000,31000.000,163000.000,-336000.000,33.251,-6.862,33.755,65.147,-20.988,-121.578,2380.707,-23217.903,-9283.775
1512180033,32.200,-46.700,-153.300,-30030.000,57130.000,949710.000,31000.000,163000.000,-336000.000,-15.647,5.896,25.628,17.475,-15.550,-82.364,2004.059,-23593.483,-9205.757
1512180033,61.300,-1.700,-151.500,-50350.000,92040.000,953060.000,31000.000,163000.000,-336000.000,11.016,4.870,24.945,47.301,8.856,42.568,2154.022,-23593.254,-9282.036
1512180033,44.700,12.500,-157.700,-35460.000,111940.000,972110.000,31000.000,163000.000,-336000.000,14.337,-15.405,16.393,15.065,-29.827,-92.876,2154.617,-23443.245,-9431.969
1512180033,17.700,28.200,-159.100,4700.000,106810.000,942140.000,31000.000,160000.000,-326000.000,-17.683,12.314,20.291,18.078,-58.832,-26.999,2379.059,-23592.918,-9208.946
1512180033,-4.400,35.600,-157.100,-32840.000,107360.000,948670.000,31000.000,160000.000,-326000.000,16.622,13.460,9.067,36.772,40.318,32.102,2305.664,-23218.025,-9358.131
1512180033,28.400,41.100,-162.700,33570.000,110660.000,1039370.000,31000.000,160000.000,-326000.000,25.177,-13.228,5.898,-10.119,-17.168,-106.751,2005.478,-23293.480,-9055.626
1512180033,-6.100,-8.700,-167.000,-42910.000,65060.000,1000430.000,31000.000,160000.000,-326000.000,34.594,-22.845,16.664,40.748,-52.037,-98.147,2155.518,-23218.254,-9656.868
1512180033,-23.800,-4.300,-166.200,120.000,96010.000,959290.000,24000.000,156000.000,-313000.000,41.029,-20.693,14.633,52.365,-3.419,-20.838,2153.229,-23743.248,-9507.103
1512180033,141.800,99.100,-167.900,-32780.000,153870.000,1053890.000,24000.000,156000.000,-313000.000,33.730,-28.165,3.839,13.788,-30.537,-71.196,2305.099,-23368.019,-9133.202
1512180033,-32.200,-72.800,-181.600,14040.000,59200.000,949650.000,24000.000,156000.000,-313000.000,11.217,-17.532,12.079,-20.492,-67.985,-15.248,1929.688,-23443.581,-9280.052
1512180033,53.400,71.900,-178.400,-8670.000,71590.000,1016660.000,24000.000,156000.000,-313000.000,17.638,-3.635,11.154,39.235,16.703,80.908,2379.807,-23442.909,-9058.876
1512180033,-7.600,18.400,-182.700,-18620.000,111450.000,1113890.000,24000.000,156000.000,-313000.000,24.379,-15.331,-10.110,8.970,-5.473,-69.167,2153.946,-23593.254,-9432.030
1512180033,-63.100,-69.500,-185.500,4390.000,51820.000,1004150.000,12000.000,130000.000,-318000.000,-3.119,-4.668,-23.265,22.235,-48.183,-59.220,2079.651,-23443.367,-9356.331
1512180033,9.600,34.800,-184.800,-7080.000,56090.000,1033630.000,12000.000,130000.000,-318000.000,-7.379,-21.765,-24.453,-5.045,-50.406,-13.627,1929.321,-23518.593,-9355.095
1512180033,-35.000,-16.200,-189.000,-18920.000,84840.000,1004030.000,12000.000,130000.000,-318000.000,10.827,-33.473,-29.558,-15.827,21.317,-17.924,2154.022,-23593.254,-9282.036
1512180033,8.400,13.000,-191.700,-21730.000,84050.000,947080.000,12000.000,130000.000,-318000.000,-11.494,-37.774,-34.162,-74.235,-7.231,21.807,2081.375,-23068.367,-9281.151
1512180033,13.800,8.500,-197.900,-10310.000,71530.000,969970.000,12000.000,130000.000,-318000.000,3.220,-35.639,-21.148,35.824,-42.372,111.158,2153.748,-23668.251,-9132.072
1512180033,30.400,63.300,-204.100,12270.000,69890.000,1024230.000,26000.000,144000.000,-338000.000,36.307,-68.695,-25.048,27.602,-32.553,-35.147,2380.142,-23367.912,-9058.846
1512180033,12.400,49.100,-211.100,21850.000,60970.000,1002140.000,26000.000,144000.000,-338000.000,8.257,-53.823,-4.081,11.637,-82.774,-97.194,2230.774,-23218.132,-9132.500
1512180033,24.000,58.100,-213.900,6470.000,79280.000,1058350.000,26000.000,144000.000,-338000.000,3.164,-20.692,-16.832,66.709,21.382,78.997,2380.859,-23217.903,-8983.772
1512180033,-45.700,0.700,-213.600,5550.000,28440.000,1046140.000,26000.000,144000.000,-338000.000,28.666,-30.275,-12.232,34.234,-43.861,-45.902,2043.732,-23143.410,-8905.869
1512180033,-24.500,42.600,-196.300,44490.000,47970.000,1030210.000,21000.000,135000.000,-330000.000,30.763,-7.846,-8.925,59.072,-11.301,-5.767,2006.058,-23180.977,-8905.571
1512180033,3.300,42.600,-170.700,22220.000,73180.000,1005250.000,21000.000,135000.000,-330000.000,26.371,-12.678,-2.079,24.676,-32.927,-44.037,2157.242,-22918.244,-8906.723
1512180033,-58.700,45.900,-203.300,48650.000,57980.000,1000730.000,21000.000,135000.000,-330000.000,19.695,-10.521,-17.092,20.540,-15.049,-31.716,1894.104,-23068.641,-8829.567
1512180033,-33.600,37.400,-228.200,27590.000,76170.000,1020450.000,21000.000,135000.000,-330000.000,6.127,-6.829,-1.816,23.482,-20.197,-6.566,1930.572,-23293.587,-8867.485
1512180033,-6.500,31.800,-223.300,4820.000,126100.000,986820.000,21000.000,135000.000,-330000.000,3.338,-14.327,5.046,79.609,-29.700,-69.613,1705.612,-23293.922,-8790.573
1512180033,1.100,34.600,-189.200,24780.000,131100.000,1043700.000,17000.000,121000.000,-336000.000,-6.655,0.093,-2.512,74.197,-15.168,-8.516,1630.775,-23256.538,-8789.917
1512180033,-15.800,-24.500,-214.900,-33940.000,88380.000,928530.000,17000.000,121000.000,-336000.000,2.936,-20.719,-2.977,37.877,-21.698,-39.468,1630.082,-23406.540,-8827.484
1512180033,61.900,78.800,-206.700,-29360.000,165590.000,938170.000,17000.000,121000.000,-336000.000,-8.845,-18.009,-31.921,-27.049,-25.056,-2.843,1744.118,-23068.863,-8790.787
1512180033,71.900,57.100,-233.400,-66220.000,132690.000,1004460.000,17000.000,121000.000,-336000.000,-5.551,-23.398,-5.775,-61.683,-58.666,28.306,1555.924,-23219.147,-8826.767
1512180033,-10.000,41.700,-240.200,-49500.000,127440.000,952820.000,17000.000,121000.000,-336000.000,26.120,-39.408,12.218,20.048,-30.026,3.373,1369.179,-23069.427,-8675.094
1512180033,36.900,129.800,-239.400,-97050.000,125980.000,1071660.000,5000.000,105000.000,-318000.000,14.921,-33.553,12.608,45.105,-42.215,11.333,1330.460,-23331.986,-8749.900
1512180034,-71.100,-25.300,-245.300,-29720.000,157350.000,1049990.000,5000.000,105000.000,-318000.000,14.794,-30.298,-11.367,28.681,-52.465,41.555,1106.003,-23219.826,-8672.935
1512180034,-29.600,53.300,-250.700,-31130.000,155760.000,1043950.000,5000.000,105000.000,-318000.000,37.150,-37.745,-10.003,21.867,-5.944,12.471,1331.345,-23144.493,-8674.812
1512180034,-64.300,-7.900,-259.400,-4520.000,79470.000,1007020.000,5000.000,105000.000,-318000.000,36.083,-49.500,-11.128,28.142,-22.293,-14.028,1027.847,-23894.936,-8897.621
1512180034,5.300,91.900,-254.600,-37720.000,65730.000,933590.000,28000.000,135000.000,-309000.000,24.275,-46.323,-5.958,74.238,-6.868,7.482,1102.661,-23969.826,-8598.289
1512180034,38.600,58.100,-262.300,-41380.000,80440.000,1017460.000,28000.000,135000.000,-309000.000,35.176,-54.821,-20.753,37.877,-21.731,14.347,1105.362,-23369.820,-8598.000
1512180034,3.300,74.700,-262.900,-30700.000,-14470.000,979370.000,28000.000,135000.000,-309000.000,22.460,-48.423,-25.180,-1.037,-54.756,-14.956,1254.425,-23594.597,-8449.394
1512180034,-4.100,95.700,-261.900,-5370.000,86120.000,1035770.000,28000.000,135000.000,-309000.000,18.173,-38.818,-23.075,8.024,-78.141,8.454,1104.996,-23519.814,-7998.085
1512180034,-12.800,24.100,-267.100,-55110.000,68790.000,941160.000,28000.000,135000.000,-309000.000,19.167,-29.208,-17.695,13.913,-43.888,18.148,1478.943,-23744.255,-8076.378
1512180034,-54.200,4.100,-268.000,-51570.000,147030.000,951840.000,1000.000,126000.000,-318000.000,30.682,-30.291,-5.809,29.509,-57.495,9.177,1403.870,-23744.377,-8225.731
1512180034,43.500,109.100,-270.400,-99790.000,166380.000,1076600.000,1000.000,126000.000,-318000.000,26.421,-29.228,-5.867,13.751,-51.231,-47.532,1104.309,-23669.823,-7998.161
1512180034,-104.900,-34.000,-268.700,-111880.000,96070.000,980410.000,1000.000,126000.000,-318000.000,29.463,-24.970,3.787,38.710,-38.547,-53.407,1103.943,-23744.820,-8073.189
1512180034,-4.400,53.700,-266.800,-71900.000,138370.000,1002200.000,1000.000,126000.000,-318000.000,25.101,-21.782,10.132,89.037,-16.836,-44.252,1029.541,-23594.933,-8222.481
1512180034,-62.900,8.800,-272.300,-103880.000,116700.000,1026000.000,0.000,121000.000,-309000.000,14.544,-19.652,3.589,82.741,10.468,15.741,1026.840,-24194.939,-8222.755
1512180034,-12.900,5.100,-276.700,-89780.000,96620.000,984130.000,0.000,121000.000,-309000.000,16.814,-31.378,-4.946,30.030,-15.702,-37.603,1179.199,-23669.716,-8223.793
1512180034,-13.600,33.300,-272.800,-70860.000,99490.000,1065670.000,0.000,121000.000,-309000.000,-5.454,-22.852,-11.635,26.108,-27.571,-0.374,1177.887,-23969.719,-8148.933
1512180034,-72.200,-59.900,-277.500,-57980.000,74890.000,983220.000,0.000,121000.000,-309000.000,-16.179,-11.130,-7.487,45.471,-6.699,41.474,1104.019,-23744.820,-7923.180
1512180034,13.000,52.900,-280.300,-9400.000,92470.000,1028020.000,0.000,121000.000,-309000.000,-22.364,-8.979,-20.362,36.332,-3.977,50.069,1253.220,-23894.600,-8149.529
1512180034,-47.300,5.600,-277.500,-74650.000,58960.000,998840.000,5000.000,105000.000,-308000.000,-4.318,-23.910,-15.886,23.053,-53.974,-19.615,953.079,-23970.055,-7772.026
1512180034,-17.600,12.100,-274.600,-65800.000,121950.000,985470.000,5000.000,105000.000,-308000.000,-12.858,-11.110,-14.901,30.516,-24.198,44.176,877.060,-24195.168,-7771.492
1512180034,48.900,23.300,-264.200,-83740.000,101750.000,985350.000,5000.000,105000.000,-308000.000,23.231,-30.296,-5.914,60.784,-11.479,13.824,1024.216,-24794.945,-8073.036
1512180034,36.900,-1.200,-264.200,-33330.000,121520.000,995480.000,5000.000,105000.000,-308000.000,22.162,-36.706,-5.952,49.035,-63.446,-73.871,1176.315,-24344.719,-7924.095
1512180034,76.700,32.100,-264.500,-49190.000,96010.000,1004520.000,5000.000,105000.000,-308000.000,12.686,-32.438,-13.539,11.059,-56.058,-28.797,953.003,-23970.055,-7922.020
1512180034,-32.600,-36.800,-268.400,-48030.000,68120.000,960390.000,-15000.000,95000.000,-324000.000,2.034,-26.044,-13.671,3.689,-34.508,8.229,1250.870,-24419.594,-8149.773
1512180034,47.400,56.100,-264.200,-68360.000,86550.000,1015260.000,-15000.000,95000.000,-324000.000,-8.767,-26.079,-5.300,20.223,-72.377,3.480,1475.525,-24494.270,-8151.726
1512180034,-58.500,-26.000,-264.500,-30460.000,80690.000,1001830.000,-15000.000,95000.000,-324000.000,-22.654,-16.485,-2.266,55.918,-20.091,62.006,1852.966,-23968.697,-8004.662
1512180034,-50.600,-6.700,-265.400,-45840.000,109920.000,989010.000,-15000.000,95000.000,-324000.000,-2.507,-21.812,3.335,65.429,-72.533,12.886,1852.966,-23968.697,-8004.662
1512180034,-32.900,10.400,-270.200,-11470.000,80140.000,1039730.000,0.000,89000.000,-323000.000,-7.758,-19.672,-0.996,88.792,-44.118,-3.336,1850.357,-24531.204,-8154.923
1512180034,-43.100,-1.100,-266.000,-59630.000,49990.000,960450.000,0.000,89000.000,-323000.000,27.721,-41.950,-52.797,-25.091,-15.696,-33.191,1548.805,-24869.155,-8227.532
1512180034,48.700,40.600,-263.100,-71960.000,106380.000,1022770.000,0.000,89000.000,-323000.000,21.115,-39.316,-40.092,-38.374,-21.517,-24.556,1889.191,-24231.140,-8192.604
1512180034,1.500,-46.300,-265.500,-83800.000,84470.000,999760.000,0.000,89000.000,-323000.000,-15.066,-26.012,-43.234,22.823,-8.832,22.713,2001.602,-24230.972,-8381.058
1512180034,27.300,9.300,-263.400,-63230.000,108890.000,975830.000,0.000,89000.000,-323000.000,-21.712,-20.177,-27.853,53.406,-6.612,64.195,2037.972,-24493.423,-8269.005
1512180034,-20.800,-31.300,-254.100,-76110.000,108830.000,919370.000,0.000,79000.000,-313000.000,-17.503,-28.720,-24.622,35.400,-17.059,-6.804,2226.616,-24230.637,-8345.474
1512180034,18.600,8.700,-246.900,-82950.000,106380.000,988160.000,0.000,79000.000,-313000.000,-24.415,-3.099,-25.169,43.196,-12.123,45.611,2038.109,-24455.925,-8343.986
1512180034,64.200,-4.700,-246.600,-53530.000,117860.000,1002810.000,0.000,79000.000,-313000.000,-35.614,-6.854,-24.811,-55.726,-71.797,32.008,2075.630,-24418.373,-8644.287
1512180034,77.600,26.000,-246.300,-75930.000,118470.000,1042720.000,0.000,79000.000,-313000.000,-27.387,-5.806,-6.030,10.796,-21.011,70.088,2413.933,-24230.362,-8722.061
1512180034,-29.800,-39.300,-242.600,-74830.000,69820.000,971620.000,0.000,79000.000,-313000.000,7.535,-26.614,8.261,44.750,-9.110,-51.510,2525.490,-24417.702,-8910.598
1512180034,16.200,9.300,-238.400,-65800.000,95640.000,999880.000,-8000.000,74000.000,-318000.000,10.379,-31.929,-2.910,43.943,-0.779,-74.861,2676.521,-24192.467,-8874.275
1512180034,27.300,-30.600,-233.200,-57190.000,43580.000,992740.000,-8000.000,74000.000,-318000.000,19.188,-42.562,-20.410,-0.736,-13.449,-79.887,2526.863,-24117.699,-8872.970
1512180035,28.600,19.200,-234.400,6290.000,50900.000,1017270.000,-8000.000,74000.000,-318000.000,5.408,-33.500,-25.378,-48.152,-26.736,-21.126,2602.112,-24042.580,-9061.058
1512180035,-2.300,-15.000,-222.800,-29420.000,40410.000,998110.000,-8000.000,74000.000,-318000.000,6.589,-28.134,-30.666,-56.822,-50.427,18.755,3052.399,-23966.911,-9139.854
1512180035,-41.300,-48.500,-217.400,-35950.000,71410.000,958920.000,-15000.000,81000.000,-341000.000,15.953,-40.975,-18.855,-68.189,-34.767,-1.639,2828.949,-23592.232,-9437.767
1512180035,95.200,12.000,-211.500,-36320.000,103700.000,1003600.000,-15000.000,81000.000,-341000.000,13.655,-43.130,-8.232,-35.349,-19.678,16.577,2827.362,-23967.247,-9212.944
1512180035,42.700,2.000,-203.600,-67020.000,66350.000,992070.000,-15000.000,81000.000,-341000.000,32.669,-47.390,2.691,14.431,-0.264,-21.222,2829.086,-23592.232,-9137.779
1512180035,29.400,2.400,-203.100,-9700.000,36990.000,989320.000,-15000.000,81000.000,-341000.000,27.169,-49.560,12.196,67.742,0.838,-21.613,2903.870,-23667.122,-8913.445
1512180035,48.700,20.900,-194.900,-13180.000,13550.000,976200.000,-15000.000,81000.000,-341000.000,31.500,-51.682,7.986,86.602,2.441,-31.718,2678.452,-23742.470,-9061.562
1512180035,23.000,-1.900,-193.100,-3910.000,-2200.000,1011110.000,-14000.000,72000.000,-326000.000,24.259,-47.392,-4.895,79.570,16.247,-36.533,2681.488,-23067.467,-9061.256
1512180035,24.400,27.600,-185.200,-76970.000,18370.000,995000.000,-14000.000,72000.000,-326000.000,14.736,-37.788,-9.266,51.576,9.986,-23.627,2380.219,-23367.912,-8908.852
1512180035,-30.100,-87.500,-172.400,-51150.000,36740.000,930910.000,-14000.000,72000.000,-326000.000,-1.072,-26.037,-19.045,18.982,14.322,22.361,2830.780,-23217.232,-9137.596
1512180035,70.800,95.900,-169.600,-43270.000,121400.000,1046080.000,-14000.000,72000.000,-326000.000,-15.973,-17.514,-20.299,-4.901,-6.335,32.868,2605.820,-23217.567,-9060.677
1512180035,-32.600,-50.200,-168.200,-67320.000,56270.000,1009830.000,-14000.000,72000.000,-326000.000,-18.206,-12.188,-13.916,8.118,14.178,57.468,2830.551,-23292.229,-8912.636
1512180035,20.200,-29.000,-170.400,-49620.000,117680.000,999510.000,-12000.000,56000.000,-335000.000,-23.605,-10.069,-9.723,-0.526,39.056,21.069,2606.232,-23142.570,-8910.652
1512180035,64.300,67.600,-167.600,-89660.000,96010.000,1052190.000,-12000.000,56000.000,-335000.000,-29.080,-16.504,-1.296,-20.107,26.846,52.426,2606.567,-23067.574,-8910.622
1512180035,-78.300,-90.500,-165.500,-39490.000,33810.000,923580.000,-12000.000,56000.000,-335000.000,-17.555,-26.123,10.564,-25.533,23.058,3.750,2604.538,-23517.570,-8910.835
1512180035,3.500,87.000,-158.200,-45530.000,56880.000,947390.000,-12000.000,56000.000,-335000.000,9.773,-29.329,34.404,15.269,-31.824,-59.012,2381.561,-23067.909,-8908.714
1512180035,-30.600,-24.400,-158.100,-20450.000,53590.000,1039980.000,-24000.000,61000.000,-326000.000,-3.988,-12.251,28.932,56.129,45.938,-35.327,2154.099,-23593.254,-9132.042
1512180035,-14.100,-76.000,-149.800,-46140.000,49440.000,971920.000,-24000.000,61000.000,-326000.000,-32.537,0.553,15.772,19.574,39.090,2.885,2230.820,-23218.132,-9057.503
1512180035,50.600,112.800,-143.500,-47000.000,59330.000,1048030.000,-24000.000,61000.000,-326000.000,-10.252,-2.632,21.412,52.134,19.670,-47.882,2154.053,-23593.254,-9207.039
1512180035,-68.800,-102.400,-144.200,-67570.000,45350.000,1030330.000,-24000.000,61000.000,-326000.000,-25.086,1.620,14.810,-0.402,20.800,-46.255,1853.348,-23743.706,-9279.564
1512180035,-112.700,-43.000,-133.800,46570.000,25510.000,920230.000,-24000.000,61000.000,-326000.000,-18.726,1.632,18.105,9.966,15.439,-51.997,2007.172,-22918.465,-9055.443
1512180035,-83.200,77.500,-137.300,-7690.000,-21970.000,1029970.000,-14000.000,44000.000,-330000.000,-27.124,-1.566,10.512,-19.545,-11.829,0.288,2382.919,-22767.906,-8908.577
1512180035,-197.900,-135.000,-133.700,21480.000,-48160.000,947940.000,-14000.000,44000.000,-330000.000,-16.607,-1.567,19.193,6.436,21.539,4.119,2156.937,-22918.251,-9506.721
1512180035,30.100,139.400,-130.100,56150.000,-28870.000,1083130.000,-14000.000,44000.000,-330000.000,2.333,-16.523,33.273,30.251,20.067,-54.419,2306.381,-23068.031,-9283.073
1512180035,-112.100,-47.400,-127.800,-32590.000,-84290.000,1093320.000,-14000.000,44000.000,-330000.000,-6.094,-22.933,26.732,29.816,16.532,-111.482,1928.146,-23743.584,-9655.190
1512180035,-117.800,-171.500,-113.200,4520.000,-25270.000,862060.000,-12000.000,45000.000,-308000.000,-24.001,-15.460,13.704,-59.662,-21.836,-16.614,2081.268,-23068.367,-9506.157
1512180035,52.100,259.500,-106.500,-13790.000,6960.000,1102360.000,-12000.000,45000.000,-308000.000,0.771,-17.592,30.580,-19.601,-28.861,-13.255,2008.110,-22655.968,-9542.824
1512180035,-177.500,-141.800,-110.000,-10860.000,-61520.000,1055050.000,-12000.000,45000.000,-308000.000,1.325,-26.134,28.959,-31.407,-22.169,-29.737,1819.122,-22993.752,-9466.392
1512180035,30.900,45.100,-102.000,37780.000,-34970.000,843440.000,-12000.000,45000.000,-308000.000,10.399,-29.856,28.012,-24.799,-0.256,-14.475,1669.586,-22918.976,-9202.583
1512180035,29.700,132.900,-98.100,-60300.000,1220.000,1038090.000,-12000.000,45000.000,-308000.000,8.704,-37.344,33.826,14.833,-1.078,-18.235,1931.077,-23106.087,-9542.396
1512180035,-139.200,-132.800,-94.900,-27530.000,14830.000,936950.000,-49000.000,47000.000,-306000.000,18.170,-42.155,40.874,74.197,43.034,-24.663,1818.374,-23143.753,-9616.463
1512180035,73.900,160.500,-85.200,-61710.000,10440.000,1037050.000,-49000.000,47000.000,-306000.000,-10.816,-39.492,20.740,-5.663,19.731,15.954,1406.830,-22956.871,-9387.871
1512180035,-132.000,13.300,-82.000,-31370.000,-78550.000,1069520.000,-49000.000,47000.000,-306000.000,-7.156,-36.824,25.066,-35.205,-2.626,28.958,1293.480,-23144.539,-9386.993
1512180035,-39.800,-19.400,-72.800,47420.000,-43580.000,925420.000,-49000.000,47000.000,-306000.000,-13.836,-30.991,43.114,21.424,21.892,26.772,1445.343,-22731.811,-9388.084
1512180035,70.700,152.900,-61.800,-33510.000,-97350.000,1067500.000,-49000.000,47000.000,-306000.000,-23.369,-34.735,39.233,42.194,45.483,-7.798,1106.354,-23032.326,-9647.850
1512180035,-108.300,-36.400,-63.800,60420.000,-113590.000,1033570.000,-49000.000,47000.000,-313000.000,-40.771,-20.859,27.832,38.904,51.020,52.763,993.164,-23182.487,-9684.463
1512180035,22.900,136.100,-47.800,26180.000,-49070.000,989690.000,-49000.000,47000.000,-313000.000,-48.645,-17.651,20.800,9.872,14.147,41.625,1143.425,-23107.262,-9835.701
1512180035,-98.700,22.800,-42.200,5130.000,-59510.000,1060910.000,-49000.000,47000.000,-313000.000,-37.025,-21.383,27.354,26.138,20.062,26.838,880.699,-23145.156,-9945.992
1512180036,-104.300,-47.100,-30.500,-16300.000,-36560.000,978760.000,-49000.000,47000.000,-313000.000,-14.731,-34.714,31.892,4.797,11.167,-43.081,732.086,-22845.375,-9869.576
1512180036,-43.300,45.900,-20.200,-15320.000,-49500.000,990780.000,-40000.000,56000.000,-318000.000,-11.691,-38.999,41.517,28.910,-0.595,-73.548,1107.208,-22769.814,-10322.716
1512180036,-50.900,-3.300,-14.900,16480.000,-18370.000,983090.000,-40000.000,56000.000,-318000.000,-35.210,-25.155,46.556,59.198,41.062,1.943,654.800,-23295.494,-10394.142
1512180036,9.900,56.600,-7.200,-16420.000,-28020.000,970150.000,-40000.000,56000.000,-318000.000,-40.323,-23.000,33.698,24.272,22.748,13.735,730.255,-23220.390,-10169.746
1512180036,-56.200,-22.900,0.400,33570.000,-41140.000,966000.000,-40000.000,56000.000,-318000.000,-57.344,-24.090,31.315,-37.247,-2.246,33.663,654.236,-23445.503,-10169.212
1512180036,13.000,55.000,8.300,51270.000,-39610.000,1035400.000,-40000.000,56000.000,-318000.000,-61.522,-12.335,27.032,0.255,16.004,59.978,654.800,-23295.494,-10394.142
1512180036,-65.800,-78.600,18.600,-20630.000,-55420.000,935610.000,-49000.000,44000.000,-313000.000,-47.612,-21.924,22.934,-4.997,8.832,58.330,806.152,-22995.262,-10395.287
1512180036,-98.300,39.800,33.000,64580.000,-54140.000,978880.000,-49000.000,44000.000,-313000.000,-33.999,-37.955,36.934,-12.269,1.838,-3.041,429.092,-23445.839,-10467.293
1512180036,5.100,182.700,46.900,-15080.000,-98690.000,1165100.000,-49000.000,44000.000,-313000.000,-26.662,-36.891,44.506,32.016,18.323,17.188,430.923,-23070.839,-10167.122
1512180036,-221.800,-195.500,47.900,105770.000,-96620.000,974980.000,-49000.000,44000.000,-313000.000,-0.014,-56.077,43.759,57.742,26.080,13.995,507.797,-22620.720,-10467.552
1512180036,50.200,227.000,58.100,107910.000,-194520.000,1008240.000,-42000.000,51000.000,-302000.000,5.208,-67.834,49.122,10.296,-8.883,-77.231,505.890,-23070.717,-10242.775
1512180036,-75.500,-96.100,57.000,66040.000,-63290.000,1072140.000,-42000.000,51000.000,-302000.000,-10.811,-52.905,52.142,62.733,15.416,23.784,581.223,-22995.613,-10243.370
1512180036,20.600,53.400,74.300,20570.000,-72810.000,951350.000,-42000.000,51000.000,-302000.000,-13.916,-52.897,46.768,77.557,19.985,31.873,430.847,-23070.839,-10317.116
1512180036,139.400,142.300,72.400,69820.000,-25630.000,1130550.000,-42000.000,51000.000,-302000.000,-23.350,-43.282,37.068,31.987,36.791,72.652,431.046,-22995.827,-10617.088
1512180036,39.900,-102.400,91.200,13980.000,-102780.000,1026550.000,-42000.000,51000.000,-302000.000,-47.684,-42.221,27.130,-23.180,-10.213,49.948,355.820,-23070.946,-10391.487
1512180036,11.900,10.700,97.700,52000.000,-112370.000,938840.000,-29000.000,59000.000,-311000.000,-41.374,-34.753,31.507,-29.416,-6.729,46.857,506.149,-22995.720,-10392.723
1512180036,31.300,-45.500,111.300,-13000.000,6290.000,882690.000,-29000.000,59000.000,-311000.000,-45.706,-27.293,35.733,1.833,30.162,80.884,-20.691,-23371.513,-10688.438
1512180036,-51.700,22.900,128.800,-32590.000,-45530.000,948490.000,-29000.000,59000.000,-311000.000,-53.207,-23.033,38.840,3.298,22.164,106.433,-21.027,-23446.510,-10688.469
1512180036,-14.600,48.600,93.600,-55600.000,-90760.000,1060670.000,-29000.000,59000.000,-311000.000,-43.673,-30.502,42.150,6.825,39.454,77.270,-19.974,-23221.504,-10613.365
1512180036,-37.600,-83.400,128.000,29720.000,-91250.000,946230.000,-29000.000,59000.000,-311000.000,-27.969,-39.055,59.406,47.765,10.634,-16.933,-22.522,-23746.513,-10988.609
1512180036,64.300,128.000,132.000,8910.000,-62870.000,1066590.000,-50000.000,52000.000,-301000.000,-31.257,-40.140,64.684,86.748,43.071,7.303,-245.834,-23371.849,-10986.534
1512180036,-40.900,-65.200,134.000,-7570.000,-131470.000,1121030.000,-50000.000,52000.000,-301000.000,-29.039,-42.262,59.379,86.378,72.830,20.122,-21.133,-23446.510,-10913.475
1512180036,-4.400,-45.900,136.200,83190.000,-79100.000,949400.000,-50000.000,52000.000,-301000.000,-27.817,-53.988,49.763,26.967,13.052,-23.799,-246.552,-23521.843,-11061.592
1512180036,70.000,85.200,132.100,70190.000,-111570.000,1055360.000,-50000.000,52000.000,-301000.000,-50.067,-42.264,40.948,-34.172,4.766,-2.453,-246.216,-23446.846,-11061.562
1512180036,-62.600,-49.900,146.700,54440.000,-106450.000,1025150.000,-42000.000,54000.000,-323000.000,-36.364,-37.991,50.222,-21.260,-3.285,33.403,-246.964,-23596.847,-11211.624
1512180036,-7.900,-40.300,154.900,56270.000,-69090.000,974120.000,-42000.000,54000.000,-323000.000,-33.339,-39.071,61.459,-38.633,-21.283,-2.077,-433.418,-23334.633,-11472.412
1512180036,69.900,96.300,165.100,37840.000,-91920.000,1025760.000,-42000.000,54000.000,-323000.000,-23.363,-47.619,70.102,14.089,28.546,-15.739,-697.288,-23635.025,-11507.820
1512180036,-45.800,-14.100,171.400,106320.000,-91980.000,1000060.000,-42000.000,54000.000,-323000.000,-36.527,-46.018,60.322,8.469,30.789,24.271,-546.646,-23484.795,-11584.030
1512180036,56.700,111.200,177.200,73490.000,-115300.000,991390.000,-42000.000,54000.000,-323000.000,-42.288,-51.355,53.823,-7.994,28.102,27.987,-734.184,-23485.076,-11657.433
1512180036,-23.200,-21.800,183.900,32290.000,-78310.000,973080.000,-43000.000,63000.000,-308000.000,-49.689,-58.301,49.961,-9.415,42.922,41.196,-697.250,-23597.527,-11770.302
1512180036,18.600,33.000,193.100,49990.000,-60300.000,980960.000,-43000.000,63000.000,-308000.000,-32.666,-66.288,51.780,8.566,34.958,-6.656,-922.233,-23597.863,-11730.888
1512180036,16.800,18.200,201.200,35340.000,-34060.000,968630.000,-43000.000,63000.000,-308000.000,-44.286,-56.681,45.782,15.180,24.566,6.973,-1334.678,-23560.982,-11952.370
1512180036,67.000,34.900,206.500,31370.000,-43090.000,1019170.000,-43000.000,63000.000,-308000.000,-42.519,-57.194,35.143,2.789,48.853,-25.256,-1183.235,-23223.251,-12103.485
1512180036,33.000,-3.200,209.300,33570.000,-27160.000,1036500.000,-43000.000,63000.000,-308000.000,-59.654,-56.160,40.230,-20.361,23.945,3.497,-1259.368,-23448.364,-12365.448
1512180036,110.400,28.100,207.900,36620.000,-85690.000,984370.000,-35000.000,68000.000,-316000.000,-64.574,-61.525,47.067,-12.785,30.348,10.248,-1634.094,-23373.932,-12474.731
1512180036,62.500,-4.500,206.300,94970.000,-65430.000,937130.000,-35000.000,68000.000,-316000.000,-72.084,-61.008,50.160,-16.653,23.822,42.435,-1483.810,-23298.698,-12588.470
1512180036,-31.600,2.400,217.800,33750.000,-100650.000,1000180.000,-35000.000,68000.000,-316000.000,-68.373,-72.754,50.706,-14.548,37.218,21.698,-1709.541,-23449.043,-12699.119
1512180037,-73.200,-42.200,216.900,59020.000,-36800.000,995240.000,-35000.000,68000.000,-316000.000,-74.959,-75.458,61.793,11.894,50.857,75.273,-1822.647,-23599.220,-12548.241
1512180037,51.300,72.400,217.700,25150.000,-59940.000,1041260.000,-36000.000,81000.000,-311000.000,-84.374,-65.841,51.028,10.722,37.600,66.022,-1671.448,-23298.988,-12849.373
1512180037,-42.200,-89.100,219.200,38570.000,-94480.000,947330.000,-36000.000,81000.000,-311000.000,-79.066,-67.965,53.234,11.056,1.465,89.070,-1597.076,-23448.875,-12775.078
1512180037,99.200,61.800,227.000,70310.000,-50110.000,1019040.000,-36000.000,81000.000,-311000.000,-85.312,-71.164,43.536,-17.079,41.822,102.321,-2047.455,-23524.544,-12846.291
1512180037,24.900,-42.500,236.800,32900.000,-118840.000,972840.000,-36000.000,81000.000,-311000.000,-80.001,-75.429,44.665,-14.018,26.174,68.450,-2273.514,-23749.886,-12919.472
1512180037,-21.200,-44.600,248.500,-18070.000,-124760.000,919310.000,-36000.000,81000.000,-311000.000,-82.169,-77.573,46.758,19.819,27.765,24.150,-2572.464,-23525.337,-12841.835
1512180037,-32.500,-24.900,245.400,77330.000,-30640.000,981020.000,-29000.000,95000.000,-304000.000,-71.470,-81.828,43.698,3.961,32.210,57.852,-2573.318,-23675.331,-13216.896
1512180037,38.700,18.100,249.500,72570.000,-125060.000,980710.000,-29000.000,95000.000,-304000.000,-69.422,-79.690,50.136,8.652,17.189,8.971,-2573.853,-23825.340,-12916.969
1512180037,2.300,2.700,260.900,52250.000,-120910.000,988950.000,-29000.000,95000.000,-304000.000,-91.675,-60.486,42.416,0.631,13.820,74.174,-2871.414,-23300.789,-12764.168
1512180037,64.700,26.200,259.800,31800.000,-93020.000,1040650.000,-29000.000,95000.000,-304000.000,-67.297,-79.690,50.166,19.977,30.191,41.608,-2422.867,-23600.105,-12993.141
1512180037,40.100,-11.900,259.900,28750.000,-132630.000,1051090.000,-31000.000,100000.000,-316000.000,-88.660,-70.116,53.087,11.525,52.510,62.859,-2947.388,-23525.902,-12688.637
1512180037,39.000,-6.100,260.500,87520.000,-111510.000,1003110.000,-31000.000,100000.000,-316000.000,-62.018,-81.831,52.363,2.890,25.120,4.678,-2871.216,-23225.777,-13064.140
1512180037,45.900,24.100,263.100,74580.000,-124150.000,976990.000,-31000.000,100000.000,-316000.000,-72.744,-78.650,56.483,24.125,23.662,33.322,-3100.677,-24201.134,-13212.685
1512180037,21.400,-5.200,265.300,67570.000,-119510.000,1000920.000,-31000.000,100000.000,-316000.000,-90.870,-63.718,58.409,49.740,60.994,79.746,-3097.229,-23451.118,-13062.325
1512180037,12.000,-15.200,270.600,56880.000,-116940.000,1025150.000,-31000.000,100000.000,-316000.000,-94.993,-64.776,49.817,19.152,71.714,102.737,-2872.574,-23525.780,-13064.278
1512180037,23.400,1.700,276.400,47910.000,-132080.000,990910.000,-22000.000,88000.000,-324000.000,-83.203,-76.504,44.613,-47.026,18.538,3.302,-3622.574,-23526.909,-13057.899
1512180037,38.500,21.200,280.700,67630.000,-134520.000,999330.000,-22000.000,88000.000,-324000.000,-89.629,-67.974,46.681,-30.331,23.595,60.193,-3248.886,-23826.347,-12986.229
1512180037,35.700,5.900,282.600,52370.000,-65120.000,1024410.000,-22000.000,88000.000,-324000.000,-84.438,-62.643,55.303,-5.676,58.807,73.697,-3774.902,-24052.132,-12981.865
1512180037,4.500,-43.700,284.600,44560.000,-99850.000,987300.000,-22000.000,88000.000,-324000.000,-73.786,-65.826,56.516,-12.151,20.165,27.986,-3924.194,-23902.367,-12905.525
1512180037,22.600,19.400,289.900,5070.000,-80380.000,1027400.000,-22000.000,88000.000,-324000.000,-79.249,-61.584,63.911,-20.764,32.803,-3.356,-3922.531,-23527.367,-12980.354
1512180037,2.900,2.500,281.400,52670.000,-75680.000,1042720.000,-19000.000,95000.000,-304000.000,-70.855,-60.516,72.566,6.126,-0.685,39.534,-3997.192,-23452.477,-12979.683
1512180037,46.100,14.600,294.500,54140.000,-122070.000,987060.000,-19000.000,95000.000,-304000.000,-89.918,-54.124,64.848,6.026,33.943,76.867,-4373.962,-23828.041,-13126.656
1512180037,26.500,-20.200,298.900,51820.000,-106380.000,973880.000,-19000.000,95000.000,-304000.000,-78.120,-61.570,60.731,-29.286,17.462,14.318,-4524.673,-23978.264,-13200.462
1512180037,75.500,25.200,298.700,104060.000,-95400.000,1015870.000,-19000.000,95000.000,-304000.000,-89.771,-58.375,56.309,-76.715,14.884,29.564,-4376.480,-24353.050,-13426.903
1512180037,-5.300,-24.000,305.300,11720.000,-119630.000,996520.000,-14000.000,121000.000,-296000.000,-104.732,-43.455,58.273,-34.196,73.501,131.338,-4677.673,-24653.496,-13124.489
1512180037,-30.500,-25.000,304.100,81300.000,-110470.000,1000550.000,-14000.000,121000.000,-296000.000,-106.766,-57.323,52.870,-41.515,35.224,81.070,-4599.976,-24053.383,-13124.855
1512180037,-19.200,14.000,311.100,19170.000,-157900.000,1006710.000,-14000.000,121000.000,-296000.000,-103.248,-57.882,65.177,-38.799,5.143,44.326,-4714.370,-24466.050,-13199.089
1512180037,-51.500,-13.000,308.800,68120.000,-141300.000,970340.000,-14000.000,121000.000,-296000.000,-84.988,-82.944,54.689,0.346,26.150,47.419,-5165.024,-24616.729,-13157.837
1512180037,28.400,35.400,311.300,42540.000,-103940.000,1000370.000,-14000.000,121000.000,-296000.000,-81.081,-95.726,44.578,-30.067,13.203,20.580,-5278.595,-24841.896,-13269.485
1512180037,14.900,-7.100,312.700,36320.000,-160640.000,978640.000,-24000.000,114000.000,-299000.000,-77.579,-98.892,25.426,-56.208,19.422,9.319,-5469.093,-25517.189,-13193.200
1512180037,-7.900,-33.700,311.500,92470.000,-132870.000,927610.000,-24000.000,114000.000,-299000.000,-82.908,-89.287,25.917,-9.680,46.059,62.534,-5357.086,-25629.517,-13156.716
1512180037,30.200,17.700,309.500,61950.000,-193730.000,961000.000,-24000.000,114000.000,-299000.000,-83.364,-95.686,21.091,-41.011,15.701,11.570,-5020.744,-25891.510,-13122.200
1512180037,-44.500,-28.800,315.100,52250.000,-158260.000,968200.000,-24000.000,114000.000,-299000.000,-71.839,-94.627,32.986,-16.599,35.602,58.474,-5247.230,-26229.355,-13045.448
1512180037,-7.700,-11.500,314.800,19470.000,-106510.000,961980.000,-24000.000,114000.000,-299000.000,-55.760,-103.198,59.842,59.717,56.416,-18.918,-4459.877,-26265.663,-13014.648
1512180037,-64.400,-86.400,310.000,69580.000,-164180.000,975950.000,0.000,121000.000,-316000.000,-101.710,-81.856,35.265,40.754,69.216,8.063,-4311.020,-26527.947,-12941.056
1512180037,-24.600,36.600,310.900,88070.000,-127320.000,992070.000,0.000,121000.000,-316000.000,-118.109,-75.460,27.586,-49.758,68.851,68.606,-4274.399,-26677.887,-13353.935
1512180037,17.200,19.600,311.500,43760.000,-140440.000,1036560.000,0.000,121000.000,-316000.000,-117.477,-76.577,54.244,46.794,49.294,80.365,-3822.342,-26227.211,-13282.555
1512180037,-17.700,-32.200,316.800,73670.000,-113710.000,1048460.000,0.000,121000.000,-316000.000,-117.375,-91.518,47.264,17.444,40.713,33.699,-3786.972,-26677.163,-13508.080
1512180038,4.500,-15.600,315.300,46750.000,-69580.000,1035890.000,-3000.000,118000.000,-316000.000,-118.310,-85.094,39.811,14.751,20.390,57.414,-3334.274,-26076.485,-13511.620
1512180038,19.200,19.200,313.900,20630.000,-122250.000,1080990.000,-3000.000,118000.000,-316000.000,-109.779,-80.808,39.949,-14.469,32.752,80.906,-3331.680,-25476.479,-13736.351
1512180038,4.500,-19.700,322.100,35400.000,-73060.000,1024480.000,-3000.000,118000.000,-316000.000,-109.761,-86.144,38.866,-18.143,-14.263,34.104,-3107.697,-25701.149,-13738.365
1512180038,112.700,55.300,327.800,30460.000,-48220.000,1054750.000,-3000.000,118000.000,-316000.000,-129.871,-74.412,30.085,-36.338,24.660,72.240,-3408.493,-25851.601,-13960.884
1512180038,6.300,24.900,331.400,46020.000,-108280.000,1061340.000,-3000.000,118000.000,-316000.000,-98.048,-91.478,37.945,-41.892,-2.501,24.515,-3332.855,-25701.485,-14036.446
1512180038,-18.600,-24.900,329.000,111210.000,-85630.000,995540.000,-5000.000,148000.000,-304000.000,-89.707,-96.824,49.777,-14.632,-5.706,42.964,-3182.129,-25551.247,-13962.654
1512180038,63.900,85.100,340.100,50420.000,-158630.000,1042180.000,-5000.000,148000.000,-304000.000,-76.030,-101.096,60.621,-7.355,4.297,13.733,-3333.710,-25926.476,-13736.565
1512180038,-26.900,-30.800,344.600,91550.000,-103390.000,969970.000,-5000.000,148000.000,-304000.000,-102.505,-85.095,50.699,1.809,49.461,34.767,-3481.461,-25401.711,-13960.030
1512180038,121.000,68.300,345.900,77640.000,-135930.000,999690.000,-5000.000,148000.000,-304000.000,-99.320,-79.750,51.830,7.970,20.726,87.539,-3630.066,-25101.921,-13883.614
1512180038,-24.600,-60.900,350.900,58290.000,-183290.000,888790.000,8000.000,151000.000,-297000.000,-97.161,-78.679,49.731,-29.125,17.212,37.879,-3553.986,-24876.808,-13734.169
1512180038,53.500,56.100,363.000,24290.000,-96560.000,997740.000,8000.000,151000.000,-297000.000,-91.824,-73.328,49.827,-25.279,19.369,42.481,-3629.105,-24876.930,-13958.519
1512180038,15.200,-29.400,365.100,64390.000,-78860.000,981510.000,8000.000,151000.000,-297000.000,-81.202,-81.859,52.085,-5.551,41.020,55.238,-3252.075,-24426.353,-13961.494
1512180038,43.800,14.800,372.700,60120.000,-132390.000,971130.000,8000.000,151000.000,-297000.000,-65.359,-91.464,60.811,-21.048,23.167,0.733,-3329.254,-24876.472,-14261.070
1512180038,10.000,61.000,374.700,123540.000,-169430.000,1041020.000,8000.000,151000.000,-297000.000,-52.796,-98.953,73.757,19.103,9.102,-12.873,-3475.677,-24126.686,-13884.438
1512180038,-16.600,-100.500,383.600,103820.000,-130310.000,991820.000,3000.000,167000.000,-319000.000,-60.162,-97.882,68.325,1.035,29.566,-1.619,-3400.986,-24201.591,-13810.127
1512180038,48.300,48.700,393.100,113100.000,-196470.000,998470.000,3000.000,167000.000,-319000.000,-65.417,-98.947,63.982,-16.342,11.447,-13.587,-3701.431,-24277.031,-14032.600
1512180038,-20.600,-52.500,395.300,83070.000,-118650.000,1065860.000,3000.000,167000.000,-319000.000,-67.533,-96.814,62.892,-68.705,0.482,-10.760,-3626.846,-24351.921,-14183.281
1512180038,-34.200,-15.200,396.700,76050.000,-136170.000,974180.000,3000.000,167000.000,-319000.000,-60.206,-97.891,70.454,-42.198,6.617,-13.997,-4000.046,-23977.486,-13954.918
1512180038,-58.100,-14.600,403.700,48100.000,-143430.000,1029600.000,3000.000,167000.000,-319000.000,-74.109,-92.577,73.470,-6.664,43.893,28.283,-4076.736,-24352.592,-13954.445
1512180038,-77.200,-30.100,410.300,56090.000,-136540.000,1053710.000,0.000,178000.000,-309000.000,-74.237,-96.865,80.915,5.078,33.147,34.498,-4075.836,-24127.586,-14179.344
1512180038,-49.500,9.100,411.700,100280.000,-170230.000,950990.000,0.000,178000.000,-309000.000,-60.238,-104.300,72.566,-10.319,25.725,-5.485,-4150.620,-24052.711,-14403.679
1512180038,-24.000,41.500,412.100,120790.000,-135740.000,988950.000,0.000,178000.000,-309000.000,-76.084,-97.900,63.829,8.598,44.281,63.614,-3923.065,-23527.367,-14030.342
1512180038,-56.100,3.700,413.200,158020.000,-195250.000,1045650.000,0.000,178000.000,-309000.000,-76.137,-94.696,68.107,19.269,60.404,62.706,-4000.381,-23977.486,-14629.906
1512180038,-17.800,17.200,419.800,160710.000,-116880.000,1036070.000,5000.000,176000.000,-294000.000,-85.557,-84.014,57.344,-1.661,33.755,105.715,-4300.690,-24052.925,-14552.406
1512180038,39.500,114.200,418.500,116210.000,-178770.000,1093380.000,5000.000,176000.000,-294000.000,-98.188,-86.149,47.560,12.416,50.293,81.412,-4149.155,-23752.708,-14178.535
1512180038,-76.800,-58.300,417.500,103700.000,-178220.000,1096620.000,5000.000,176000.000,-294000.000,-106.661,-82.952,44.249,-4.343,58.189,17.284,-4374.298,-23753.044,-14476.631
1512180038,19.400,23.400,426.500,98080.000,-125980.000,1108700.000,5000.000,176000.000,-294000.000,-113.343,-76.525,29.249,-9.666,42.824,105.930,-4524.002,-23678.269,-14550.316
1512180038,47.100,4.700,441.300,69580.000,-85750.000,1014040.000,5000.000,176000.000,-294000.000,-92.340,-97.889,48.138,8.772,22.641,18.546,-4637.664,-23940.941,-14511.970
1512180038,87.800,55.500,436.100,62500.000,-138670.000,1001530.000,17000.000,188000.000,-306000.000,-107.690,-87.757,41.552,6.761,26.084,29.538,-4634.849,-23303.429,-14624.176
1512180038,56.500,39.800,442.000,103880.000,-85140.000,1089170.000,17000.000,188000.000,-306000.000,-108.261,-95.238,43.650,-30.035,3.051,16.096,-4824.578,-23791.222,-14697.815
1512180038,102.100,81.400,449.500,61280.000,-115970.000,1065920.000,17000.000,188000.000,-306000.000,-93.058,-106.458,58.758,27.997,46.124,23.013,-5011.452,-23641.502,-14771.156
1512180038,54.500,39.100,448.600,97600.000,-85750.000,1049190.000,17000.000,188000.000,-306000.000,-96.687,-105.919,52.309,47.569,38.510,37.267,-4970.489,-22891.441,-14621.132
1512180038,6.100,-26.400,450.300,49930.000,-54200.000,1096130.000,17000.000,188000.000,-306000.000,-89.002,-117.629,38.522,-20.615,32.903,6.270,-5384.987,-23304.558,-14880.318
1512180038,-3.500,14.000,452.100,54260.000,-90580.000,1063170.000,7000.000,216000.000,-316000.000,-100.949,-105.925,52.248,31.134,72.003,71.800,-5309.013,-23079.445,-14955.841
1512180038,70.300,75.100,459.300,61770.000,-85510.000,1047850.000,7000.000,216000.000,-316000.000,-95.204,-112.873,59.236,3.009,48.484,0.045,-5045.441,-22816.544,-15182.953
1512180038,-13.000,-29.800,458.900,81300.000,-167360.000,1071470.000,7000.000,216000.000,-316000.000,-92.569,-116.614,60.325,10.171,56.109,74.038,-5532.341,-22667.274,-15328.743
1512180038,29.400,52.900,468.700,73490.000,-148500.000,988400.000,7000.000,216000.000,-316000.000,-84.363,-125.184,79.604,10.645,10.090,12.703,-5793.541,-22367.668,-15438.865
1512180038,-66.400,18.500,467.300,112550.000,-133240.000,970280.000,-10000.000,206000.000,-306000.000,-98.041,-127.852,68.738,26.236,50.526,64.329,-5869.903,-22667.786,-15438.370
1512180039,-16.500,1.500,479.500,148070.000,-72510.000,877380.000,-10000.000,206000.000,-306000.000,-129.031,-118.237,40.601,-57.558,28.699,75.553,-5792.557,-22105.171,-15813.744
1512180039,-6.900,22.900,475.800,100160.000,-116090.000,979680.000,-10000.000,206000.000,-306000.000,-133.362,-120.386,44.796,-39.943,30.979,159.295,-5942.444,-22105.400,-15587.471
1512180039,0.700,51.300,477.900,93750.000,-117550.000,1099910.000,-10000.000,206000.000,-306000.000,-130.236,-121.458,49.102,-67.522,44.591,121.113,-5866.425,-21880.272,-15588.005
1512180039,-43.100,3.500,479.500,178830.000,-126040.000,975770.000,-10000.000,206000.000,-306000.000,-113.379,-138.542,61.016,-49.096,-37.549,105.534,-6092.514,-22105.614,-15736.183
1512180039,-10.900,35.700,488.000,135250.000,-178470.000,907780.000,1000.000,232000.000,-297000.000,-110.357,-140.701,70.642,11.193,16.911,79.866,-6017.563,-22105.507,-15811.836
1512180039,39.400,43.300,480.400,76970.000,-167050.000,1013920.000,1000.000,232000.000,-297000.000,-95.401,-149.216,68.699,0.294,32.978,40.473,-6091.537,-21880.623,-15811.089
1512180039,-7.200,13.600,485.900,83980.000,-77450.000,960140.000,1000.000,232000.000,-297000.000,-116.460,-142.806,53.493,-52.804,-0.950,58.158,-6469.284,-22481.178,-15883.171
1512180039,-10.100,99.200,477.200,118590.000,-184270.000,1008180.000,1000.000,232000.000,-297000.000,-137.757,-134.293,52.147,-47.870,39.776,121.355,-6388.763,-21281.059,-15658.257
1512180039,-24.100,36.600,484.800,125550.000,-131900.000,1106380.000,1000.000,232000.000,-297000.000,-120.907,-140.703,64.094,-23.740,42.847,110.681,-6313.583,-21205.956,-15958.870
1512180039,-21.200,-1.600,493.800,85510.000,-166930.000,998540.000,0.000,245000.000,-306000.000,-109.370,-159.932,74.856,19.892,46.265,30.007,-6463.547,-21206.169,-15882.591
1512180039,0.700,78.300,497.300,160400.000,-175420.000,1044740.000,0.000,245000.000,-306000.000,-102.782,-162.042,62.147,-12.646,48.873,-31.196,-6838.547,-21206.734,-15879.402
1512180039,-18.400,4.700,502.300,114140.000,-154110.000,934200.000,0.000,245000.000,-306000.000,-113.323,-153.489,56.700,-4.779,58.918,51.877,-6763.504,-21206.627,-15805.046
1512180039,44.700,18.400,513.200,67440.000,-143550.000,941160.000,0.000,245000.000,-306000.000,-126.052,-144.963,52.276,20.088,90.366,101.418,-6615.982,-21731.407,-16031.563
1512180039,2.800,86.600,511.100,93810.000,-150020.000,1050660.000,-29000.000,264000.000,-308000.000,-114.224,-160.950,45.998,-25.601,64.069,2.363,-6537.720,-20981.285,-16256.844
1512180039,-43.900,38.600,525.300,47490.000,-190000.000,1052920.000,-29000.000,264000.000,-308000.000,-137.571,-152.433,39.291,-39.753,62.245,71.201,-6612.534,-20981.392,-15881.203
1512180039,-39.300,35.700,529.200,155940.000,-175170.000,950010.000,-29000.000,264000.000,-308000.000,-119.569,-163.095,46.980,-8.626,70.575,25.755,-6760.880,-20606.621,-15954.765
1512180039,57.700,49.500,530.900,122310.000,-155460.000,1062010.000,-29000.000,264000.000,-308000.000,-130.351,-166.330,54.276,-11.608,60.630,45.506,-6310.959,-20605.949,-16108.589
1512180039,-0.100,17.700,528.400,136600.000,-253360.000,978520.000,-29000.000,264000.000,-308000.000,-137.723,-159.923,48.860,2.999,100.043,74.944,-7060.959,-20607.063,-16102.211
1512180039,8.500,27.600,534.500,77150.000,-183840.000,976260.000,-24000.000,273000.000,-306000.000,-135.546,-164.189,45.677,-17.349,67.305,36.984,-6684.982,-20381.508,-16180.305
1512180039,11.900,0.000,541.600,49190.000,-167110.000,953670.000,-24000.000,273000.000,-306000.000,-142.957,-158.849,43.459,-14.002,80.499,88.384,-6909.149,-20231.834,-15878.319
1512180039,-11.500,22.200,539.800,52610.000,-164120.000,973510.000,-24000.000,273000.000,-306000.000,-146.155,-162.057,43.402,-26.821,95.877,52.425,-6835.800,-20606.728,-15804.131
1512180039,-18.100,-39.900,553.900,730.000,-128110.000,951480.000,-24000.000,273000.000,-306000.000,-153.831,-159.961,56.089,-18.085,70.241,108.799,-6758.408,-20006.615,-16404.488
1512180039,72.200,43.000,556.100,-13790.000,-55790.000,1032350.000,-24000.000,273000.000,-306000.000,-155.873,-163.156,50.719,-16.312,73.563,135.906,-6759.750,-20306.618,-16404.625
1512180039,34.200,-26.400,561.400,32100.000,-99910.000,1054020.000,-14000.000,273000.000,-316000.000,-163.321,-163.167,49.544,-27.616,43.067,51.674,-7061.066,-20607.063,-16327.217
1512180039,80.000,29.000,566.200,121700.000,-168520.000,943730.000,-14000.000,273000.000,-316000.000,-170.718,-149.286,46.287,-51.818,52.437,107.085,-7057.312,-19782.066,-16251.823
1512180039,64.000,-6.500,566.900,78310.000,-173580.000,944820.000,-14000.000,273000.000,-316000.000,-146.194,-161.003,44.465,-13.129,86.004,90.580,-7134.384,-20232.170,-16326.408
1512180039,63.000,-14.200,571.600,51150.000,-156920.000,958440.000,-14000.000,273000.000,-316000.000,-146.201,-186.095,44.916,-34.966,55.977,48.892,-7208.069,-19932.289,-16400.627
1512180039,24.600,7.500,571.900,57620.000,-149410.000,1031130.000,-28000.000,283000.000,-302000.000,-150.347,-199.445,36.278,-58.084,42.063,89.217,-7206.100,-19482.284,-16512.924
1512180039,91.100,11.100,580.300,34480.000,-110660.000,1064330.000,-28000.000,283000.000,-302000.000,-113.345,-220.785,54.331,-79.084,25.317,45.934,-7318.001,-19369.957,-16324.417
1512180039,63.600,-35.700,582.200,99850.000,-227840.000,1020200.000,-28000.000,283000.000,-302000.000,-121.496,-211.737,64.373,-23.659,42.938,63.710,-7653.679,-18957.962,-16396.347
1512180039,57.000,-1.300,596.500,65980.000,-33690.000,1123470.000,-28000.000,283000.000,-302000.000,-120.438,-213.337,64.916,-34.698,64.183,96.102,-7541.726,-19107.796,-16134.872
1512180039,-7.600,-39.100,588.400,73730.000,-121090.000,1054380.000,-28000.000,283000.000,-302000.000,-137.024,-190.941,69.550,1.872,89.710,134.873,-7615.898,-18920.403,-16171.661
1512180039,-21.300,2.100,588.700,96920.000,-20870.000,1097170.000,-42000.000,308000.000,-309000.000,-134.880,-187.731,69.059,-42.290,75.604,88.494,-7953.605,-18958.405,-16243.805
1512180039,-102.800,-14.900,587.100,47420.000,19040.000,1123350.000,-42000.000,308000.000,-309000.000,-141.879,-164.254,74.370,-47.924,85.932,106.069,-8102.615,-18733.627,-16279.923
1512180039,-159.300,-66.400,587.600,41380.000,-27040.000,1077640.000,-42000.000,308000.000,-309000.000,-178.397,-147.721,59.507,-83.367,89.686,117.441,-7951.752,-18545.906,-16243.607
1512180039,-159.400,-47.700,597.700,-3720.000,-45170.000,1142940.000,-42000.000,308000.000,-309000.000,-165.752,-156.267,67.655,-83.380,77.609,116.490,-8403.443,-18921.585,-16239.967
1512180039,-269.900,-96.500,594.600,41810.000,-60610.000,1097350.000,-29000.000,303000.000,-324000.000,-162.278,-148.282,83.724,-45.210,75.292,97.219,-8475.967,-18359.192,-16351.562
1512180039,-274.800,-22.600,599.300,241940.000,-160400.000,916140.000,-29000.000,303000.000,-324000.000,-164.468,-160.577,86.313,-18.803,73.584,38.304,-8813.393,-18322.197,-16536.178
1512180040,-287.800,-53.700,606.300,219670.000,-207030.000,911560.000,-29000.000,303000.000,-324000.000,-171.205,-145.079,75.074,-29.951,74.796,59.545,-8850.342,-18209.755,-16460.808
1512180040,-285.800,-83.600,602.300,193970.000,-243160.000,938720.000,-29000.000,303000.000,-324000.000,-157.353,-157.866,76.303,-55.695,65.016,53.195,-9074.783,-18060.097,-16683.830
1512180040,-182.700,-31.400,605.600,101320.000,-235050.000,979680.000,-29000.000,303000.000,-324000.000,-150.925,-158.928,73.189,-47.437,66.200,50.406,-9000.198,-18134.987,-16834.496
1512180040,-245.400,-92.300,603.600,118900.000,-281680.000,990110.000,-49000.000,308000.000,-306000.000,-143.465,-168.527,73.266,-51.925,73.120,-0.407,-9450.119,-18135.658,-16680.672
1512180040,-243.400,-32.100,628.100,248960.000,-373900.000,841490.000,-49000.000,308000.000,-306000.000,-145.577,-158.917,72.201,-48.051,66.626,39.205,-9599.487,-17985.878,-16754.326
1512180040,-150.100,-44.500,610.400,119200.000,-226320.000,874690.000,-49000.000,308000.000,-306000.000,-164.550,-152.513,59.155,-36.419,95.117,75.390,-9898.849,-17836.327,-16826.714
1512180040,-59.100,-75.500,613.300,50050.000,-176570.000,884580.000,-49000.000,308000.000,-306000.000,-151.663,-155.682,54.003,-88.364,50.864,64.970,-9900.574,-18211.327,-16901.878
1512180040,11.300,10.300,608.300,75130.000,-213620.000,993960.000,-49000.000,308000.000,-306000.000,-147.607,-157.841,65.778,-84.454,56.471,38.827,-9598.846,-17835.884,-16829.262
1512180040,-85.600,53.100,588.600,256900.000,-269900.000,945310.000,-45000.000,326000.000,-326000.000,-141.216,-152.488,66.958,-68.568,48.747,58.290,-10275.909,-18286.888,-16898.735
1512180040,37.200,41.500,584.600,205020.000,-216130.000,1065000.000,-45000.000,326000.000,-326000.000,-131.704,-155.683,72.417,-35.927,70.236,31.827,-10125.534,-18211.662,-16824.974
1512180040,47.800,209.200,583.200,225160.000,-210450.000,1074770.000,-45000.000,326000.000,-326000.000,-129.593,-155.684,73.513,-29.274,65.006,21.512,-10127.792,-18661.674,-17275.185
1512180040,107.900,127.800,587.900,-24230.000,-85510.000,1134520.000,-45000.000,326000.000,-326000.000,-124.336,-155.693,76.782,-35.016,77.385,6.675,-10124.222,-17911.659,-16899.834
1512180040,190.800,147.300,574.800,5190.000,-150090.000,1112790.000,-52000.000,354000.000,-306000.000,-123.276,-157.823,77.860,-29.839,41.888,-0.554,-9898.926,-17836.327,-16976.707
1512180040,135.700,235.800,577.600,5680.000,-116150.000,1115780.000,-52000.000,354000.000,-306000.000,-128.400,-154.605,65.002,-21.734,61.719,15.354,-10500.046,-18062.233,-17196.709
1512180040,84.600,229.000,574.600,43330.000,-172790.000,1029790.000,-52000.000,354000.000,-306000.000,-116.735,-157.793,69.428,-30.005,60.494,4.482,-10272.995,-17611.885,-17123.421
1512180040,8.700,105.100,572.600,66160.000,-168270.000,931760.000,-52000.000,354000.000,-306000.000,-107.243,-158.863,74.889,-25.456,55.865,-14.291,-10423.889,-17837.120,-16897.255
1512180040,66.700,240.700,574.200,25570.000,-137700.000,925350.000,-52000.000,354000.000,-306000.000,-107.175,-158.849,71.695,-26.676,54.631,38.066,-10953.506,-18812.904,-17343.239
1512180040,-53.000,109.600,570.000,26670.000,-138000.000,871090.000,-72000.000,359000.000,-321000.000,-85.966,-171.651,77.286,-45.624,31.742,-52.421,-10724.869,-18062.569,-16819.801
1512180040,-13.300,179.900,575.400,-32470.000,-152470.000,881530.000,-72000.000,359000.000,-321000.000,-93.397,-160.976,76.150,-37.231,29.621,0.177,-10572.800,-17612.343,-16745.872
1512180040,-38.200,96.800,576.000,-45230.000,-148740.000,987430.000,-72000.000,359000.000,-321000.000,-70.208,-166.316,91.390,1.438,48.779,0.469,-11176.590,-18438.240,-16891.151
1512180040,-97.200,40.700,574.000,4460.000,-164060.000,859440.000,-72000.000,359000.000,-321000.000,-60.687,-176.988,95.757,16.912,39.730,-56.668,-11100.586,-18213.127,-16891.685
1512180040,-75.400,75.100,579.600,-49070.000,-155640.000,872740.000,-86000.000,373000.000,-311000.000,-60.620,-165.236,91.532,29.801,72.711,18.039,-11400.208,-18138.573,-16814.095
1512180040,-154.100,26.600,581.600,-2260.000,-198060.000,1017330.000,-86000.000,373000.000,-311000.000,-74.263,-165.230,78.542,-6.273,47.090,16.278,-11325.470,-18213.463,-16664.772
1512180040,-184.400,14.600,581.800,83500.000,-244260.000,939390.000,-86000.000,373000.000,-311000.000,-87.158,-147.103,85.882,-2.680,56.989,57.261,-11548.813,-17838.799,-16737.679
1512180040,-102.300,45.400,589.500,27830.000,-163390.000,1044980.000,-86000.000,373000.000,-311000.000,-101.510,-130.566,84.132,-1.626,58.010,86.352,-11661.202,-17838.966,-16511.726
1512180040,-140.700,-15.300,611.700,-122680.000,-194030.000,1195860.000,-86000.000,373000.000,-311000.000,-107.754,-117.206,75.559,4.698,78.809,87.927,-11811.691,-17951.698,-16473.007
1512180040,-145.400,-202.700,614.400,9640.000,-121340.000,1162900.000,-86000.000,377000.000,-324000.000,-94.982,-118.257,76.807,-4.184,38.303,7.742,-12263.099,-18252.373,-16581.825
1512180040,-85.600,-49.000,633.300,142760.000,-235840.000,965700.000,-86000.000,377000.000,-324000.000,-108.725,-91.026,71.373,16.333,55.093,35.606,-12261.955,-18027.367,-16319.214
1512180040,-139.000,-110.700,631.200,24410.000,-243100.000,1035770.000,-86000.000,377000.000,-324000.000,-138.716,-81.412,48.052,-77.275,21.841,12.609,-12411.675,-17952.599,-16430.405
1512180040,-189.000,-233.700,630.200,27830.000,-203430.000,1006350.000,-86000.000,377000.000,-324000.000,-154.580,-60.059,41.500,-105.469,25.665,102.617,-12222.710,-17652.306,-16206.863
1512180040,-67.600,-45.300,612.500,73850.000,-230470.000,1034550.000,-86000.000,377000.000,-324000.000,-123.237,-73.438,79.754,-30.210,-2.463,20.691,-12559.372,-17465.324,-16203.911
1512180040,-200.800,-196.100,619.500,52800.000,-284420.000,900700.000,-114000.000,380000.000,-328000.000,-79.999,-93.123,74.982,9.559,14.315,-36.413,-12783.638,-17315.651,-16089.424
1512180040,-48.200,-97.500,608.100,50660.000,-245730.000,928470.000,-114000.000,380000.000,-328000.000,-69.595,-94.146,57.536,-20.810,7.424,-12.095,-12669.396,-16940.483,-15977.715
1512180040,-99.900,-68.200,610.700,19590.000,-270200.000,967530.000,-114000.000,380000.000,-328000.000,-57.801,-87.711,53.999,-23.793,24.713,-35.953,-13008.484,-17315.994,-15787.514
1512180040,-122.500,-111.500,618.800,10860.000,-216800.000,951480.000,-114000.000,380000.000,-328000.000,-59.877,-83.434,50.785,-11.469,48.625,8.406,-13232.766,-17166.328,-15673.027
1512180040,0.000,71.500,613.500,60240.000,-210690.000,1062130.000,-114000.000,387000.000,-328000.000,-44.424,-81.276,51.017,-25.001,27.383,1.791,-13268.295,-16753.883,-15447.533
1512180040,-41.900,-136.000,615.300,34670.000,-229550.000,1075870.000,-114000.000,387000.000,-328000.000,-50.189,-67.919,46.184,-23.016,40.278,38.970,-13455.323,-16679.169,-15183.403
