unixtime,rx,ry,rz,ax,ay,az,mx,my,mz,apprx,appry,apprz,appax,appay,appaz,appmx,appmy,appmz
1512177343,-0.400,1.900,-2.300,-68360.000,-62380.000,1006040.000,-1000.000,-1000.000,-6000.000,-140.536,-218.107,-40.894,-13.246,18.208,14.772,-28195.053,-14863.777,-36019.707
1512177343,1.900,0.900,-0.300,-81480.000,-73490.000,992550.000,7000.000,-3000.000,-18000.000,-106.618,-123.023,-25.150,-29.833,19.696,13.913,-28195.953,-15013.771,-36469.780
1512177343,0.700,2.700,0.100,-68600.000,-67870.000,1006770.000,7000.000,-3000.000,-18000.000,-23.907,8.429,8.489,-16.318,14.908,1.447,-28346.481,-15163.994,-36168.571
1512177343,-0.400,-0.300,-0.300,-62620.000,-69580.000,1013180.000,7000.000,-3000.000,-18000.000,13.211,38.371,21.925,0.625,5.370,-1.766,-28720.551,-14939.568,-36315.269
1512177343,1.900,1.900,-0.300,-70860.000,-72880.000,1004640.000,7000.000,-3000.000,-18000.000,-43.035,-39.662,1.645,7.599,-4.560,3.220,-28720.505,-14939.568,-36240.273
1512177343,-0.700,0.000,-0.700,-62500.000,-64760.000,1010130.000,7000.000,-3000.000,-18000.000,-85.220,-83.462,-27.901,1.659,4.924,3.588,-28947.495,-15389.900,-36163.582
1512177343,0.700,1.500,-1.100,-75560.000,-64510.000,998540.000,-3000.000,-3000.000,-28000.000,-47.703,-62.016,-39.008,-4.754,10.055,5.040,-28872.681,-15464.790,-35864.250
1512177343,1.900,3.600,-0.800,-63170.000,-64700.000,995120.000,-3000.000,-3000.000,-28000.000,3.324,-10.684,-27.428,-5.070,10.225,-0.210,-28718.475,-14489.555,-36240.074
1512177343,1.100,-1.100,-2.400,-62130.000,-61220.000,1057250.000,-3000.000,-3000.000,-28000.000,16.960,-20.303,-14.472,-1.613,6.932,5.718,-28344.421,-14713.997,-36093.361
1512177343,-3.200,1.700,-1.900,-74580.000,-63840.000,996770.000,-3000.000,-3000.000,-28000.000,-33.799,-36.357,-40.851,-14.090,14.233,9.015,-28946.442,-15164.894,-36088.463
1512177343,3.500,0.400,0.300,-84780.000,-57800.000,1001650.000,10000.000,7000.000,-5000.000,-58.842,-83.324,-75.489,-4.997,6.765,-4.405,-29022.827,-15465.019,-36162.971
1512177343,0.700,0.700,-0.900,-74830.000,-70620.000,998350.000,10000.000,7000.000,-5000.000,-47.122,-75.834,-75.296,-6.295,7.966,-8.117,-29098.953,-15690.132,-36387.444
1512177343,-0.700,3.600,0.800,-117250.000,-63900.000,1010800.000,10000.000,7000.000,-5000.000,-13.831,-39.440,-88.547,-20.764,9.929,0.113,-28418.365,-14489.113,-36017.616
1512177343,6.000,-1.200,-0.700,-26860.000,-62740.000,998780.000,10000.000,7000.000,-5000.000,47.053,-17.966,-93.983,-2.242,4.771,-21.973,-28418.930,-14639.107,-35792.686
1512177343,0.400,4.700,-1.500,-86000.000,-75010.000,977230.000,10000.000,7000.000,-5000.000,79.745,-26.499,-72.215,11.836,-5.392,-21.292,-28719.269,-14714.561,-35790.184
1512177343,-0.400,0.800,-1.200,-68480.000,-74280.000,994810.000,8000.000,5000.000,-23000.000,74.524,-55.337,-80.923,0.846,3.973,-10.441,-28644.867,-14864.449,-35640.877
1512177343,1.500,0.100,-0.300,-62380.000,-60300.000,1005740.000,8000.000,5000.000,-23000.000,73.996,-80.910,-115.135,-4.926,-0.708,9.139,-28348.312,-15614.006,-35793.785
1512177343,-1.600,1.200,-1.200,-73850.000,-73180.000,1005130.000,8000.000,5000.000,-23000.000,53.387,-64.956,-91.920,0.436,-18.007,29.543,-28725.723,-16139.565,-35865.837
1512177343,3.700,1.600,-0.100,-54630.000,-64760.000,983340.000,8000.000,5000.000,-23000.000,23.141,-37.280,-66.677,-9.799,3.828,11.382,-28945.175,-14939.903,-35563.362
1512177343,3.200,0.800,-0.700,-67930.000,-61890.000,987850.000,8000.000,5000.000,-23000.000,45.037,-23.297,-101.494,-22.625,22.909,4.761,-28796.265,-15164.665,-35714.745
1512177343,-0.400,1.300,-0.900,-70500.000,-76350.000,999330.000,1000.000,8000.000,-6000.000,87.974,24.870,-116.694,-21.780,18.635,6.900,-28348.312,-15614.006,-35793.785
1512177343,0.500,0.700,0.100,-66530.000,-57980.000,1011410.000,1000.000,8000.000,-6000.000,134.943,56.991,-119.101,-33.423,34.822,-9.634,-28574.265,-15839.348,-35641.975
1512177343,-0.400,2.300,-1.700,-62440.000,-76110.000,984620.000,1000.000,8000.000,-6000.000,206.668,125.496,-133.814,-31.221,24.019,-24.051,-28500.305,-16064.232,-35717.705
1512177343,-2.500,2.500,-0.300,-63600.000,-75990.000,1005130.000,1000.000,8000.000,-6000.000,305.611,234.572,-116.008,-28.863,20.894,-12.063,-28124.893,-15988.670,-35570.854
1512177343,-1.900,-1.500,-1.300,-68790.000,-78060.000,986690.000,3000.000,-3000.000,-5000.000,356.388,279.458,-90.600,8.371,-7.560,-7.904,-28126.312,-16288.673,-35721.001
1512177343,-2.400,0.700,-1.200,-75130.000,-95700.000,1002990.000,3000.000,-3000.000,-5000.000,314.701,237.599,-20.988,43.284,-45.278,9.332,-27828.995,-16888.222,-35648.827
1512177343,-1.100,3.100,-2.000,-62680.000,-94360.000,1010560.000,3000.000,-3000.000,-5000.000,213.118,160.507,-5.670,18.716,-32.865,28.644,-27454.666,-17037.666,-35652.092
1512177343,-0.100,0.700,-2.700,-74100.000,-84350.000,981930.000,3000.000,-3000.000,-5000.000,107.236,93.138,-53.280,1.593,-12.825,16.987,-27229.858,-17112.328,-35354.027
1512177343,-2.100,3.200,0.100,-71960.000,-103150.000,998290.000,3000.000,-3000.000,-5000.000,116.896,89.956,-57.416,11.844,-10.000,2.611,-27193.260,-17299.767,-35466.942
1512177343,2.900,-0.400,-1.300,-68540.000,-91920.000,1010440.000,8000.000,5000.000,-6000.000,150.761,154.536,-6.595,0.635,4.667,-8.328,-26931.656,-17486.877,-35581.749
1512177343,2.300,1.900,-1.100,-70130.000,-89110.000,978030.000,8000.000,5000.000,-6000.000,59.315,45.477,-26.423,18.341,-14.903,57.139,-26783.470,-17899.155,-35508.217
1512177343,-1.900,2.800,-1.200,-69270.000,-113890.000,996030.000,8000.000,5000.000,-6000.000,-119.848,-165.218,-32.416,35.857,-19.243,-13.262,-26782.273,-17636.650,-35470.603
1512177343,-1.300,-0.500,-3.200,-66280.000,-104190.000,1019040.000,8000.000,5000.000,-6000.000,134.721,71.537,89.363,-6.640,-5.956,2.535,-27082.802,-17749.603,-35505.600
1512177343,-2.700,1.600,-4.100,-76840.000,-99180.000,980410.000,8000.000,5000.000,-6000.000,-119.050,-184.946,-49.530,4.615,0.651,16.636,-27121.834,-18087.166,-35542.930
1512177343,-5.200,2.300,-3.100,-66470.000,-114500.000,1003230.000,0.000,-3000.000,1000.000,-290.542,-395.137,-36.223,14.472,-25.735,-23.665,-27493.805,-17450.218,-35201.965
1512177343,-4.000,-2.000,-4.100,-66100.000,-100160.000,1015990.000,0.000,-3000.000,1000.000,-128.708,-339.371,-20.891,-32.584,-1.166,-51.474,-28317.047,-17076.454,-35082.275
1512177343,-1.700,1.700,-2.500,-74520.000,-111880.000,981080.000,0.000,-3000.000,1000.000,210.458,-35.624,48.509,26.454,-7.862,-6.502,-28543.846,-17489.296,-34968.056
1512177344,-3.100,1.900,-2.100,-59630.000,-125670.000,1010930.000,0.000,-3000.000,1000.000,142.575,-247.768,49.452,39.784,15.039,5.575,-28354.919,-17189.018,-34819.511
1512177344,-0.800,-3.500,-3.100,-72570.000,-118470.000,1023250.000,7000.000,10000.000,1000.000,-35.176,-417.829,24.967,-14.458,9.259,38.234,-28731.201,-17489.586,-34666.466
1512177344,1.600,0.300,-4.100,-77450.000,-129090.000,982180.000,7000.000,10000.000,1000.000,-112.797,-449.968,10.937,-57.097,15.450,54.912,-29254.776,-17190.361,-34511.864
1512177344,-1.700,2.900,-1.900,-60000.000,-148930.000,998600.000,7000.000,10000.000,1000.000,-70.725,-263.054,54.840,-67.093,28.293,67.302,-29406.570,-17565.590,-34735.756
1512177344,-5.100,-1.300,-8.100,-64150.000,-144170.000,1040710.000,7000.000,10000.000,1000.000,28.899,-72.851,99.587,-43.344,35.505,23.699,-29705.673,-17416.039,-34283.150
1512177344,-24.600,11.200,-6.900,-63720.000,-138550.000,1034480.000,7000.000,10000.000,1000.000,-12.198,-130.539,66.806,-24.215,40.048,3.592,-29556.351,-17565.819,-34284.492
1512177344,2.500,1.600,-2.800,-81420.000,-144590.000,985290.000,-5000.000,-1000.000,0.000,-120.710,-233.085,-16.142,-25.479,34.738,7.965,-29703.918,-17041.039,-34132.973
1512177344,-1.900,4.900,0.000,-64510.000,-119750.000,991820.000,-5000.000,-1000.000,0.000,-138.983,-207.371,-70.688,-18.815,28.885,7.240,-29928.802,-17041.374,-33906.059
1512177344,1.100,-1.300,-4.000,-65490.000,-109990.000,1042480.000,-5000.000,-1000.000,0.000,-57.466,-164.459,-98.138,-1.526,19.505,4.597,-30079.590,-17191.597,-34129.845
1512177344,1.900,-1.200,-2.900,-69820.000,-112490.000,1004330.000,-5000.000,-1000.000,0.000,-34.063,-115.301,-93.367,-10.596,6.376,23.140,-30005.188,-17341.484,-33980.553
1512177344,3.500,-1.600,-5.100,-63840.000,-129820.000,966370.000,1000.000,1000.000,-6000.000,-36.071,-75.767,-98.587,-10.822,5.311,24.756,-30307.632,-17866.936,-34128.258
1512177344,-1.300,4.300,-5.100,-70430.000,-168760.000,972840.000,1000.000,1000.000,-6000.000,-43.406,-99.261,-107.303,-16.667,8.846,30.470,-30157.471,-17866.722,-33829.521
1512177344,-2.300,5.900,-6.900,-66220.000,-184270.000,988280.000,1000.000,1000.000,-6000.000,-106.637,-92.865,-151.907,-24.455,14.356,56.312,-29929.321,-17191.368,-33606.117
1512177344,-13.200,9.700,-8.500,-91430.000,-196960.000,1012080.000,1000.000,1000.000,-6000.000,-178.407,-51.230,-193.311,-0.606,20.790,48.700,-29929.214,-17191.368,-33381.126
1512177344,-8.400,1.600,-7.600,-66220.000,-177000.000,1029790.000,1000.000,1000.000,-6000.000,-122.555,32.224,-213.529,6.978,17.411,41.682,-29927.521,-16816.368,-33380.959
1512177344,-6.700,-1.700,-8.800,-77390.000,-168270.000,1053470.000,1000.000,19000.000,-13000.000,-17.289,150.903,-192.407,21.538,3.747,42.089,-31348.297,-15993.507,-32318.459
1512177344,-10.800,-2.500,-7.500,-64450.000,-159000.000,1056950.000,1000.000,19000.000,-13000.000,-16.030,133.711,-140.211,21.705,-22.249,41.977,-31421.906,-15693.611,-32242.699
1512177344,-8.700,0.100,-7.100,-66830.000,-169130.000,1025020.000,1000.000,19000.000,-13000.000,-174.100,85.371,-124.546,12.362,-31.721,52.126,-30747.757,-15842.598,-32623.497
1512177344,-4.900,0.500,-5.300,-57500.000,-165100.000,1035100.000,1000.000,19000.000,-13000.000,-248.846,150.398,-113.674,33.040,-35.039,34.527,-30674.225,-16142.494,-32849.266
1512177344,-7.500,-4.000,-6.800,-51330.000,-181820.000,1034300.000,1000.000,19000.000,-13000.000,-217.853,253.931,-48.902,54.583,-22.492,0.925,-30373.962,-16067.039,-33001.793
1512177344,-8.300,-4.500,-9.500,-54630.000,-197450.000,1031980.000,7000.000,0.000,5000.000,-188.657,253.899,-9.034,67.525,4.653,-46.970,-30147.980,-15841.698,-33078.590
1512177344,-4.300,-5.500,-10.300,-35950.000,-214900.000,1005620.000,7000.000,0.000,5000.000,-151.345,109.760,-16.459,80.344,9.549,-84.595,-30220.993,-15391.808,-33152.748
1512177344,-8.400,-0.400,-11.700,-41380.000,-217900.000,1017460.000,7000.000,0.000,5000.000,-119.678,-7.716,-2.548,30.843,5.851,-62.389,-29921.066,-15391.365,-33305.305
1512177344,-8.900,-0.100,-10.400,-33330.000,-219970.000,1022030.000,7000.000,0.000,5000.000,-52.868,38.272,20.967,-12.283,9.197,-29.837,-30144.730,-15091.698,-33303.246
1512177344,-9.200,-3.100,-8.500,-42420.000,-213870.000,1031130.000,12000.000,-5000.000,0.000,36.177,136.609,55.644,-17.383,1.091,-19.974,-29997.238,-15616.478,-33604.759
1512177344,-2.800,2.400,-7.100,-82520.000,-213440.000,1013180.000,12000.000,-5000.000,0.000,50.600,140.846,86.786,-3.507,-4.554,-28.936,-29846.405,-15466.240,-33305.977
1512177344,-2.400,2.500,-7.200,-73240.000,-209230.000,1013980.000,12000.000,-5000.000,0.000,-0.238,22.719,93.100,-20.442,-9.318,-17.150,-29958.275,-15316.414,-33379.952
1512177344,-3.200,1.300,-6.800,-77330.000,-210630.000,1006100.000,12000.000,-5000.000,0.000,8.454,8.867,82.517,-37.184,-14.527,-10.773,-29769.890,-15091.126,-33643.936
1512177344,-0.800,0.300,-6.500,-80690.000,-208250.000,995850.000,12000.000,-5000.000,0.000,73.844,93.451,32.053,16.399,3.069,-22.396,-29619.873,-15090.904,-33607.704
1512177344,3.300,-2.000,-4.100,-83740.000,-209530.000,974790.000,8000.000,-15000.000,13000.000,268.718,122.560,46.171,53.178,21.860,-5.855,-29320.847,-15277.962,-33872.841
1512177344,1.600,-3.500,-6.900,-71530.000,-208310.000,1001400.000,8000.000,-15000.000,13000.000,300.255,146.654,42.450,-49.180,-6.312,90.309,-29547.913,-15728.302,-33946.136
1512177344,-0.800,-2.000,-6.400,-86430.000,-201840.000,987060.000,8000.000,-15000.000,13000.000,-30.771,145.613,43.514,-92.514,-24.991,56.829,-29285.896,-15840.408,-33910.919
1512177344,-3.600,-10.700,-8.500,-66350.000,-216670.000,1023440.000,8000.000,-15000.000,13000.000,-343.504,-54.047,24.430,-52.326,2.611,-57.194,-30741.554,-14417.587,-33035.340
1512177344,-1.500,-9.300,-7.500,-46630.000,-206970.000,996340.000,8000.000,-15000.000,13000.000,-235.112,-188.974,6.340,-45.108,73.428,-89.836,-30067.680,-14604.080,-33603.653
1512177344,-5.300,-8.100,-7.700,-50660.000,-209660.000,1029600.000,12000.000,-8000.000,6000.000,-7.329,-143.362,-196.483,-75.687,78.604,-55.156,-29281.563,-14902.901,-33685.493
1512177344,-7.200,-2.500,-10.400,-38330.000,-197080.000,1016110.000,12000.000,-8000.000,6000.000,269.292,-0.031,-349.754,58.221,40.367,-66.707,-29134.659,-15615.174,-33462.097
1512177344,-5.600,-6.400,-12.700,-48340.000,-204040.000,1030580.000,12000.000,-8000.000,6000.000,570.203,-21.560,-303.360,97.823,-51.530,4.083,-28765.015,-16852.128,-33053.360
1512177344,-3.300,-3.200,-7.900,-53470.000,-210080.000,1033140.000,12000.000,-8000.000,6000.000,438.430,46.671,-66.767,15.892,-112.793,131.275,-28619.651,-17901.909,-32867.622
1512177345,-2.000,1.900,-7.200,-74710.000,-199830.000,1013120.000,-8000.000,-5000.000,0.000,-103.912,53.162,13.882,21.353,-62.337,104.812,-28584.045,-18314.354,-32943.123
1512177345,-2.700,7.300,-6.400,-72270.000,-214360.000,992860.000,-8000.000,-5000.000,0.000,-299.590,4.851,-17.907,63.618,-0.990,48.233,-28656.006,-17639.458,-32942.177
1512177345,-2.100,0.800,-7.600,-62130.000,-203740.000,1007810.000,-8000.000,-5000.000,0.000,-154.299,76.676,-32.607,91.297,24.862,22.403,-28357.101,-17864.006,-33094.826
1512177345,1.200,-1.600,-4.100,-65550.000,-206970.000,994870.000,-8000.000,-5000.000,0.000,117.779,213.705,24.047,84.253,2.773,23.706,-28582.092,-17864.357,-33092.918
1512177345,0.900,-1.600,-6.800,-72020.000,-205570.000,1010560.000,-8000.000,-5000.000,0.000,258.623,311.007,86.126,43.286,-32.976,38.957,-28357.101,-17864.006,-33094.826
1512177345,0.500,-7.900,-4.700,-58350.000,-210020.000,1023380.000,1000.000,8000.000,0.000,191.672,267.012,136.175,7.338,-44.349,41.136,-28132.355,-17863.670,-33621.742
1512177345,-2.000,-4.700,-4.100,-58960.000,-212950.000,1017700.000,1000.000,8000.000,0.000,15.374,139.594,154.500,-40.588,-23.147,46.160,-28281.235,-17638.893,-33395.363
1512177345,-2.400,-2.000,-6.400,-67260.000,-208560.000,1041440.000,1000.000,8000.000,0.000,-160.543,49.598,150.570,-95.845,-11.397,45.645,-28282.318,-17863.899,-33545.464
1512177345,-4.900,-0.400,-8.800,-88260.000,-225770.000,1025450.000,1000.000,8000.000,0.000,-293.314,54.666,185.976,-130.036,13.732,12.101,-28354.401,-17189.003,-33769.508
1512177345,-10.100,5.300,-11.100,-50230.000,-211980.000,1003850.000,1000.000,8000.000,0.000,-347.121,66.398,152.188,-115.911,54.530,-42.123,-28353.348,-16964.012,-33694.405
1512177345,-8.800,1.100,-8.100,-71230.000,-207760.000,978090.000,8000.000,1000.000,-10000.000,-327.782,8.902,76.582,-83.754,89.298,-96.262,-28202.362,-16738.777,-33770.576
1512177345,-11.200,-0.700,-8.400,-78740.000,-221920.000,1046810.000,8000.000,1000.000,-10000.000,-197.274,-87.920,-21.012,-63.148,89.903,-112.592,-28801.697,-16589.684,-33765.404
1512177345,-3.500,0.700,-3.100,-74770.000,-190730.000,1019170.000,8000.000,1000.000,-10000.000,-30.139,-95.036,-70.848,-56.809,53.918,-97.834,-28274.673,-16138.893,-33769.661
1512177345,-4.000,0.800,-2.700,-45720.000,-211850.000,1028200.000,8000.000,1000.000,-10000.000,50.428,-125.819,-110.302,-45.547,0.143,-90.019,-28501.358,-16514.229,-33767.921
1512177345,0.000,-0.300,-0.800,-65250.000,-224180.000,1000240.000,14000.000,-3000.000,8000.000,1.439,-269.955,-185.071,-20.888,-45.783,-78.665,-28426.239,-16514.122,-33543.571
1512177345,-1.100,0.000,-2.300,-66710.000,-227540.000,990840.000,14000.000,-3000.000,8000.000,-31.117,-381.026,-220.042,28.795,-71.104,-86.408,-28427.185,-16739.113,-33393.669
1512177345,-7.900,-1.300,-1.100,-61040.000,-241390.000,963320.000,14000.000,-3000.000,8000.000,-62.544,-585.015,-263.851,58.858,-55.579,-90.987,-28502.365,-16814.232,-33093.071
1512177345,-6.100,-7.500,-3.100,-55300.000,-222050.000,1000180.000,14000.000,-3000.000,8000.000,-103.903,-782.650,-286.458,32.759,-48.334,-71.577,-28803.574,-17114.677,-32790.657
1512177345,-0.900,-8.500,-0.500,-68300.000,-230710.000,979430.000,14000.000,-3000.000,8000.000,-180.126,-981.370,-328.765,2.332,-16.043,-38.437,-29328.842,-17190.468,-32636.238
1512177345,-3.500,-12.100,-2.400,-37780.000,-234070.000,1045040.000,12000.000,-8000.000,-6000.000,-344.021,-1119.244,-416.904,-42.805,24.757,-11.947,-30004.547,-17416.481,-32030.602
1512177345,-4.900,-12.500,1.100,-9770.000,-199280.000,1015990.000,12000.000,-8000.000,-6000.000,-449.055,-1126.691,-512.264,-70.098,60.794,-20.323,-30531.006,-17792.274,-31576.317
1512177345,-2.800,-10.000,1.500,-78190.000,-216920.000,1017760.000,12000.000,-8000.000,-6000.000,-443.136,-1165.873,-678.617,-51.903,82.238,-43.942,-30829.178,-17417.717,-31273.598
1512177345,-4.700,-6.700,0.800,-75560.000,-219540.000,1023620.000,12000.000,-8000.000,-6000.000,-397.710,-1320.347,-855.464,-59.802,104.538,-110.033,-30456.543,-17942.162,-31277.031
1512177345,4.300,2.300,7.500,-60550.000,-195560.000,1015080.000,19000.000,-1000.000,0.000,-937.285,-1539.258,-1309.657,-18.812,103.605,89.002,-31134.018,-18543.175,-30821.556
1512177345,-6.400,3.200,2.300,-78740.000,-227050.000,980770.000,19000.000,-1000.000,0.000,-590.706,-1597.075,-1512.716,-153.234,-95.245,-165.798,-31735.550,-18994.087,-29841.682
1512177345,-1.500,-10.900,2.300,-57310.000,-207520.000,1000000.000,19000.000,-1000.000,0.000,-263.565,-1799.535,-1515.081,-0.029,69.539,-12.892,-31662.125,-19443.977,-28942.528
1512177345,4.100,-17.200,7.600,-61580.000,-226380.000,1031560.000,19000.000,-1000.000,0.000,-264.979,-1597.579,-1548.512,-43.663,16.056,0.891,-32305.557,-20869.934,-27962.768
1512177345,3.500,-12.300,10.700,-37600.000,-210630.000,998050.000,19000.000,-1000.000,0.000,-205.221,-1288.072,-1633.451,-12.523,20.478,-4.763,-31863.563,-22819.275,-26430.000
1512177345,2.300,-2.900,15.700,-70130.000,-221010.000,984370.000,1000.000,-1000.000,10000.000,-680.772,-1499.058,-1993.941,-92.931,-15.319,132.058,-30972.862,-24992.935,-25463.661
1512177345,2.100,-8.300,16.600,-53040.000,-224730.000,977780.000,1000.000,-1000.000,10000.000,-1313.680,-929.090,-1986.203,-74.214,-66.632,239.573,-29217.255,-26565.308,-25104.370
1512177345,0.000,-10.300,18.800,-71780.000,-206540.000,1016850.000,1000.000,-1000.000,10000.000,-1373.152,-1622.825,-708.074,502.632,-349.222,-170.270,-27457.206,-27050.171,-25607.070
1512177345,4.800,-5.300,17.700,-87220.000,-206730.000,946960.000,1000.000,-1000.000,10000.000,-212.022,-857.824,-165.688,-198.879,7.455,110.436,-28017.769,-26676.010,-25114.624
1512177345,1.100,-7.300,21.700,-39000.000,-203370.000,962830.000,1000.000,-1000.000,10000.000,1057.675,159.191,-312.193,14.653,-277.135,208.488,-28019.325,-27013.512,-25189.774
1512177345,-10.800,-15.400,19.700,-32780.000,-233640.000,1049260.000,-5000.000,1000.000,0.000,1099.927,-659.240,899.813,90.064,-172.388,153.538,-27986.679,-28250.961,-23765.671
1512177345,-7.200,-13.300,22.900,-6100.000,-201540.000,1018680.000,-5000.000,1000.000,0.000,-100.447,-558.664,969.657,-40.980,159.101,-14.069,-29334.084,-27765.480,-22966.468
1512177345,-5.900,-14.100,31.600,14280.000,-186280.000,988770.000,-5000.000,1000.000,0.000,35.784,-417.589,-44.367,8.366,-49.556,-59.999,-29330.185,-26902.977,-22928.573
1512177345,-5.600,-18.800,31.800,7200.000,-196840.000,1058650.000,-5000.000,1000.000,0.000,467.817,-540.356,-1101.929,-89.085,9.011,-41.376,-28173.462,-28213.745,-22676.568
1512177345,-3.900,-6.100,36.000,-36190.000,-193360.000,988100.000,3000.000,-7000.000,-18000.000,243.688,124.498,-1764.885,-67.401,-123.962,2.714,-25558.159,-30309.814,-23187.340
1512177346,-12.800,1.500,35.400,-21730.000,-225400.000,998410.000,3000.000,-7000.000,-18000.000,-245.604,14.966,-769.726,30.681,-142.659,86.383,-23463.837,-31431.679,-24443.214
1512177346,1.600,-9.900,43.100,-790.000,-187680.000,1035950.000,3000.000,-7000.000,-18000.000,-406.695,-131.753,-705.410,22.038,-10.028,121.774,-22415.527,-31730.110,-25127.266
1512177346,-12.900,2.500,42.600,-25390.000,-197450.000,954220.000,3000.000,-7000.000,-18000.000,-270.004,-244.220,-983.126,3.575,30.848,147.030,-21815.186,-31579.201,-25807.289
1512177346,-1.700,4.100,48.600,-37660.000,-199460.000,945620.000,3000.000,-7000.000,-18000.000,12.772,-535.347,-1014.157,119.751,19.720,237.136,-20767.883,-32102.638,-26491.463
1512177346,1.600,-11.300,53.400,-9520.000,-182370.000,986020.000,-7000.000,-7000.000,-18000.000,254.692,-533.365,-751.595,224.657,131.424,91.180,-19642.426,-32025.948,-26275.978
1512177346,-4.300,-4.000,53.800,-18310.000,-197750.000,972530.000,-7000.000,-7000.000,-18000.000,324.515,-715.537,-404.748,301.494,318.589,120.674,-19420.197,-32625.618,-26428.169
1512177346,0.100,-4.800,57.700,-980.000,-191160.000,1024170.000,-7000.000,-7000.000,-18000.000,364.436,-523.118,92.214,177.897,251.016,93.799,-18968.552,-32324.928,-25831.856
1512177346,9.100,-22.100,64.600,10560.000,-155090.000,1088260.000,-7000.000,-7000.000,-18000.000,319.325,-486.729,568.221,361.260,201.670,148.407,-19493.774,-32400.719,-25602.440
1512177346,4.000,-10.100,67.000,-26310.000,-161010.000,1060970.000,-7000.000,-7000.000,-18000.000,124.994,-166.079,860.751,228.067,209.819,135.817,-19941.116,-31876.396,-24998.375
1512177346,-0.100,1.100,64.200,1710.000,-182920.000,1023380.000,5000.000,-8000.000,3000.000,66.902,-95.180,1154.388,256.368,215.998,154.094,-20086.578,-30901.604,-24696.648
1512177346,-2.400,12.400,63.900,-58470.000,-172550.000,971250.000,5000.000,-8000.000,3000.000,104.381,-167.048,1334.845,215.402,160.559,114.753,-20909.973,-30602.852,-24164.497
1512177346,-10.700,13.600,67.000,-32840.000,-217530.000,944340.000,5000.000,-8000.000,3000.000,102.064,-336.771,1273.457,219.666,131.488,47.003,-21130.951,-29853.172,-22887.245
1512177346,-12.400,5.700,75.500,-5490.000,-207820.000,949710.000,5000.000,-8000.000,3000.000,57.521,-432.000,1319.387,166.200,84.385,-35.914,-21952.545,-29179.405,-22129.921
1512177346,-8.500,4.100,81.600,-29720.000,-193660.000,962040.000,1000.000,1000.000,-20000.000,174.343,-367.791,1349.019,95.103,62.814,-70.763,-22623.642,-28430.412,-21073.845
1512177346,7.200,-0.900,85.000,-44560.000,-188900.000,1005310.000,1000.000,1000.000,-20000.000,583.624,-177.306,1493.135,59.800,79.041,-26.116,-23220.306,-27756.310,-20468.437
1512177346,4.800,-2.900,87.100,35770.000,-179320.000,1034480.000,1000.000,1000.000,-20000.000,1052.672,-164.413,1817.660,78.719,16.388,28.508,-24041.382,-27082.542,-18661.125
1512177346,6.900,9.100,94.900,18550.000,-137020.000,985960.000,1000.000,1000.000,-20000.000,1166.213,-291.664,1972.373,109.706,-9.303,40.568,-25087.296,-26334.114,-17226.860
1512177346,0.700,8.400,94.900,60.000,-180480.000,1032290.000,1000.000,1000.000,-20000.000,934.273,-337.074,2072.265,141.208,-75.190,86.040,-26283.127,-25585.899,-15641.319
1512177346,-1.600,1.100,101.100,-12020.000,-183230.000,1046330.000,5000.000,-5000.000,-16000.000,533.653,-366.116,1863.809,131.072,-42.651,77.498,-27703.522,-24688.042,-14503.792
1512177346,15.300,-20.400,101.500,-32960.000,-146970.000,1065670.000,5000.000,-5000.000,-16000.000,155.794,-303.779,1378.826,68.446,22.015,86.101,-28145.752,-23113.701,-13149.254
1512177346,8.500,0.700,105.300,-53770.000,-156430.000,1010250.000,5000.000,-5000.000,-16000.000,-40.596,-31.490,1276.717,35.359,-21.659,69.465,-28815.796,-22139.702,-12018.059
1512177346,3.600,-12.100,104.400,-25570.000,-182190.000,1024600.000,5000.000,-5000.000,-16000.000,-44.154,143.247,1501.146,42.258,-21.244,68.143,-29036.072,-21165.031,-11340.706
1512177346,0.700,-11.500,112.100,-40650.000,-191470.000,1022580.000,5000.000,-5000.000,-16000.000,-19.984,106.670,1649.550,69.690,-25.377,42.633,-29630.554,-20040.932,-10435.081
1512177346,0.100,-12.300,116.200,-8180.000,-188050.000,970830.000,-10000.000,3000.000,-8000.000,13.745,-35.252,1601.573,51.897,-61.668,-9.171,-30073.700,-18616.600,-9530.617
1512177346,0.000,-17.200,125.700,2380.000,-204280.000,983220.000,-10000.000,3000.000,-8000.000,11.032,-124.666,1438.114,16.323,-43.541,-14.745,-30218.826,-17641.808,-8553.886
1512177346,-3.900,-21.700,118.100,3170.000,-205140.000,1014830.000,-10000.000,3000.000,-8000.000,48.001,-122.382,1394.952,-26.968,-58.867,-43.061,-30363.358,-16517.021,-7727.104
1512177346,-1.600,-15.700,121.300,-18620.000,-161440.000,1001340.000,-10000.000,3000.000,-8000.000,227.066,41.714,1469.543,-46.539,-95.344,-64.925,-30429.184,-14642.128,-6263.107
1512177346,1.500,-9.200,128.600,18190.000,-173710.000,990600.000,-12000.000,8000.000,-10000.000,482.588,76.837,1458.440,-36.592,-111.613,-48.981,-30681.389,-12505.005,-4909.890
1512177346,-7.300,-2.000,129.400,31620.000,-160710.000,961000.000,-12000.000,8000.000,-10000.000,509.733,111.055,1462.684,-11.538,-115.785,41.068,-30821.548,-10442.711,-3782.669
1512177346,-4.700,-33.200,142.700,24540.000,-180850.000,1072450.000,-12000.000,8000.000,-10000.000,525.138,28.101,1558.563,-8.469,-157.052,89.598,-30996.689,-7817.970,-2692.367
1512177346,-6.900,-6.800,139.700,46020.000,-192690.000,1010930.000,-12000.000,8000.000,-10000.000,436.060,-118.457,1329.160,-52.278,-183.359,119.998,-30950.523,-6017.906,-1566.857
1512177346,-6.000,-19.300,145.000,27770.000,-145570.000,1027890.000,-12000.000,8000.000,-10000.000,165.188,-98.421,980.436,-122.097,-214.003,134.460,-30902.710,-3842.834,-516.174
1512177346,2.000,-4.700,141.800,240.000,-186520.000,1052920.000,-26000.000,-8000.000,-10000.000,81.021,-312.276,481.688,-298.148,-263.147,87.811,-30671.882,-2679.985,682.442
1512177346,4.300,-21.200,146.600,25570.000,-169620.000,1026550.000,-26000.000,-8000.000,-10000.000,-159.334,-72.767,-90.234,-269.292,-194.362,92.474,-30481.957,-2192.200,1131.073
1512177346,0.900,-14.500,156.300,26180.000,-167110.000,1034360.000,-26000.000,-8000.000,-10000.000,-257.468,22.113,-340.784,-48.098,-26.110,112.966,-30557.487,-2342.308,1431.640
1512177346,4.900,-1.900,154.700,-51760.000,-150820.000,1030940.000,-26000.000,-8000.000,-10000.000,-141.518,-66.177,-168.309,99.162,9.249,157.638,-30446.914,-2754.646,1280.487
1512177346,6.000,0.900,157.800,-50600.000,-103090.000,1002260.000,-14000.000,7000.000,-22000.000,-164.948,-168.317,148.683,87.709,-94.325,183.385,-30148.788,-3204.201,1577.736
1512177346,-15.400,-11.300,154.700,36130.000,-166320.000,1012210.000,-14000.000,7000.000,-22000.000,-437.539,34.967,42.031,-54.993,-196.084,68.933,-29472.611,-2978.187,1909.599
1512177347,-20.600,-24.000,161.500,47120.000,-124880.000,1027890.000,-14000.000,7000.000,-22000.000,-766.825,492.475,-105.067,-62.275,-217.591,-21.571,-29323.135,-3090.462,1870.766
1512177347,-9.600,-3.900,162.700,-29600.000,-114070.000,1025630.000,-14000.000,7000.000,-22000.000,-576.381,430.901,-149.427,0.401,-186.777,-60.668,-28873.199,-3089.790,1716.957
1512177347,0.700,9.600,162.600,-39920.000,-166080.000,1048890.000,-14000.000,7000.000,-22000.000,-225.551,182.582,-167.596,42.278,-103.059,-64.783,-29173.950,-3240.242,1569.435
1512177347,5.900,-2.800,169.800,11230.000,-114750.000,953980.000,-35000.000,21000.000,-11000.000,70.671,-33.936,-105.426,60.465,-46.504,-12.551,-29175.308,-3540.245,1569.298
1512177347,-10.300,-16.000,177.200,34730.000,-115360.000,1076900.000,-35000.000,21000.000,-11000.000,216.917,-87.348,9.510,65.944,-45.128,56.119,-29323.624,-3165.459,1570.732
1512177347,-1.600,4.100,171.400,22220.000,-142880.000,986270.000,-35000.000,21000.000,-11000.000,197.168,-134.567,106.072,52.254,-75.168,93.631,-28948.959,-3239.906,1567.513
1512177347,-11.700,12.800,172.400,44560.000,-152280.000,940430.000,-35000.000,21000.000,-11000.000,42.698,-196.742,96.154,22.044,-111.287,118.600,-29099.258,-3315.132,1643.761
1512177347,-9.300,24.000,178.300,42540.000,-130000.000,956420.000,-35000.000,21000.000,-11000.000,-93.974,-204.453,109.072,4.880,-141.669,127.467,-29173.737,-3240.242,2019.432
1512177347,28.400,12.000,190.400,32530.000,-133790.000,984010.000,-40000.000,8000.000,-23000.000,-238.049,-226.055,117.570,-4.886,-163.145,114.626,-29172.348,-2940.239,2094.566
1512177347,-13.800,16.100,184.400,-19650.000,-170290.000,1068050.000,-40000.000,8000.000,-23000.000,-357.582,-252.568,-68.679,-9.285,-179.911,92.269,-29245.850,-2640.343,2395.348
1512177347,-4.500,11.500,178.800,26120.000,-155460.000,942570.000,-40000.000,8000.000,-23000.000,-406.131,-179.445,-353.767,-29.745,-88.829,74.295,-28946.365,-2789.894,2692.711
1512177347,-6.000,-0.400,178.800,-16600.000,-156370.000,986210.000,-40000.000,8000.000,-23000.000,-370.869,-25.703,-286.626,-49.794,-97.467,77.895,-29172.943,-3165.245,2919.456
1512177347,0.800,-4.100,184.200,23800.000,-161320.000,1036440.000,-42000.000,10000.000,-1000.000,-226.350,83.150,-124.246,-28.575,-75.342,42.659,-28949.142,-3389.900,2542.442
1512177347,11.200,-4.500,188.600,46690.000,-129640.000,982970.000,-42000.000,10000.000,-1000.000,-99.172,46.813,-15.923,-11.986,-116.392,46.619,-29098.129,-3165.123,2543.831
1512177347,2.700,9.500,189.900,61100.000,-117800.000,1045650.000,-42000.000,10000.000,-1000.000,-24.027,-10.943,78.777,-14.440,-122.563,36.440,-28950.302,-3614.906,2242.332
1512177347,6.000,31.400,191.200,56270.000,-130620.000,1023440.000,-42000.000,10000.000,-1000.000,18.349,-46.283,158.158,-9.213,-107.544,38.227,-29098.206,-3165.123,2393.822
1512177347,-10.000,31.000,189.900,72140.000,-143620.000,1069580.000,-42000.000,10000.000,-1000.000,94.581,-75.071,187.943,-0.385,-100.013,62.652,-29173.508,-3240.242,2469.429
1512177347,-15.700,40.200,193.100,93870.000,-160220.000,1029480.000,-50000.000,15000.000,-10000.000,142.548,-37.485,125.873,19.596,-92.340,79.102,-28797.836,-3089.668,2466.316
1512177347,-17.200,43.900,212.700,45470.000,-130070.000,1036620.000,-50000.000,15000.000,-10000.000,88.659,14.954,34.659,28.738,-109.950,96.231,-29173.126,-3165.245,2544.456
1512177347,-9.700,39.800,202.300,38880.000,-133180.000,1045530.000,-50000.000,15000.000,-10000.000,10.431,24.527,-4.818,30.953,-138.778,103.300,-29321.823,-2865.456,2470.879
1512177347,-13.400,25.700,206.100,52980.000,-103390.000,1075380.000,-50000.000,15000.000,-10000.000,-46.228,-51.285,-63.470,18.892,-126.433,92.842,-28796.066,-2714.668,2616.478
1512177347,-15.700,19.000,212.100,43760.000,-128110.000,962220.000,-50000.000,15000.000,-10000.000,-42.187,-65.066,-115.698,7.937,-126.594,87.459,-29397.125,-2940.575,2546.486
1512177347,-17.200,12.100,212.700,30580.000,-97050.000,964050.000,-47000.000,-1000.000,-27000.000,-35.613,-77.979,-62.344,-7.960,-125.341,91.064,-29248.764,-3315.346,2620.018
1512177347,-6.700,1.200,215.300,38270.000,-111630.000,950200.000,-47000.000,-1000.000,-27000.000,-33.318,-28.822,-69.602,-10.962,-117.093,101.604,-29171.738,-2865.242,2619.591
1512177347,-2.700,-9.900,217.700,21550.000,-120970.000,953860.000,-47000.000,-1000.000,-27000.000,-111.156,14.187,-1.818,1.921,-127.593,98.799,-29098.839,-3315.125,2468.765
1512177347,-4.800,-14.500,215.400,370.000,-116880.000,1001590.000,-47000.000,-1000.000,-27000.000,-158.081,80.336,2.529,-2.094,-126.614,59.139,-29136.123,-3315.186,2919.068
1512177347,4.300,-6.000,220.500,59270.000,-111690.000,983460.000,-43000.000,8000.000,-13000.000,-155.663,84.581,17.502,28.047,-104.407,54.147,-29211.227,-3315.300,2694.702
1512177347,1.900,6.800,223.800,71660.000,-131960.000,1023010.000,-43000.000,8000.000,-13000.000,-104.855,9.316,36.101,34.664,-97.181,45.755,-29212.829,-3652.794,2544.556
1512177347,11.700,20.600,224.500,64510.000,-97410.000,991460.000,-43000.000,8000.000,-13000.000,-85.815,-16.245,11.234,34.132,-102.738,56.964,-29060.982,-3240.074,2505.974
1512177347,-2.300,-1.700,223.200,45040.000,-134700.000,1031980.000,-43000.000,8000.000,-13000.000,-132.491,-30.236,29.166,29.238,-102.309,58.911,-29098.434,-3240.127,2618.782
1512177347,-2.500,-11.700,227.700,68360.000,-100400.000,1047300.000,-43000.000,8000.000,-13000.000,-120.867,-15.277,36.317,17.415,-110.528,66.529,-29211.135,-3315.293,2882.202
1512177347,-0.700,3.600,228.200,-52310.000,-110840.000,998660.000,-56000.000,10000.000,-28000.000,-170.541,3.858,43.125,26.120,-108.474,80.651,-29285.484,-3165.413,2845.405
1512177347,-9.300,-7.300,226.900,35030.000,-121460.000,1012630.000,-56000.000,10000.000,-28000.000,-247.503,20.806,56.460,10.908,-112.209,65.124,-29250.282,-3652.855,2619.873
1512177347,-3.900,-13.700,223.700,46080.000,-142460.000,938540.000,-56000.000,10000.000,-28000.000,-238.263,121.777,50.549,-24.703,-119.853,19.790,-28875.534,-3727.295,2804.146
1512177347,11.700,-3.300,226.200,2930.000,-114560.000,966310.000,-56000.000,10000.000,-28000.000,-140.429,119.890,0.790,22.742,-88.179,22.074,-29062.264,-3540.070,2655.831
1512177347,9.700,-28.900,226.400,45100.000,-131100.000,952640.000,-56000.000,10000.000,-28000.000,-58.439,-2.766,-32.030,51.913,-79.562,34.218,-29212.822,-3652.794,2544.556
1512177347,20.000,-11.300,229.300,-15750.000,-120850.000,1009280.000,-65000.000,5000.000,-23000.000,-2.116,-24.128,9.754,29.616,-96.341,35.742,-29100.662,-3727.631,2543.564
1512177348,14.800,1.300,234.900,-17640.000,-126460.000,1001650.000,-65000.000,5000.000,-23000.000,20.359,11.630,37.918,19.139,-91.133,47.582,-29176.208,-3840.248,2469.154
1512177348,-1.700,-4.400,237.200,48650.000,-116150.000,997190.000,-65000.000,5000.000,-23000.000,16.075,38.329,41.151,30.482,-89.918,63.873,-28800.873,-3764.687,2465.996
1512177348,-15.800,-10.300,236.100,70800.000,-119140.000,968200.000,-65000.000,5000.000,-23000.000,-11.629,39.358,40.754,52.865,-86.382,59.202,-29176.880,-3990.242,2469.078
1512177348,-24.900,-23.800,242.100,83440.000,-95150.000,987000.000,-70000.000,0.000,-25000.000,-66.733,30.765,19.668,65.340,-83.456,52.007,-28949.783,-3539.909,2617.363
1512177348,-26.200,-11.300,240.400,28810.000,-120790.000,1100890.000,-70000.000,0.000,-25000.000,-69.002,28.610,28.158,67.913,-87.439,40.931,-28951.096,-3839.897,2692.238
1512177348,-16.000,8.500,233.400,48340.000,-123720.000,1049870.000,-70000.000,0.000,-25000.000,-29.792,24.373,42.572,67.602,-88.945,21.503,-28948.761,-3314.903,2617.470
1512177348,-17.300,24.100,224.200,107300.000,-101620.000,1074460.000,-70000.000,0.000,-25000.000,25.440,9.479,53.980,60.729,-92.289,20.636,-29176.056,-3840.248,2769.142
1512177348,-14.500,48.600,226.400,72080.000,-134090.000,1060910.000,-70000.000,0.000,-25000.000,65.527,-7.606,77.951,48.342,-96.564,21.095,-29176.437,-3915.245,2694.115
1512177348,-26.600,43.100,261.300,60670.000,-153080.000,1096190.000,-70000.000,-3000.000,-25000.000,70.529,-11.905,98.266,25.435,-102.970,24.340,-29023.621,-3315.010,2918.114
1512177348,-57.400,24.600,277.000,50540.000,-110050.000,1026980.000,-70000.000,-3000.000,-25000.000,61.878,-14.070,105.596,14.918,-98.121,28.756,-29398.239,-3240.578,2996.330
1512177348,19.800,53.400,247.100,54630.000,-127810.000,1015870.000,-70000.000,-3000.000,-25000.000,40.782,-14.078,91.429,10.176,-75.167,30.308,-29322.906,-3165.459,2995.720
1512177348,13.800,32.800,236.400,32170.000,-121770.000,966670.000,-70000.000,-3000.000,-25000.000,45.826,11.659,45.753,9.981,-68.587,40.102,-29548.431,-3315.804,3297.569
1512177348,4.800,9.600,247.100,18370.000,-119630.000,914670.000,-86000.000,-1000.000,-47000.000,34.691,42.689,11.586,29.423,-77.169,46.138,-29399.597,-3540.581,2996.193
1512177348,-19.700,-8.100,250.100,36620.000,-130550.000,919310.000,-86000.000,-1000.000,-47000.000,1.470,22.321,20.627,53.417,-90.104,49.734,-29400.681,-3765.587,2846.092
1512177348,22.100,20.800,244.900,52670.000,-82950.000,1028930.000,-86000.000,-1000.000,-47000.000,-36.015,30.789,31.841,54.575,-86.552,37.962,-29623.169,-3240.913,3148.247
1512177348,7.700,16.200,244.300,51270.000,-78120.000,1045530.000,-86000.000,-1000.000,-47000.000,-37.217,33.976,40.364,55.793,-86.894,30.034,-29022.537,-3090.019,3068.214
1512177348,9.700,29.700,235.400,116390.000,-97110.000,1041200.000,-86000.000,-1000.000,-47000.000,-6.739,22.221,66.350,57.263,-84.296,27.009,-29397.537,-3090.569,3071.404
1512177348,5.100,34.900,238.100,17700.000,-92830.000,1028990.000,-96000.000,1000.000,-33000.000,12.361,13.692,70.859,57.961,-71.748,30.016,-29397.156,-3015.572,3146.431
1512177348,2.900,47.800,229.400,83440.000,-137330.000,1015200.000,-96000.000,1000.000,-33000.000,23.057,14.782,68.886,58.303,-74.823,42.556,-29847.488,-3091.255,3150.230
1512177348,-10.400,15.400,235.800,39920.000,-113950.000,1013610.000,-96000.000,1000.000,-33000.000,12.022,15.792,92.185,51.652,-85.152,41.878,-29398.544,-3315.575,3071.297
1512177348,-28.100,-0.900,236.100,41990.000,-118900.000,948730.000,-96000.000,1000.000,-33000.000,-10.569,40.300,105.802,39.869,-85.451,36.564,-29621.475,-2865.913,3148.415
1512177348,-22.200,4.800,243.100,40040.000,-145570.000,981140.000,-96000.000,1000.000,-33000.000,-30.022,85.097,123.799,27.579,-102.340,19.406,-29845.764,-2716.240,3225.410
1512177348,-25.000,13.800,241.500,61040.000,-110530.000,1043210.000,-91000.000,0.000,-52000.000,-75.006,149.087,139.359,28.848,-103.425,-4.303,-29396.927,-2940.575,2921.471
1512177348,-41.700,13.700,245.400,85140.000,-108030.000,1022950.000,-91000.000,0.000,-52000.000,-126.101,153.286,134.367,42.432,-96.139,-16.339,-29395.813,-2715.569,3146.568
1512177348,-44.700,20.600,243.900,81480.000,-126460.000,1015500.000,-91000.000,0.000,-52000.000,-135.205,142.659,105.420,58.067,-72.954,-26.936,-29395.584,-2640.572,2921.608
1512177348,-31.800,37.300,240.900,76600.000,-103270.000,992430.000,-91000.000,0.000,-52000.000,-55.878,108.650,76.599,59.084,-59.811,-29.399,-29394.531,-2415.565,2996.712
1512177348,-27.600,34.000,234.400,47610.000,-169250.000,989560.000,-101000.000,-7000.000,-52000.000,89.079,6.864,73.014,46.783,-58.017,-3.081,-29543.274,-2153.289,3148.110
1512177348,-80.000,10.700,262.500,22950.000,-85080.000,951720.000,-101000.000,-7000.000,-52000.000,100.696,-46.001,77.263,11.604,-67.764,40.607,-29467.933,-2078.178,3147.506
1512177348,-63.500,-9.200,258.500,127560.000,-106080.000,1020940.000,-101000.000,-7000.000,-52000.000,30.965,29.740,75.452,-8.169,-91.544,32.323,-29355.506,-2115.509,3334.038
1512177348,53.400,50.900,252.900,15260.000,-96370.000,1138920.000,-101000.000,-7000.000,-52000.000,-7.777,88.503,34.579,46.512,-77.579,29.803,-29166.214,-1702.721,3220.131
1512177348,57.100,49.300,253.900,30760.000,-100100.000,1047360.000,-101000.000,-7000.000,-52000.000,-16.959,53.764,40.724,94.198,-80.489,24.078,-29428.353,-1590.622,2922.417
1512177348,20.400,24.400,252.300,54500.000,-110350.000,1047670.000,-107000.000,1000.000,-50000.000,29.164,65.491,88.873,83.279,-81.516,2.345,-29165.558,-1515.221,2845.222
1512177348,-11.300,15.300,250.200,59450.000,-91370.000,929810.000,-107000.000,1000.000,-50000.000,92.765,116.748,145.407,79.344,-87.787,3.362,-29090.599,-1515.114,2769.577
1512177348,-7.100,28.500,251.900,60000.000,-124570.000,947080.000,-107000.000,1000.000,-50000.000,64.351,102.799,154.541,85.282,-86.876,5.055,-29275.246,-877.892,2733.963
1512177348,-4.000,22.600,246.900,33750.000,-88680.000,981810.000,-107000.000,1000.000,-50000.000,57.450,136.378,187.609,35.651,-86.803,-21.609,-29048.501,-502.549,2844.727
1512177348,-7.700,28.000,245.800,70130.000,-156620.000,991880.000,-107000.000,1000.000,-50000.000,39.472,169.477,179.999,31.940,-69.004,-18.183,-29082.977,209.892,2470.390
1512177348,5.300,30.100,249.700,88200.000,-93750.000,954770.000,-119000.000,-7000.000,-55000.000,-2.494,111.818,136.550,47.886,-28.683,-3.457,-29420.822,171.891,2135.727
1512177348,-10.700,4.800,255.100,53280.000,-160710.000,979310.000,-119000.000,-7000.000,-55000.000,-9.746,116.103,123.666,64.249,-40.246,-14.712,-29344.582,472.008,1910.233
1512177349,3.900,12.900,254.100,49800.000,-96440.000,1010190.000,-119000.000,-7000.000,-55000.000,7.295,83.017,123.265,76.868,-43.047,-18.414,-29382.126,509.453,1498.070
1512177349,-9.600,14.800,252.500,87280.000,-91060.000,996580.000,-119000.000,-7000.000,-55000.000,59.257,55.288,137.777,86.537,-17.496,0.820,-29682.083,508.995,1575.630
1512177349,12.800,33.400,249.700,100710.000,-99790.000,1121150.000,-115000.000,-3000.000,-59000.000,121.073,19.070,137.483,83.110,-24.725,17.301,-30056.778,583.443,1503.838
1512177349,-21.700,-4.900,247.800,78920.000,-93690.000,1002140.000,-115000.000,-3000.000,-59000.000,146.373,23.346,154.921,78.674,-40.654,26.194,-29606.064,734.108,1575.096
1512177349,2.800,7.300,244.100,124150.000,-145200.000,1083980.000,-115000.000,-3000.000,-59000.000,99.356,61.716,163.970,61.098,-58.477,12.187,-29907.532,433.662,1352.501
1512177349,-12.400,23.300,247.300,-5430.000,-136110.000,1014770.000,-115000.000,-3000.000,-59000.000,71.111,118.345,133.907,65.517,-40.939,-1.063,-30130.768,883.324,829.628
1512177349,22.100,60.700,241.800,28930.000,-74280.000,995180.000,-115000.000,-3000.000,-59000.000,79.803,130.126,124.480,89.074,-28.874,7.301,-30281.143,808.098,755.867
1512177349,16.600,38.000,255.100,81240.000,-110110.000,1046200.000,-119000.000,-17000.000,-52000.000,107.106,90.602,148.193,119.293,-23.942,18.430,-30056.076,808.434,903.954
1512177349,59.400,60.100,249.900,14100.000,-127810.000,1004700.000,-119000.000,-17000.000,-52000.000,120.462,59.579,175.991,113.826,-43.034,11.370,-30131.439,733.330,829.552
1512177349,34.900,43.300,253.000,-35830.000,-122250.000,957460.000,-119000.000,-17000.000,-52000.000,111.144,77.630,224.959,83.808,-67.650,-9.000,-29907.196,583.656,677.574
1512177349,47.800,26.600,250.900,-730.000,-132020.000,949040.000,-119000.000,-17000.000,-52000.000,101.131,132.043,253.790,59.810,-75.265,-32.138,-29605.698,884.117,975.166
1512177349,44.600,17.200,248.900,-850.000,-103640.000,966860.000,-119000.000,-17000.000,-52000.000,100.115,176.907,252.865,66.008,-70.049,-35.884,-30207.535,508.217,680.092
1512177349,13.300,-4.900,251.700,19410.000,-130490.000,925480.000,-130000.000,-14000.000,-45000.000,81.371,147.020,223.703,90.922,-46.114,-23.684,-29981.781,658.546,828.239
1512177349,15.000,5.600,251.100,10990.000,-129880.000,994930.000,-130000.000,-14000.000,-45000.000,69.935,92.694,139.131,100.300,-29.321,-20.590,-30134.705,58.311,379.250
1512177349,6.000,6.300,242.900,84660.000,-132810.000,1008120.000,-130000.000,-14000.000,-45000.000,84.558,37.267,90.111,99.339,-24.298,-18.732,-30431.900,657.875,607.079
1512177349,-5.900,-8.700,249.700,78550.000,-106380.000,1017460.000,-130000.000,-14000.000,-45000.000,106.467,-12.956,116.906,59.357,-36.769,-25.260,-30057.007,583.443,1053.841
1512177349,-3.200,-16.800,245.400,111270.000,-120850.000,1022160.000,-121000.000,-8000.000,-57000.000,146.310,-19.384,156.905,14.458,-49.946,-10.954,-30056.488,733.437,753.914
1512177349,6.900,3.200,250.300,43580.000,-85450.000,1029850.000,-121000.000,-8000.000,-57000.000,163.932,-17.283,187.015,-10.873,-50.070,5.726,-30205.399,958.214,905.296
1512177349,-3.100,36.500,245.400,44010.000,-103700.000,973270.000,-121000.000,-8000.000,-57000.000,111.721,31.770,187.494,-6.991,-37.965,25.730,-30129.639,1108.330,1054.726
1512177349,-2.100,53.000,238.200,98820.000,-106200.000,995360.000,-121000.000,-8000.000,-57000.000,-2.802,132.076,156.339,20.877,-24.177,26.289,-30281.372,733.101,980.827
1512177349,-6.300,63.900,238.600,41260.000,-116760.000,1002200.000,-121000.000,-8000.000,-57000.000,-91.653,201.446,116.912,64.929,-38.112,-5.648,-30354.233,1182.991,1206.673
1512177349,-14.600,40.700,237.600,42540.000,-98880.000,1036560.000,-138000.000,-12000.000,-57000.000,-119.152,225.996,104.873,109.122,-46.692,-46.578,-29980.087,1033.546,828.423
1512177349,0.500,35.300,243.000,-5920.000,-93080.000,1014220.000,-138000.000,-12000.000,-57000.000,-94.966,211.041,124.360,134.901,-53.889,-87.629,-29603.699,1334.114,900.368
1512177349,-2.000,23.300,245.900,29600.000,-99120.000,990970.000,-138000.000,-12000.000,-57000.000,-24.240,186.500,165.811,143.376,-57.592,-120.881,-30053.452,1408.440,754.234
1512177349,15.000,14.200,252.500,14530.000,-110780.000,1033390.000,-138000.000,-12000.000,-57000.000,54.840,160.878,216.970,137.052,-50.859,-132.733,-30053.329,1408.440,979.225
1512177349,8.000,9.500,262.600,10860.000,-120420.000,984990.000,-158000.000,-21000.000,-59000.000,151.426,115.048,240.597,137.815,-23.837,-110.433,-29903.412,1408.669,827.950
1512177349,11.100,16.800,266.700,-11350.000,-128720.000,1047240.000,-158000.000,-21000.000,-59000.000,261.604,15.398,213.599,120.221,-11.226,-41.059,-30013.916,1858.505,754.120
1512177349,-21.600,8.000,260.300,4820.000,-99000.000,1042420.000,-158000.000,-21000.000,-59000.000,218.798,-71.676,186.555,69.181,-11.258,27.758,-30162.666,2120.781,905.510
1512177349,-19.200,-17.700,243.500,36930.000,-99120.000,1064210.000,-158000.000,-21000.000,-59000.000,144.483,-13.007,170.758,6.998,-25.054,33.464,-30497.726,2645.279,1058.625
1512177349,-24.800,-34.000,243.000,-10560.000,-44980.000,939760.000,-158000.000,-21000.000,-59000.000,19.524,114.476,158.731,25.130,-27.068,23.567,-30308.243,3058.059,1319.725
1512177349,-19.800,-47.100,245.300,23010.000,-72940.000,1028990.000,-140000.000,-7000.000,-52000.000,-46.579,142.078,192.514,60.827,-47.116,-36.980,-30082.916,3133.400,1280.342
1512177349,-13.700,-34.000,245.700,30090.000,-125670.000,990360.000,-140000.000,-7000.000,-52000.000,30.435,177.007,146.848,88.650,-29.854,-69.426,-30044.426,3358.460,1242.630
1512177349,-35.600,-46.300,250.300,56880.000,-125730.000,931880.000,-140000.000,-7000.000,-52000.000,66.485,157.340,124.913,129.937,-24.952,-50.082,-29631.775,3434.074,864.151
1512177349,-42.600,-11.200,249.700,94970.000,-98690.000,969480.000,-140000.000,-7000.000,-52000.000,136.044,47.338,168.180,105.627,-24.608,-37.293,-29555.916,3621.689,901.107
1512177349,-43.700,8.300,242.700,128780.000,-110290.000,1019840.000,-140000.000,-7000.000,-52000.000,267.959,-59.364,212.364,72.409,-3.155,40.276,-29705.315,3733.963,1089.928
1512177349,-40.900,-48.500,244.100,125240.000,-104920.000,977540.000,-156000.000,-15000.000,-57000.000,158.954,-47.154,164.453,84.510,-14.957,101.354,-29853.226,4221.238,866.432
1512177349,-71.900,-20.600,236.600,85690.000,-116030.000,995610.000,-156000.000,-15000.000,-57000.000,-50.265,212.105,161.258,81.631,-63.373,13.838,-29814.865,4408.798,903.694
1512177349,-30.600,-26.600,246.200,94600.000,-120850.000,1088560.000,-156000.000,-15000.000,-57000.000,-42.863,340.688,235.904,101.245,-59.567,-79.923,-29700.943,4746.475,715.408
1512177350,-27.600,-3.100,245.100,87650.000,-102110.000,1013550.000,-156000.000,-15000.000,-57000.000,63.335,254.756,288.848,117.126,-27.370,-87.623,-29737.839,4933.922,228.310
1512177350,9.100,31.000,254.100,1340.000,-28870.000,1056340.000,-166000.000,-19000.000,-60000.000,123.162,182.227,276.666,102.389,-24.070,-98.029,-29662.842,4934.029,227.669
1512177350,20.200,37.000,252.200,32650.000,-60970.000,1072630.000,-166000.000,-19000.000,-60000.000,164.943,179.113,264.469,81.795,-30.292,-111.574,-30035.477,5458.473,231.102
1512177350,15.400,20.900,253.700,-4580.000,-37410.000,1079350.000,-166000.000,-19000.000,-60000.000,145.977,174.836,250.319,70.546,-36.878,-104.534,-29959.473,5683.586,230.568
1512177350,14.200,1.500,239.300,65610.000,-121520.000,1039790.000,-166000.000,-19000.000,-60000.000,131.769,126.840,205.174,69.165,-7.781,-91.508,-29882.553,6133.705,5.135
1512177350,2.800,-9.300,243.800,-10800.000,-71720.000,975520.000,-166000.000,-19000.000,-60000.000,196.456,37.304,156.761,91.570,5.912,-46.270,-30106.888,6283.363,7.118
1512177350,-24.500,-6.500,240.500,82340.000,-105410.000,1047060.000,-166000.000,-26000.000,-57000.000,233.136,-22.528,192.265,93.079,-21.364,-15.941,-30107.513,6133.354,82.054
1512177350,-19.300,11.900,241.900,66890.000,-96190.000,1026550.000,-166000.000,-26000.000,-57000.000,168.104,-43.048,256.281,70.686,-69.886,-30.040,-30182.632,6133.247,-142.311
1512177350,-9.600,1.300,236.600,161990.000,-90270.000,961850.000,-166000.000,-26000.000,-57000.000,79.335,45.432,277.689,53.178,-75.930,-59.390,-30032.288,6208.473,-143.547
1512177350,-20.400,-7.900,232.000,133730.000,-94180.000,1002990.000,-166000.000,-26000.000,-57000.000,34.462,171.383,289.201,63.060,-71.868,-85.678,-29805.649,6583.809,-220.299
1512177350,-9.600,-5.100,222.200,73120.000,-92590.000,1068850.000,-166000.000,-26000.000,-57000.000,40.459,185.360,249.895,106.350,-41.542,-89.523,-29804.260,6883.812,-145.149
1512177350,3.600,-0.400,220.200,34910.000,-65490.000,1109740.000,-159000.000,-26000.000,-71000.000,81.768,92.719,131.836,166.225,-11.862,-50.580,-30030.640,6583.473,-218.376
1512177350,3.100,-13.700,219.400,34730.000,-72750.000,993160.000,-159000.000,-26000.000,-71000.000,113.741,29.879,64.920,205.157,11.814,-16.932,-29803.619,7033.821,-220.085
1512177350,-2.700,-7.900,216.600,54140.000,-77330.000,1027650.000,-159000.000,-26000.000,-71000.000,97.871,3.040,121.099,186.784,13.162,-6.188,-30106.537,6358.360,7.149
1512177350,3.600,-3.700,218.100,60490.000,-53830.000,1001100.000,-159000.000,-26000.000,-71000.000,149.430,-47.293,224.011,122.656,-12.229,-1.375,-30252.197,7333.138,-66.124
1512177350,3.600,-9.600,210.400,77330.000,-60730.000,1034360.000,-179000.000,-42000.000,-69000.000,221.386,-91.036,254.752,52.244,-15.597,6.541,-29952.148,7333.595,6.325
1512177350,2.300,-1.300,208.900,56820.000,-50350.000,974120.000,-179000.000,-42000.000,-69000.000,248.291,-87.763,239.161,9.080,-9.182,32.132,-29727.112,7333.931,79.414
1512177350,-5.500,-1.100,204.100,48770.000,-48650.000,985600.000,-179000.000,-42000.000,-69000.000,207.343,-61.173,267.446,-15.656,-6.114,53.463,-30177.414,7258.263,158.211
1512177350,-14.500,-8.700,196.100,85450.000,-37350.000,966980.000,-179000.000,-42000.000,-69000.000,135.171,7.109,250.644,-15.321,-12.542,56.807,-30100.021,7783.379,232.811
1512177350,-5.900,3.300,193.600,71230.000,-69890.000,988460.000,-179000.000,-42000.000,-69000.000,7.223,132.008,193.791,6.983,-24.255,38.097,-30252.426,7258.141,158.852
1512177350,-8.900,7.300,194.700,25330.000,-67500.000,1037780.000,-165000.000,-38000.000,-89000.000,-137.078,261.111,159.103,36.524,-47.248,-28.359,-29800.400,7708.824,155.235
1512177350,-20.100,-1.500,191.900,123050.000,-45650.000,967160.000,-165000.000,-38000.000,-89000.000,-185.149,318.830,103.172,78.973,-46.077,-84.258,-29799.500,7933.815,-69.664
1512177350,-30.900,-11.100,189.900,71660.000,-61770.000,979430.000,-165000.000,-38000.000,-89000.000,-112.442,279.447,88.097,122.291,-26.095,-107.922,-29800.354,7783.821,-444.740
1512177350,-23.400,-4.800,189.600,89050.000,-42790.000,1035160.000,-165000.000,-38000.000,-89000.000,7.900,197.374,91.688,161.142,-5.971,-97.302,-30025.650,7708.488,-367.867
1512177350,-17.400,-0.300,190.500,31620.000,-36130.000,1023680.000,-180000.000,-44000.000,-71000.000,147.148,60.758,141.736,171.173,4.367,-47.433,-29838.058,7746.261,-519.424
1512177350,-17.700,6.800,185.900,57310.000,-33020.000,1021910.000,-180000.000,-44000.000,-71000.000,206.709,-7.122,211.122,99.477,-19.608,-8.609,-30136.711,8045.815,-516.746
1512177350,-25.000,8.900,182.300,18620.000,-38820.000,1007450.000,-180000.000,-44000.000,-71000.000,177.327,58.857,315.400,18.126,-44.214,-26.351,-30098.915,8120.873,-592.034
1512177350,-24.000,2.000,182.600,1340.000,-27470.000,972170.000,-180000.000,-44000.000,-71000.000,132.740,137.913,275.584,59.330,-31.401,-15.217,-29648.559,8234.047,-895.805
1512177350,-23.400,-3.300,176.200,-5070.000,-34670.000,986570.000,-180000.000,-44000.000,-71000.000,-23.609,81.965,89.764,193.458,-7.488,-13.869,-29608.162,8909.111,-1195.801
1512177350,-22.000,-15.000,170.600,24480.000,-58470.000,992250.000,-180000.000,-47000.000,-81000.000,15.958,-6.676,110.285,212.149,-37.535,-57.777,-29684.875,8533.997,-1232.834
1512177350,-14.100,-15.700,167.900,2560.000,-42240.000,993290.000,-180000.000,-47000.000,-81000.000,213.946,-62.336,319.240,108.333,-67.100,-77.701,-29608.261,8871.613,-1045.822
1512177350,-19.400,-9.100,170.200,37600.000,-56700.000,965700.000,-180000.000,-47000.000,-81000.000,257.174,104.169,421.188,-6.521,-57.021,-58.604,-29381.897,9171.952,-1010.101
1512177350,-22.500,-8.500,166.700,64090.000,-12700.000,985230.000,-180000.000,-47000.000,-81000.000,58.800,216.988,206.029,33.928,-7.349,-7.371,-29492.722,9546.791,-1046.470
1512177350,-22.500,-4.800,164.800,119320.000,-34610.000,1041200.000,-180000.000,-47000.000,-81000.000,-52.504,84.103,63.766,122.789,16.590,-8.164,-30017.128,9695.999,-1191.933
1512177350,-19.700,-3.100,160.100,83070.000,-26120.000,983950.000,-198000.000,-65000.000,-77000.000,110.731,-12.547,180.930,102.410,-5.640,-36.470,-29903.427,9958.664,-1155.273
1512177350,-25.700,4.400,158.700,51210.000,-30640.000,961610.000,-198000.000,-65000.000,-77000.000,170.985,59.515,247.616,75.701,-33.502,-22.047,-30016.899,9771.004,-1416.901
1512177350,-16.000,8.000,158.900,60850.000,-35030.000,1044800.000,-198000.000,-65000.000,-77000.000,59.463,142.707,226.568,105.312,-45.442,-32.649,-29677.338,10221.504,-1344.559
1512177351,-8.900,4.000,159.000,23800.000,-10190.000,994320.000,-198000.000,-65000.000,-77000.000,33.893,139.403,258.169,74.944,-50.999,-89.923,-29339.661,10259.514,-1347.404
1512177351,4.500,8.500,160.100,3910.000,-9090.000,1061580.000,-198000.000,-51000.000,-81000.000,99.710,126.651,274.001,40.721,-52.752,-109.930,-29564.331,10334.175,-1345.467
1512177351,15.200,6.700,155.900,-23990.000,-21910.000,1044490.000,-198000.000,-51000.000,-81000.000,135.437,171.504,307.723,15.976,-44.429,-107.973,-29637.268,10784.065,-1269.615
1512177351,7.500,7.900,151.500,21420.000,-17700.000,929750.000,-198000.000,-51000.000,-81000.000,101.089,203.590,258.296,58.312,-12.852,-63.823,-29561.661,10934.181,-1420.189
1512177351,8.800,28.400,143.800,20140.000,-53530.000,962830.000,-198000.000,-51000.000,-81000.000,55.022,152.485,141.254,130.661,20.020,-14.735,-29336.517,11009.514,-1797.066
1512177351,20.000,49.100,133.400,40410.000,-46570.000,930660.000,-198000.000,-51000.000,-81000.000,-9.327,58.475,95.220,170.999,10.247,-13.460,-29636.551,11009.071,-1869.514
1512177351,24.000,47.500,124.100,30400.000,-19650.000,1010620.000,-191000.000,-65000.000,-74000.000,-2.291,8.234,118.600,179.278,-15.927,-32.799,-29561.783,10934.181,-1645.180
1512177351,23.700,22.600,120.500,-40220.000,-25390.000,1040770.000,-191000.000,-65000.000,-74000.000,32.945,14.449,244.928,127.817,-68.765,-79.495,-29410.614,11234.413,-2021.324
1512177351,18.000,-2.400,121.400,-21420.000,-18800.000,1046390.000,-191000.000,-65000.000,-74000.000,77.417,47.334,393.867,57.651,-85.619,-111.178,-29110.840,11159.859,-1798.912
1512177351,21.400,0.400,121.700,-55970.000,-23440.000,987790.000,-191000.000,-65000.000,-74000.000,122.757,72.036,360.495,53.149,-21.777,-67.587,-29258.774,11609.642,-1722.420
1512177351,23.400,23.300,123.300,-9520.000,-24050.000,1030400.000,-202000.000,-61000.000,-74000.000,179.839,23.317,193.782,123.918,39.641,30.676,-29258.820,11609.642,-1797.417
1512177351,27.200,8.300,124.800,-12630.000,-21970.000,994810.000,-202000.000,-61000.000,-74000.000,198.778,-46.928,75.477,187.488,39.491,103.163,-29333.145,11759.529,-1796.715
1512177351,3.100,3.200,114.600,13920.000,-22030.000,1030460.000,-202000.000,-61000.000,-74000.000,121.254,-113.228,54.937,194.930,11.667,117.974,-29333.435,11684.532,-1721.748
1512177351,0.700,-12.700,110.500,-35770.000,-6530.000,1040710.000,-202000.000,-61000.000,-74000.000,44.094,-70.670,81.685,150.840,-22.947,84.386,-29556.793,12059.196,-1794.670
1512177351,-4.700,-15.200,100.000,-37600.000,-13240.000,971190.000,-202000.000,-61000.000,-74000.000,17.660,46.674,138.209,85.546,-48.485,26.178,-29332.687,11834.526,-1571.678
1512177351,-10.300,-10.800,94.300,-17880.000,-19290.000,986630.000,-203000.000,-52000.000,-86000.000,54.173,177.889,258.597,25.761,-64.936,-19.328,-29406.342,12134.422,-1570.900
1512177351,-10.400,8.300,86.700,23130.000,-23320.000,996700.000,-203000.000,-52000.000,-86000.000,116.206,282.423,380.322,11.202,-56.342,-47.102,-29331.039,12209.526,-1646.507
1512177351,-8.700,8.500,82.600,-1950.000,21610.000,1005620.000,-203000.000,-52000.000,-86000.000,139.601,315.436,450.070,31.027,-49.618,-65.061,-29031.906,12059.975,-2024.132
1512177351,-5.600,-5.900,86.800,-46880.000,-41930.000,1093380.000,-203000.000,-52000.000,-86000.000,91.895,274.808,432.181,51.826,-27.532,-90.297,-28880.096,12435.204,-1800.224
1512177351,-2.400,-23.700,87.600,-63780.000,-29540.000,993840.000,-203000.000,-52000.000,-86000.000,62.703,206.741,259.887,89.966,-7.279,-86.484,-28804.794,12585.320,-2550.804
1512177351,-14.900,-31.700,93.700,-32840.000,-11230.000,972470.000,-193000.000,-59000.000,-86000.000,96.107,154.880,41.648,144.710,-0.831,-76.803,-28654.724,12585.548,-2402.077
1512177351,-11.300,-30.800,98.500,-37780.000,-57010.000,1071110.000,-193000.000,-59000.000,-86000.000,77.497,123.003,-60.010,192.525,3.841,-51.746,-28654.358,12660.545,-2327.034
1512177351,-0.900,-11.200,95.200,-10250.000,-16170.000,993960.000,-193000.000,-59000.000,-86000.000,79.751,-4.212,-9.250,206.263,0.714,-38.657,-28955.170,12510.094,-2624.565
1512177351,-1.100,-22.600,89.100,-22830.000,-15260.000,977230.000,-193000.000,-59000.000,-86000.000,160.211,-133.648,148.178,161.388,-21.776,-23.121,-28655.777,12360.542,-2477.180
1512177351,8.500,-19.300,84.000,-30460.000,-54750.000,1009640.000,-198000.000,-61000.000,-74000.000,231.694,-141.394,337.877,79.596,-49.572,-30.774,-28805.847,12360.313,-2625.908
1512177351,5.500,-28.100,76.000,-18430.000,-32230.000,955020.000,-198000.000,-61000.000,-74000.000,242.537,3.651,463.268,24.958,-78.707,-50.528,-28579.086,12735.649,-2477.638
1512177351,-4.100,-4.500,72.800,-27830.000,-46570.000,964480.000,-198000.000,-61000.000,-74000.000,73.599,286.505,442.615,41.446,-86.272,-86.305,-28538.964,13298.218,-2290.207
1512177351,-10.500,20.100,65.200,-24110.000,-23190.000,939450.000,-198000.000,-61000.000,-74000.000,-22.911,242.002,183.607,177.373,-21.021,-106.990,-27938.003,13561.615,-2745.178
1512177351,-11.600,30.200,61.100,-8480.000,-36930.000,1008610.000,-198000.000,-61000.000,-74000.000,149.909,-29.483,131.333,159.922,-4.958,-107.337,-28500.580,13523.277,-2552.918
1512177351,-6.700,1.900,62.600,-17700.000,-45040.000,1043210.000,-193000.000,-59000.000,-86000.000,398.227,-164.951,226.141,19.730,-0.479,-1.121,-28647.972,14085.548,-2401.383
1512177351,7.900,2.300,66.000,-71170.000,-31130.000,1052060.000,-193000.000,-59000.000,-86000.000,196.097,-16.406,304.214,-80.008,-35.720,45.836,-28570.274,14685.669,-2401.741
1512177351,12.300,-16.000,68.700,-70310.000,-24410.000,1039370.000,-193000.000,-59000.000,-86000.000,-108.944,285.234,134.541,-43.881,-11.270,-22.087,-28382.080,14835.952,-2365.768
1512177351,20.200,-19.600,68.400,-51510.000,-13790.000,990540.000,-193000.000,-59000.000,-86000.000,-165.971,358.354,-152.799,171.077,5.611,-27.548,-28197.212,14311.226,-2892.593
1512177351,-5.900,-1.300,57.500,-39310.000,-14950.000,1033020.000,-203000.000,-70000.000,-69000.000,-28.879,82.559,53.442,198.202,13.598,-74.996,-28048.744,14011.452,-3269.005
1512177351,-2.700,5.100,53.000,-29540.000,-51940.000,1004520.000,-203000.000,-70000.000,-69000.000,394.176,9.572,285.853,71.480,-7.953,-41.423,-27859.901,14311.737,-3270.462
1512177351,-7.200,3.700,41.900,-29420.000,-55730.000,960940.000,-203000.000,-70000.000,-69000.000,263.594,299.644,429.425,47.351,-96.377,-19.881,-27860.611,14199.234,-3683.014
1512177351,-6.400,21.400,31.000,-11290.000,-43820.000,940310.000,-203000.000,-70000.000,-69000.000,-26.250,366.352,230.900,146.042,-42.477,-87.594,-27448.883,14087.356,-4211.571
1512177351,16.000,45.800,33.300,-9280.000,-27530.000,949280.000,-203000.000,-70000.000,-69000.000,122.249,224.343,42.797,253.044,31.586,-71.816,-27297.737,14387.574,-4625.206
1512177352,17.400,44.600,40.100,-10250.000,-49620.000,1013850.000,-189000.000,-70000.000,-72000.000,200.950,198.491,214.952,267.591,18.495,-56.287,-27522.156,14537.239,-4810.722
1512177352,23.300,24.100,26.800,-48710.000,-30760.000,990420.000,-189000.000,-70000.000,-72000.000,239.723,158.569,447.777,179.054,-3.813,-72.583,-27295.288,14987.587,-5112.419
1512177352,22.400,-17.400,47.100,-91800.000,-13610.000,1101500.000,-189000.000,-70000.000,-72000.000,285.451,103.899,581.508,68.999,-8.730,-89.022,-27293.182,15437.584,-4962.212
1512177352,30.500,-28.500,51.700,-120000.000,-31800.000,1107240.000,-189000.000,-70000.000,-72000.000,280.042,84.650,584.557,-11.943,11.485,-67.199,-27066.055,15887.932,-4738.930
1512177352,5.500,-11.700,70.600,-60060.000,3970.000,1059940.000,-189000.000,-70000.000,-72000.000,194.934,145.550,512.110,-46.569,23.125,-48.950,-26915.192,16113.152,-5040.092
1512177352,14.600,-15.000,47.000,-53280.000,-75990.000,1031310.000,-205000.000,-65000.000,-71000.000,132.554,225.882,355.843,-10.947,30.396,-41.635,-27065.033,16187.935,-5413.780
1512177352,15.800,11.100,36.800,-69270.000,-48400.000,1011410.000,-205000.000,-65000.000,-71000.000,82.802,225.165,140.843,72.063,27.127,-42.841,-26840.302,16113.258,-5265.739
1512177352,-6.500,4.900,28.500,-69640.000,-31490.000,967290.000,-205000.000,-65000.000,-71000.000,79.414,141.005,17.900,137.820,7.473,-40.781,-26841.797,15813.255,-5565.865
1512177352,-11.300,-13.700,19.200,-30210.000,-41260.000,1022770.000,-205000.000,-65000.000,-71000.000,135.638,24.636,28.970,159.005,-13.125,-41.617,-27140.518,16112.816,-5713.173
1512177352,-10.800,-39.800,16.200,-25390.000,-22400.000,1035890.000,-200000.000,-59000.000,-66000.000,247.987,-109.975,127.143,145.134,-44.894,-32.743,-27065.445,16112.923,-5563.820
1512177352,-1.600,-23.600,21.800,-60060.000,-18550.000,1017820.000,-200000.000,-59000.000,-66000.000,331.522,-206.188,228.227,104.056,-59.391,-13.392,-27364.395,16337.471,-5486.168
1512177352,-13.600,-1.200,28.200,-53770.000,-29300.000,1043400.000,-200000.000,-59000.000,-66000.000,320.529,-244.691,247.125,56.847,-43.301,19.216,-27215.485,16112.709,-5637.550
1512177352,-18.800,-1.300,30.900,-35890.000,-39860.000,1002260.000,-200000.000,-59000.000,-66000.000,207.022,-101.678,219.323,11.982,-25.415,31.639,-27289.017,16412.590,-5411.766
1512177352,-9.900,9.500,35.800,-20140.000,-19900.000,991090.000,-200000.000,-59000.000,-66000.000,3.679,122.346,213.960,-26.337,0.071,22.368,-26913.315,16563.148,-5339.882
1512177352,-12.100,9.500,30.400,-3720.000,-32960.000,981570.000,-198000.000,-82000.000,-57000.000,-145.770,301.532,234.805,-30.579,17.864,-16.896,-26613.617,16488.609,-5267.479
1512177352,-5.700,-2.800,24.200,-2320.000,-43760.000,1066280.000,-198000.000,-82000.000,-57000.000,-145.943,361.454,183.841,3.970,35.101,-42.897,-26837.067,16863.274,-5565.376
1512177352,-1.900,-10.800,24.900,-40160.000,2990.000,1047670.000,-198000.000,-82000.000,-57000.000,-89.242,356.352,106.822,66.289,27.479,-52.364,-25708.847,17239.967,-2499.794
1512177352,8.300,-20.000,29.200,-40950.000,-26670.000,997310.000,-198000.000,-82000.000,-57000.000,-65.537,236.790,85.428,131.591,24.886,-50.641,-26233.704,17314.171,-2870.277
1512177352,17.000,-9.200,31.400,-87590.000,-11410.000,1059750.000,-198000.000,-82000.000,-57000.000,-44.981,79.723,124.625,144.004,30.642,-71.465,-26234.070,17314.171,-3620.277
1512177352,-2.000,-6.400,37.200,-60420.000,-11110.000,1054630.000,-212000.000,-82000.000,-57000.000,31.361,5.964,210.759,97.626,29.014,-98.536,-26009.750,17164.513,-3622.261
1512177352,0.900,-6.300,34.500,-23320.000,-42600.000,956480.000,-212000.000,-82000.000,-57000.000,101.225,30.575,241.705,56.002,18.068,-105.676,-26159.256,17314.293,-3995.918
1512177352,-17.800,32.500,18.900,-57920.000,-35950.000,880430.000,-212000.000,-82000.000,-57000.000,136.357,64.930,181.568,58.322,5.237,-85.024,-26234.375,17314.171,-4220.284
1512177352,-31.600,51.400,10.300,-27770.000,-23440.000,980830.000,-212000.000,-82000.000,-57000.000,118.523,104.585,101.494,93.633,12.463,-52.793,-26609.863,17238.609,-4517.128
1512177352,-33.800,35.800,6.800,-46750.000,-48830.000,1014160.000,-209000.000,-93000.000,-57000.000,67.305,123.726,105.082,129.723,27.301,-23.097,-25934.296,17389.626,-4747.795
1512177352,-26.900,-16.500,14.000,-32710.000,-34790.000,976070.000,-209000.000,-93000.000,-57000.000,30.211,119.298,156.768,126.375,36.953,-24.879,-26159.027,17464.287,-4895.851
1512177352,-31.200,-23.400,26.100,-37350.000,-25820.000,976440.000,-209000.000,-93000.000,-57000.000,58.267,102.162,199.756,104.789,32.764,-42.636,-26159.927,17239.281,-4670.937
1512177352,-14.000,-17.000,35.600,-20750.000,-44070.000,970520.000,-209000.000,-93000.000,-57000.000,147.810,84.076,231.372,74.569,31.715,-46.112,-26008.621,17539.513,-4747.086
1512177352,7.300,-8.800,39.800,-13670.000,-39000.000,1071290.000,-209000.000,-93000.000,-57000.000,110.078,97.853,257.525,25.628,22.204,-47.277,-25970.695,17652.069,-4897.347
1512177352,13.400,-26.900,43.500,32350.000,-70800.000,1019230.000,-212000.000,-93000.000,-57000.000,53.191,118.804,152.834,49.090,39.392,-56.354,-25595.275,17727.638,-4750.503
1512177352,3.100,-28.900,43.900,28440.000,-23320.000,1015560.000,-212000.000,-93000.000,-57000.000,79.972,74.598,110.425,83.233,55.490,-56.611,-25368.637,18102.967,-4864.738
1512177352,-4.800,10.400,27.600,-22030.000,-35100.000,1026980.000,-212000.000,-93000.000,-57000.000,131.558,42.556,148.373,52.478,39.126,-48.056,-25482.064,17915.298,-5013.870
1512177352,-6.500,3.500,18.500,43640.000,-35890.000,1070560.000,-212000.000,-93000.000,-57000.000,87.591,49.996,131.770,34.037,44.419,-29.508,-25593.865,18065.132,-4975.350
1512177352,-2.900,4.900,16.500,76420.000,-35030.000,940250.000,-193000.000,-63000.000,-52000.000,42.677,50.040,75.685,59.247,49.862,-28.735,-25443.306,18215.363,-5201.553
1512177352,-8.800,-16.800,30.800,23560.000,-7630.000,1018010.000,-193000.000,-63000.000,-52000.000,71.827,33.444,117.092,60.353,27.565,-31.275,-25444.130,18027.862,-5164.139
1512177352,-12.100,13.000,34.400,-32900.000,-18920.000,1088130.000,-193000.000,-63000.000,-52000.000,37.917,109.062,205.881,20.745,25.743,-60.703,-25254.212,18553.147,-5052.986
1512177352,0.400,21.200,38.100,13730.000,-45650.000,997250.000,-193000.000,-63000.000,-52000.000,-0.747,192.001,97.938,50.553,72.276,-50.396,-25255.378,18290.649,-5015.610
1512177352,-4.000,28.400,41.900,58590.000,-55730.000,949890.000,-193000.000,-63000.000,-52000.000,30.015,101.367,37.834,148.241,77.626,-14.397,-24957.115,17916.091,-5130.837
1512177352,3.500,21.000,53.000,49380.000,-39490.000,953120.000,-217000.000,-77000.000,-52000.000,87.760,11.439,184.409,82.571,22.841,-67.474,-25029.938,18403.481,-5167.473
1512177353,6.300,9.600,53.800,31860.000,-19170.000,1002260.000,-217000.000,-77000.000,-52000.000,98.951,64.730,251.383,4.752,15.406,-95.115,-24506.210,18141.762,-5359.550
1512177353,3.500,2.400,57.100,-3360.000,-33390.000,964900.000,-217000.000,-77000.000,-52000.000,94.316,69.081,209.756,-2.352,52.335,-67.972,-24878.143,18816.216,-5281.059
1512177353,14.200,4.800,58.600,-47910.000,-45590.000,995850.000,-217000.000,-77000.000,-52000.000,108.830,50.083,104.360,31.901,110.192,-10.203,-24579.086,18591.652,-5133.705
1512177353,21.200,4.100,61.700,-36250.000,-31310.000,1041260.000,-217000.000,-77000.000,-52000.000,132.433,-5.278,27.753,81.644,111.355,42.608,-24503.250,18816.765,-5509.239
1512177353,19.400,-5.900,64.800,-5920.000,-27950.000,999880.000,-207000.000,-56000.000,-45000.000,132.920,-90.664,-5.584,105.639,93.104,77.577,-24803.223,18816.322,-5431.694
1512177353,10.900,3.300,65.500,-15080.000,-32350.000,971190.000,-207000.000,-56000.000,-45000.000,118.521,-127.062,26.066,103.492,41.805,81.571,-25027.649,18965.981,-5654.716
1512177353,8.700,13.400,61.800,-550.000,-27160.000,997010.000,-207000.000,-56000.000,-45000.000,9.543,-49.547,172.935,41.260,-22.385,22.362,-24953.140,18816.093,-5280.418
1512177353,4.100,17.000,59.900,36010.000,-19590.000,1007570.000,-207000.000,-56000.000,-45000.000,-153.788,86.637,322.423,-51.412,-36.787,-68.217,-24727.386,18966.438,-5132.271
1512177353,-5.300,15.800,57.700,50840.000,-22640.000,989200.000,-210000.000,-59000.000,-38000.000,-224.086,257.434,327.330,-110.187,1.106,-149.073,-24350.632,19342.003,-4985.283
1512177353,0.400,20.900,60.500,38210.000,-23190.000,993160.000,-210000.000,-59000.000,-38000.000,-186.799,372.027,204.604,-71.854,74.119,-173.549,-24275.406,19417.107,-5210.884
1512177353,-3.500,9.200,65.500,27340.000,-22090.000,992430.000,-210000.000,-59000.000,-38000.000,-77.913,346.834,65.375,28.922,129.213,-134.309,-23748.077,19942.909,-5290.108
1512177353,3.900,8.300,73.000,-6290.000,-35460.000,1023320.000,-210000.000,-59000.000,-38000.000,58.520,165.591,-6.837,107.271,150.587,-65.425,-24125.519,19417.336,-5437.157
1512177353,6.700,10.100,81.200,-17580.000,-16970.000,966250.000,-210000.000,-59000.000,-38000.000,144.912,-97.026,-22.491,110.115,125.292,-35.077,-24049.622,19642.448,-5662.697
1512177353,15.300,28.200,83.000,-22830.000,-21060.000,996580.000,-216000.000,-79000.000,-57000.000,171.153,-252.980,-5.598,34.793,68.656,-35.444,-24350.143,19491.997,-5360.207
1512177353,15.000,35.400,81.400,1890.000,-17700.000,992610.000,-216000.000,-79000.000,-57000.000,169.042,-278.738,57.182,-47.029,38.328,-35.776,-24649.017,19716.545,-5132.561
1512177353,-7.200,8.100,84.400,52490.000,-26920.000,935670.000,-216000.000,-79000.000,-57000.000,144.212,-213.657,79.437,-90.156,43.148,-19.678,-24198.685,19792.229,-5136.345
1512177353,-2.800,4.800,85.000,26000.000,-24600.000,1051760.000,-216000.000,-79000.000,-57000.000,104.345,-113.242,45.094,-77.940,63.385,15.912,-24348.450,19866.997,-5360.039
1512177353,7.200,-0.500,86.200,2260.000,-15630.000,1015010.000,-216000.000,-79000.000,-57000.000,33.093,-19.206,-24.903,-25.204,82.721,44.483,-24124.130,19717.339,-5362.022
1512177353,1.200,13.300,88.600,2010.000,-27100.000,1044250.000,-203000.000,-74000.000,-62000.000,-44.483,38.503,-102.586,36.617,74.554,54.579,-24125.183,19492.332,-5437.111
1512177353,-3.600,30.400,87.900,37900.000,-28930.000,1027280.000,-203000.000,-74000.000,-62000.000,-93.376,16.020,-111.899,84.275,63.278,34.952,-24274.872,19567.116,-5510.811
1512177353,-0.500,31.300,85.500,55850.000,-10440.000,990720.000,-203000.000,-74000.000,-62000.000,-92.324,7.347,-46.884,92.056,36.581,-14.396,-24126.190,19267.342,-5437.218
1512177353,-2.900,12.900,88.300,89900.000,-40340.000,1000060.000,-203000.000,-74000.000,-62000.000,-46.777,45.578,102.091,61.767,-2.655,-81.148,-24126.572,19192.329,-5512.260
1512177353,7.100,14.800,88.400,30700.000,-37480.000,997500.000,-214000.000,-66000.000,-55000.000,40.168,52.874,260.086,2.269,-30.913,-146.742,-23826.721,19117.790,-5139.839
1512177353,4.500,5.700,92.800,19350.000,-32290.000,951840.000,-214000.000,-66000.000,-55000.000,100.333,64.645,297.245,-41.657,17.771,-170.735,-23675.858,19343.010,-5441.017
1512177353,-0.100,7.300,97.700,21550.000,-27590.000,879270.000,-214000.000,-66000.000,-55000.000,228.309,49.205,99.157,20.229,115.787,-69.967,-23562.919,19418.182,-5254.433
1512177353,-2.500,16.800,104.400,12150.000,-42180.000,932980.000,-214000.000,-66000.000,-55000.000,249.177,-154.440,-77.148,110.640,91.209,65.129,-23787.132,19642.845,-5702.423
1512177353,-2.100,12.100,111.300,430.000,-16660.000,1001460.000,-214000.000,-66000.000,-55000.000,124.364,-225.050,150.533,-5.435,9.734,39.867,-23751.075,19305.397,-5552.894
1512177353,-7.500,-2.900,115.600,-24350.000,-39920.000,967650.000,-217000.000,-77000.000,-66000.000,51.197,94.188,175.640,-103.993,29.498,24.463,-23562.676,19493.179,-5441.895
1512177353,-5.100,-10.700,118.900,7510.000,-22160.000,1015930.000,-217000.000,-77000.000,-66000.000,-133.179,322.931,-42.645,52.020,74.326,61.406,-23299.293,19718.582,-5706.528
1512177353,-2.800,-6.400,125.800,16360.000,-26670.000,1005130.000,-217000.000,-77000.000,-66000.000,-166.928,231.404,26.903,151.068,43.077,-9.123,-23263.970,19268.631,-6007.057
1512177353,4.400,7.100,125.200,-1160.000,-13920.000,1026310.000,-217000.000,-77000.000,-66000.000,-14.763,127.896,362.425,4.450,-7.553,-169.250,-22887.039,19644.196,-5522.568
1512177353,-7.600,20.500,120.800,39730.000,-20870.000,940250.000,-216000.000,-93000.000,-64000.000,169.278,52.614,220.378,-51.484,86.287,-150.992,-22247.154,20170.158,-5490.242
1512177353,3.100,30.200,120.200,41200.000,-50170.000,961490.000,-216000.000,-93000.000,-64000.000,266.884,-224.765,-152.292,40.508,105.993,7.761,-22509.690,20207.261,-5900.498
1512177353,9.700,38.500,121.400,22280.000,-18920.000,983890.000,-216000.000,-93000.000,-64000.000,98.139,-261.974,-103.163,-32.200,50.293,36.398,-22697.754,20056.976,-5673.973
1512177353,2.500,25.000,128.000,47360.000,-21670.000,954650.000,-216000.000,-93000.000,-64000.000,78.794,-153.869,40.315,-72.299,60.406,70.187,-22736.625,19756.920,-5711.296
1512177353,10.000,30.400,129.300,3660.000,-41140.000,1043880.000,-216000.000,-93000.000,-64000.000,-40.937,-18.786,-29.709,47.422,56.793,130.211,-22810.218,20056.808,-5598.015
1512177353,10.800,25.200,133.000,-27280.000,-17330.000,1025510.000,-231000.000,-88000.000,-69000.000,-330.215,141.886,66.337,78.082,1.205,-16.420,-22286.515,19795.097,-5827.591
1512177354,4.300,17.600,138.000,-12880.000,-18070.000,1045720.000,-231000.000,-88000.000,-69000.000,-279.780,284.399,149.648,39.790,-4.067,-138.526,-21724.609,19645.943,-5682.457
1512177354,-0.400,29.600,144.500,-10250.000,-23010.000,1021420.000,-231000.000,-88000.000,-69000.000,-86.882,296.434,153.550,43.209,36.203,-212.637,-21724.609,19645.943,-5682.457
1512177354,-3.500,27.700,143.900,32530.000,-47850.000,968080.000,-231000.000,-88000.000,-69000.000,121.725,116.338,101.580,59.537,66.997,-175.060,-21723.328,19945.946,-5832.314
1512177354,0.400,28.800,143.700,15380.000,-47730.000,981510.000,-231000.000,-88000.000,-69000.000,273.261,-133.349,79.452,23.754,87.095,-112.823,-21797.363,20170.830,-5906.563
1512177354,-1.600,0.300,142.600,25510.000,-58410.000,969970.000,-242000.000,-81000.000,-66000.000,311.412,-227.307,89.275,-52.524,101.838,-65.735,-21872.055,20245.720,-5980.888
1512177354,8.000,-1.300,151.000,16910.000,-41140.000,1005310.000,-242000.000,-81000.000,-66000.000,322.576,-294.522,55.087,-102.933,96.090,-13.552,-22245.712,20545.158,-5977.562
1512177354,19.000,0.800,156.700,19410.000,-9220.000,1008300.000,-242000.000,-81000.000,-66000.000,338.937,-368.023,-35.546,-116.957,107.621,65.052,-22319.702,20770.042,-5976.830
1512177354,14.400,5.900,157.500,11170.000,-33510.000,988460.000,-242000.000,-81000.000,-66000.000,290.910,-378.661,-98.114,-78.729,93.714,147.156,-22320.374,20620.049,-5976.891
1512177354,16.400,-6.500,159.000,-4700.000,-12760.000,1019710.000,-235000.000,-91000.000,-49000.000,124.626,-335.121,-97.173,-42.320,85.969,190.289,-22395.676,20544.930,-5901.299
1512177354,23.200,-5.100,162.100,6710.000,-19040.000,1041630.000,-235000.000,-91000.000,-49000.000,-102.461,-162.435,-87.067,-35.898,37.405,148.432,-22321.350,20395.042,-5902.000
1512177354,17.300,8.000,163.800,17820.000,-16480.000,1051450.000,-235000.000,-91000.000,-49000.000,-304.659,111.672,-30.409,-58.860,-5.800,46.553,-22396.347,20394.936,-5901.360
1512177354,12.700,-8.100,168.800,42300.000,-55600.000,960390.000,-235000.000,-91000.000,-49000.000,-420.168,381.676,5.101,-53.525,-24.591,-62.245,-22170.975,20470.268,-5828.239
1512177354,12.700,-17.800,168.200,77640.000,-32960.000,993840.000,-235000.000,-91000.000,-49000.000,-415.026,542.005,-40.106,7.949,-3.919,-141.778,-21722.885,20095.940,-6282.234
1512177354,10.100,-14.400,177.500,28930.000,-41560.000,974060.000,-240000.000,-89000.000,-67000.000,-288.480,501.695,-88.522,114.923,42.548,-162.948,-21871.719,20320.717,-5980.858
1512177354,0.300,-8.900,176.600,43400.000,-33330.000,1050110.000,-240000.000,-89000.000,-67000.000,-88.991,229.652,-110.031,202.739,110.529,-143.343,-21722.580,20170.937,-6357.201
1512177354,7.900,8.800,182.700,60910.000,-17030.000,1019650.000,-240000.000,-89000.000,-67000.000,196.325,-136.437,-38.939,218.834,124.943,-98.647,-21647.964,20096.046,-6432.884
1512177354,-9.300,3.600,190.300,64090.000,-21300.000,976870.000,-240000.000,-89000.000,-67000.000,417.413,-382.093,117.988,122.959,87.191,-64.365,-21948.929,19870.598,-6355.431
1512177354,0.100,8.500,193.300,69700.000,-28810.000,985960.000,-254000.000,-100000.000,-71000.000,474.416,-482.607,211.208,-5.803,53.853,-36.916,-21647.919,20096.046,-6357.872
1512177354,6.400,15.400,193.300,67140.000,-33020.000,1028260.000,-254000.000,-100000.000,-71000.000,439.095,-444.227,221.490,-101.238,22.797,-8.366,-21722.137,20245.949,-6132.164
1512177354,-1.500,3.900,206.300,72630.000,4520.000,984370.000,-254000.000,-100000.000,-71000.000,334.007,-316.032,136.197,-133.184,30.267,31.133,-21871.231,20470.726,-6355.797
1512177354,-4.900,-3.100,209.100,69890.000,-39550.000,975340.000,-254000.000,-100000.000,-71000.000,112.360,-91.805,12.235,-106.981,28.237,55.050,-21646.835,20321.053,-6207.771
1512177354,0.800,32.600,207.300,64580.000,-41870.000,882750.000,-254000.000,-100000.000,-71000.000,-117.465,101.353,-69.309,-42.866,23.125,34.687,-21721.939,20320.946,-6432.137
1512177354,-11.200,33.000,206.700,86360.000,1710.000,1032170.000,-245000.000,-102000.000,-69000.000,-274.912,189.803,-85.142,-2.301,49.781,-21.194,-22097.580,20170.372,-6354.012
1512177354,6.900,15.200,209.900,76230.000,-23560.000,1030150.000,-245000.000,-102000.000,-69000.000,-226.619,167.359,-40.811,16.817,59.768,-68.760,-21796.463,20395.836,-6131.462
1512177354,8.700,14.000,214.100,70560.000,-40770.000,972720.000,-245000.000,-102000.000,-69000.000,-58.938,35.073,-2.601,17.084,99.860,-78.425,-21644.806,20771.065,-6207.558
1512177354,13.700,11.100,221.000,28560.000,9340.000,1095640.000,-245000.000,-102000.000,-69000.000,149.058,-158.984,-18.383,14.022,132.829,-14.918,-21872.467,20170.723,-6130.928
1512177354,11.300,8.700,229.700,49990.000,-64760.000,970700.000,-245000.000,-102000.000,-69000.000,258.143,-240.417,-75.183,64.157,116.108,106.566,-22096.886,20320.381,-6316.444
1512177354,4.500,10.300,232.800,121830.000,7570.000,856080.000,-242000.000,-102000.000,-76000.000,-42.284,-131.757,111.665,27.722,-12.001,62.497,-22098.763,19907.882,-6354.133
1512177354,-0.400,9.300,231.200,65310.000,-6350.000,977050.000,-242000.000,-102000.000,-76000.000,-283.629,274.833,124.508,-64.022,-8.875,-159.538,-21497.505,20133.781,-5871.636
1512177354,-4.800,13.400,226.000,86120.000,-35030.000,962710.000,-242000.000,-102000.000,-76000.000,61.621,122.578,-132.738,134.012,112.242,-106.633,-21534.950,20171.227,-6096.298
1512177354,-3.700,23.200,232.800,16720.000,-18010.000,1093930.000,-242000.000,-102000.000,-76000.000,338.909,-388.450,29.411,80.996,66.734,-13.503,-22286.132,19945.099,-6427.528
1512177354,-14.900,9.300,237.700,50780.000,-5490.000,995850.000,-251000.000,-107000.000,-60000.000,256.224,-284.767,199.674,-179.725,32.008,7.492,-22247.215,20245.155,-6277.710
1512177354,-25.000,5.100,256.900,50350.000,-52550.000,1021120.000,-251000.000,-107000.000,-60000.000,3.419,103.596,-30.238,-96.647,59.992,103.365,-22247.917,20095.154,-6352.775
1512177354,-63.800,-2.100,274.200,44430.000,-670.000,942140.000,-251000.000,-107000.000,-60000.000,-393.946,321.637,-133.316,65.756,29.478,20.851,-22399.254,19832.420,-6651.619
1512177354,-66.000,0.700,267.900,122070.000,-17940.000,968080.000,-251000.000,-107000.000,-60000.000,-406.135,481.650,-32.725,104.130,18.515,-180.713,-21874.947,19683.213,-6693.650
1512177354,31.400,-20.600,264.600,92350.000,-9640.000,975340.000,-251000.000,-107000.000,-60000.000,97.325,46.884,90.322,146.522,97.185,-164.512,-22138.725,19420.311,-6879.043
1512177354,3.700,-3.700,257.900,23560.000,-46570.000,1130190.000,-256000.000,-126000.000,-72000.000,439.609,-384.759,128.424,55.502,101.476,-8.793,-22249.802,19757.652,-7065.430
1512177354,6.700,-15.700,265.800,4760.000,23680.000,1014830.000,-256000.000,-126000.000,-72000.000,224.388,-252.495,63.938,-32.194,25.974,60.396,-22550.362,19644.700,-7175.431
1512177355,-16.000,-29.300,280.300,46140.000,-27650.000,1050780.000,-256000.000,-126000.000,-72000.000,-64.482,37.180,11.188,-23.760,25.313,57.357,-22701.935,19269.478,-6949.318
1512177355,-22.600,-16.900,273.400,51150.000,-11600.000,1011050.000,-256000.000,-126000.000,-72000.000,-221.481,195.114,-27.847,37.901,46.103,23.707,-22625.931,19494.591,-6949.852
1512177355,-33.800,-29.600,269.200,89900.000,-32900.000,955930.000,-256000.000,-126000.000,-72000.000,-218.689,196.137,-3.285,85.387,50.549,-13.116,-22852.951,19044.243,-6948.158
1512177355,-39.900,-23.400,269.100,64880.000,-5800.000,1043640.000,-261000.000,-111000.000,-67000.000,-150.973,110.603,88.013,65.641,43.721,-65.021,-22624.878,19719.582,-6874.763
1512177355,-40.600,-24.900,269.600,107420.000,-37410.000,1020940.000,-261000.000,-111000.000,-67000.000,-50.805,41.199,152.122,10.792,43.050,-104.864,-22473.892,19944.817,-6950.920
1512177355,-29.800,-27.800,277.000,61400.000,16050.000,993100.000,-261000.000,-111000.000,-67000.000,46.348,2.914,141.670,-34.969,69.718,-99.387,-22024.078,19870.491,-6654.793
1512177355,-44.300,-33.600,275.600,85750.000,-9160.000,1009770.000,-261000.000,-111000.000,-67000.000,144.366,-13.910,79.065,-31.908,87.832,-41.682,-22549.652,19719.704,-6425.407
1512177355,-33.400,-29.700,282.300,92530.000,-7690.000,971920.000,-268000.000,-139000.000,-84000.000,159.804,-78.978,44.949,3.001,81.813,20.866,-22548.264,20019.707,-6350.258
1512177355,-30.900,-21.400,283.000,83130.000,-19530.000,924800.000,-268000.000,-139000.000,-84000.000,75.155,-85.445,5.318,23.927,58.817,52.186,-22173.447,20020.271,-6728.447
1512177355,-22.800,-21.700,286.200,122190.000,-13000.000,993960.000,-268000.000,-139000.000,-84000.000,-66.626,-7.683,9.936,22.550,30.120,29.977,-22099.762,19720.375,-6654.213
1512177355,-31.400,-34.400,295.100,82340.000,-6470.000,908570.000,-268000.000,-139000.000,-84000.000,-194.541,113.884,14.901,18.627,15.081,-29.793,-22251.373,19345.146,-6503.120
1512177355,-8.300,-25.300,305.700,80380.000,-13550.000,999630.000,-268000.000,-139000.000,-84000.000,-216.819,187.560,11.635,41.386,27.830,-78.745,-22401.077,19419.930,-6576.805
1512177355,-4.700,-14.600,295.200,66710.000,-29910.000,960690.000,-275000.000,-146000.000,-81000.000,-138.178,196.200,27.732,77.201,55.630,-96.777,-22175.735,19495.262,-6578.682
1512177355,36.400,-19.300,301.200,95700.000,0.000,1018980.000,-275000.000,-146000.000,-81000.000,-21.911,138.708,20.688,122.958,70.175,-78.793,-22101.715,19270.378,-6504.433
1512177355,57.500,-15.800,300.400,38700.000,-51940.000,995910.000,-275000.000,-146000.000,-81000.000,91.544,-1.116,50.627,142.078,64.963,-47.400,-22325.287,19570.030,-6352.379
1512177355,16.400,-36.600,305.500,36190.000,16420.000,984130.000,-275000.000,-146000.000,-81000.000,133.189,-116.527,105.196,88.889,62.510,-34.761,-22552.048,19194.695,-6500.633
1512177355,-9.500,-59.400,297.600,77760.000,-41080.000,1034610.000,-265000.000,-146000.000,-84000.000,144.018,-87.774,161.958,17.789,38.092,-27.697,-22324.615,19720.039,-6352.318
1512177355,-2.800,-42.200,292.500,143430.000,-14830.000,995300.000,-265000.000,-146000.000,-84000.000,105.114,31.727,199.120,-32.250,30.506,-28.636,-22399.948,19644.920,-6351.707
1512177355,-34.400,-17.000,289.000,179500.000,-42970.000,994200.000,-265000.000,-146000.000,-84000.000,39.172,91.453,191.973,-47.112,20.210,-37.337,-21949.280,19795.601,-6355.461
1512177355,-20.200,27.700,287.200,163270.000,18680.000,1097410.000,-265000.000,-146000.000,-84000.000,-25.864,109.642,129.265,-25.247,68.588,-36.304,-22098.602,19945.381,-6354.118
1512177355,-63.100,27.300,295.100,110960.000,-7320.000,1086980.000,-265000.000,-146000.000,-84000.000,-44.669,150.378,43.852,30.379,57.669,-33.845,-21874.527,19720.711,-6206.139
1512177355,-136.800,-3.900,353.700,84170.000,-39920.000,1070070.000,-260000.000,-172000.000,-82000.000,-63.932,108.804,-19.474,69.757,48.764,-63.922,-22324.539,19720.039,-6202.309
1512177355,-66.600,31.400,321.800,134830.000,96860.000,1025940.000,-260000.000,-172000.000,-82000.000,-62.086,44.690,-4.743,62.249,37.365,-91.417,-21950.317,19570.595,-6430.580
1512177355,-20.100,45.800,330.500,107730.000,-158750.000,1025510.000,-260000.000,-172000.000,-82000.000,7.121,23.298,64.414,38.715,48.500,-106.427,-21949.905,19645.607,-6280.540
1512177355,77.100,-14.600,345.000,63110.000,-75130.000,819030.000,-260000.000,-172000.000,-82000.000,156.757,-52.925,101.495,32.079,68.359,-35.741,-21949.043,19833.100,-6242.950
1512177355,-66.300,-30.800,324.800,57980.000,-37350.000,863040.000,-260000.000,-172000.000,-82000.000,83.287,-39.204,129.263,-5.865,32.885,10.041,-21910.500,20058.158,-6168.167
1512177355,35.200,20.000,341.200,-4880.000,-52550.000,986270.000,-274000.000,-169000.000,-79000.000,-154.923,190.336,8.279,17.162,39.569,-48.779,-21760.483,20058.388,-6131.943
1512177355,74.700,43.800,318.800,26000.000,18370.000,999270.000,-274000.000,-169000.000,-79000.000,-62.098,121.249,-97.224,153.451,94.960,-19.119,-21647.880,20096.054,-6282.875
1512177355,44.100,50.900,320.100,-2140.000,-55850.000,1028320.000,-274000.000,-169000.000,-79000.000,110.958,-115.409,63.837,135.738,65.537,14.362,-21833.771,20433.281,-6093.628
1512177355,16.500,45.700,312.400,34360.000,4150.000,996770.000,-274000.000,-169000.000,-79000.000,119.034,-23.848,225.248,-16.294,20.817,-14.939,-21684.372,20283.493,-5944.976
1512177355,-24.000,16.500,314.300,10560.000,4520.000,1065060.000,-272000.000,-181000.000,-94000.000,8.495,219.612,184.516,5.873,28.803,-45.563,-21194.695,20771.736,-5986.396
1512177355,-5.700,54.900,306.100,49070.000,-15260.000,1180240.000,-272000.000,-181000.000,-94000.000,-32.877,114.018,69.478,78.716,57.488,-79.161,-20932.266,20772.133,-6138.626
1512177355,-0.900,78.200,299.600,89230.000,-1100.000,993840.000,-272000.000,-181000.000,-94000.000,113.723,-105.118,-6.448,107.106,66.787,-36.304,-20817.482,21297.303,-6289.329
1512177355,-69.500,39.000,310.500,66650.000,-36870.000,958920.000,-272000.000,-181000.000,-94000.000,104.573,-163.952,28.395,95.741,29.008,18.497,-20854.026,21522.240,-6401.405
1512177355,-27.400,47.700,319.000,42540.000,-22400.000,1067630.000,-272000.000,-181000.000,-94000.000,-35.895,57.174,185.439,30.359,-2.393,-26.092,-20929.169,21484.635,-6363.282
1512177355,3.500,79.000,321.800,1770.000,-36320.000,1079530.000,-265000.000,-178000.000,-108000.000,-19.324,182.640,220.761,17.643,28.424,-73.401,-20964.577,22084.580,-7562.691
1512177355,2.800,48.200,320.800,38820.000,17090.000,1035030.000,-265000.000,-178000.000,-108000.000,-9.340,178.025,132.407,78.853,34.919,-78.070,-20928.368,21822.136,-7788.132
1512177356,8.500,40.500,324.500,8790.000,-76420.000,1036620.000,-265000.000,-178000.000,-108000.000,11.188,-14.107,73.935,108.051,40.124,-63.686,-20664.520,22122.536,-7790.230
1512177356,-19.800,24.500,335.300,41750.000,-30270.000,921940.000,-265000.000,-178000.000,-108000.000,54.612,-123.020,85.912,79.176,57.921,-60.791,-20962.463,22572.075,-7712.456
1512177356,-17.300,16.800,340.200,20020.000,-36870.000,1044740.000,-265000.000,-192000.000,-94000.000,89.147,-103.819,125.923,34.363,48.482,-59.439,-21413.101,22421.410,-7633.705
1512177356,-46.100,30.400,325.000,1530.000,-36130.000,912230.000,-265000.000,-192000.000,-94000.000,116.845,-56.780,129.688,22.908,32.737,-44.453,-20961.441,22797.081,-7712.364
1512177356,-45.800,18.600,317.700,-17150.000,-75070.000,1025020.000,-265000.000,-192000.000,-94000.000,95.561,-32.119,63.367,36.180,26.866,-15.266,-21036.224,22871.971,-7936.684
1512177356,-34.200,43.300,319.000,-23190.000,-13790.000,1033260.000,-265000.000,-192000.000,-94000.000,25.003,-2.216,12.344,59.171,17.586,3.055,-21186.523,22796.745,-7860.451
1512177356,-40.200,54.900,313.500,6100.000,-48030.000,975220.000,-265000.000,-192000.000,-94000.000,-51.117,10.441,40.073,61.018,19.995,-2.935,-21411.224,22871.407,-7933.510
1512177356,-27.200,59.400,312.900,-15080.000,-54200.000,1106260.000,-265000.000,-206000.000,-104000.000,-74.877,62.572,125.192,28.485,31.904,-37.030,-21485.214,23096.291,-7932.762
1512177356,10.900,73.900,312.300,-7140.000,-35950.000,1069580.000,-265000.000,-206000.000,-104000.000,-11.120,125.534,205.223,5.901,30.696,-57.702,-21335.464,23021.523,-7784.065
1512177356,33.300,59.500,322.400,-6840.000,-63540.000,1134220.000,-265000.000,-206000.000,-104000.000,70.130,154.524,192.642,14.585,36.730,-42.225,-20884.415,23247.200,-7712.791
1512177356,17.400,29.200,314.500,71780.000,-76660.000,973270.000,-265000.000,-206000.000,-104000.000,63.513,145.005,141.344,40.682,37.794,-11.057,-20959.076,23322.090,-7712.120
1512177356,-4.300,5.300,317.700,83190.000,-66890.000,923830.000,-265000.000,-206000.000,-104000.000,-1.622,115.114,81.663,70.994,45.157,6.848,-20733.749,23397.423,-7713.997
1512177356,14.800,12.700,322.600,113340.000,-88260.000,986880.000,-263000.000,-208000.000,-99000.000,-59.028,109.702,71.216,69.930,35.490,-14.616,-21034.988,23171.974,-8161.552
1512177356,11.900,9.300,335.800,88680.000,-71040.000,1008540.000,-263000.000,-208000.000,-99000.000,-56.870,142.820,71.363,71.161,32.345,-37.269,-20959.229,23322.090,-8012.123
1512177356,-0.700,15.300,345.400,46080.000,-40710.000,1059080.000,-263000.000,-208000.000,-99000.000,-40.181,172.708,95.162,79.209,30.509,-49.542,-20808.289,23547.310,-8163.292
1512177356,-6.400,-3.600,330.400,54320.000,-38510.000,1036930.000,-263000.000,-208000.000,-99000.000,-5.516,197.267,127.732,90.819,25.455,-55.395,-20508.362,23547.768,-8315.834
1512177356,-22.400,-18.500,333.300,-2930.000,-77450.000,1012210.000,-274000.000,-218000.000,-82000.000,15.652,188.736,136.537,115.703,26.208,-47.289,-20435.318,23097.878,-8166.679
1512177356,-32.900,-22.100,324.400,-1100.000,-79650.000,956850.000,-274000.000,-218000.000,-82000.000,24.007,149.208,145.049,126.400,33.315,-41.472,-20434.418,23322.868,-8391.579
1512177356,-31.400,-10.300,315.700,11110.000,-57920.000,982480.000,-274000.000,-218000.000,-82000.000,26.961,125.686,158.870,122.985,42.258,-44.247,-20209.335,23323.219,-8243.492
1512177356,-30.500,-3.700,311.200,76600.000,-90820.000,1010500.000,-274000.000,-218000.000,-82000.000,51.982,134.201,193.375,99.046,33.964,-63.071,-20433.029,23622.871,-8316.444
1512177356,-25.200,3.100,298.900,78800.000,-73610.000,962340.000,-274000.000,-218000.000,-82000.000,87.729,163.034,224.909,70.541,15.202,-84.177,-20357.620,23697.990,-8167.046
1512177356,-21.400,15.800,308.400,103450.000,-96920.000,908450.000,-263000.000,-225000.000,-96000.000,79.750,192.868,257.946,56.349,16.263,-89.675,-20283.371,23548.103,-8317.741
1512177356,-6.000,-7.600,320.800,101140.000,-47550.000,976200.000,-263000.000,-225000.000,-96000.000,75.396,219.551,264.370,63.668,38.868,-78.847,-19757.507,23773.888,-8622.093
1512177356,12.400,7.100,323.200,125120.000,-63660.000,975830.000,-263000.000,-225000.000,-96000.000,95.728,193.019,194.214,110.816,54.054,-53.435,-19604.767,24374.107,-8548.103
1512177356,3.600,27.700,315.300,110780.000,-26790.000,1092960.000,-263000.000,-225000.000,-96000.000,75.505,104.468,123.253,150.369,48.277,-36.339,-19607.422,23774.117,-8473.381
1512177356,0.400,58.500,316.100,120060.000,-65250.000,1040040.000,-256000.000,-246000.000,-99000.000,57.222,9.358,127.987,156.379,39.067,-32.749,-19381.607,23999.458,-8850.182
1512177356,8.300,52.900,309.900,80020.000,-76970.000,984680.000,-256000.000,-246000.000,-99000.000,128.594,-3.954,163.089,136.351,35.401,-17.006,-19793.503,24111.336,-8659.134
1512177356,12.100,41.400,323.800,46140.000,-74830.000,1005430.000,-256000.000,-246000.000,-99000.000,84.948,131.914,295.120,51.445,-8.345,-53.736,-19454.796,24374.336,-8624.374
1512177356,29.700,37.600,319.400,42050.000,-65370.000,1048890.000,-256000.000,-246000.000,-99000.000,40.628,303.735,340.383,1.471,25.123,-110.578,-19152.306,24937.286,-8701.668
1512177356,50.500,40.300,324.600,33940.000,-76720.000,1093630.000,-256000.000,-246000.000,-99000.000,107.164,165.892,145.780,99.477,75.719,-40.550,-18814.484,25012.787,-8741.996
1512177356,31.700,32.100,326.100,45590.000,-66280.000,951540.000,-277000.000,-229000.000,-96000.000,47.293,-16.801,114.959,117.090,59.178,-6.676,-18925.766,25312.622,-9003.403
1512177356,19.800,45.100,342.700,40590.000,-60610.000,1016240.000,-277000.000,-229000.000,-96000.000,50.570,59.987,178.170,22.271,31.449,-43.127,-18850.860,25275.238,-8854.050
1512177356,27.600,27.300,331.600,21240.000,-68970.000,1032410.000,-277000.000,-229000.000,-96000.000,27.451,179.023,196.374,77.660,34.221,-47.448,-18324.944,25501.022,-9045.914
1512177356,24.500,39.100,320.000,18310.000,-30820.000,1060240.000,-277000.000,-229000.000,-96000.000,55.404,126.285,147.023,153.581,43.343,-70.149,-17989.036,25164.024,-9198.936
1512177356,6.500,30.200,314.500,4030.000,-77510.000,984250.000,-277000.000,-229000.000,-96000.000,160.874,37.188,179.157,184.792,20.348,-47.407,-17876.816,25126.694,-9424.912
1512177356,14.400,47.500,311.900,-29970.000,-57500.000,957820.000,-272000.000,-237000.000,-74000.000,135.014,83.321,327.124,79.851,7.402,-70.856,-17837.387,25539.254,-9275.040
1512177356,-4.700,24.100,309.500,35520.000,-64760.000,969360.000,-272000.000,-237000.000,-74000.000,138.709,234.463,337.300,12.600,22.828,-89.563,-17386.894,25652.428,-9316.323
1512177356,13.300,18.400,313.100,19960.000,-90580.000,1016850.000,-272000.000,-237000.000,-74000.000,75.740,230.337,211.643,62.933,65.924,-75.374,-16785.324,26028.328,-9546.242
1512177357,19.600,32.800,317.000,35220.000,-74520.000,942020.000,-272000.000,-237000.000,-74000.000,99.221,140.723,173.828,81.880,62.080,-83.222,-16748.230,25953.392,-9696.602
1512177357,10.500,25.800,313.500,68050.000,-96560.000,1015380.000,-267000.000,-246000.000,-96000.000,135.342,49.970,176.164,59.987,38.959,-84.307,-16525.711,25428.719,-9923.744
1512177357,2.100,17.200,314.700,73240.000,-73670.000,938780.000,-267000.000,-246000.000,-96000.000,166.834,18.984,204.230,44.624,50.519,-71.712,-16523.682,25878.731,-9923.546
1512177357,-3.900,10.100,312.500,87160.000,-47300.000,972410.000,-267000.000,-246000.000,-96000.000,176.636,67.095,194.949,51.709,46.917,-51.494,-16223.007,26029.182,-9926.018
1512177357,4.100,-1.700,314.700,46140.000,-76230.000,1012020.000,-267000.000,-246000.000,-96000.000,166.607,100.261,157.604,90.424,29.022,-32.909,-16147.141,26254.295,-10226.555
1512177357,-3.100,-14.800,315.700,104680.000,-59940.000,941280.000,-267000.000,-246000.000,-96000.000,55.737,151.363,160.441,106.888,17.623,-52.719,-16297.638,26179.070,-10525.307
1512177357,-8.300,-19.800,316.600,95030.000,-38020.000,904110.000,-270000.000,-257000.000,-99000.000,16.298,174.799,161.016,128.807,19.493,-77.982,-16223.190,26029.182,-10301.018
1512177357,11.300,-17.400,317.700,58960.000,-65730.000,998470.000,-270000.000,-257000.000,-99000.000,82.182,162.061,173.655,137.050,43.986,-87.769,-16448.196,26028.831,-10299.095
1512177357,23.000,-1.500,316.800,27650.000,-43030.000,1013790.000,-270000.000,-257000.000,-99000.000,207.223,100.208,215.759,140.720,50.493,-61.715,-15997.330,26254.509,-10602.821
1512177357,3.300,-3.500,313.100,93510.000,-51330.000,971980.000,-270000.000,-257000.000,-99000.000,279.832,16.898,269.827,123.866,48.951,-22.448,-15697.632,26179.970,-10530.403
1512177357,5.300,-4.800,310.000,93810.000,-29660.000,989810.000,-270000.000,-257000.000,-99000.000,244.625,18.977,271.456,109.042,51.480,9.449,-15548.752,25955.193,-10756.783
1512177357,-2.100,-9.100,309.600,88810.000,-31370.000,981260.000,-256000.000,-271000.000,-103000.000,161.086,73.397,232.053,91.826,41.231,17.783,-15398.117,26105.415,-10833.000
1512177357,-4.100,9.600,302.800,118590.000,-55420.000,950680.000,-256000.000,-271000.000,-103000.000,96.143,142.735,230.288,95.641,38.341,8.230,-15098.526,26030.861,-10985.573
1512177357,-18.800,2.300,307.700,110230.000,-37960.000,992920.000,-256000.000,-271000.000,-103000.000,49.366,164.040,223.287,121.633,33.343,-15.106,-15245.499,26705.635,-10983.986
1512177357,-18.800,-3.700,303.600,124630.000,-86730.000,946840.000,-256000.000,-271000.000,-103000.000,63.860,136.371,183.959,154.614,59.692,-23.809,-14947.632,26256.096,-11211.754
1512177357,-8.100,22.400,309.300,114260.000,-41380.000,975340.000,-256000.000,-282000.000,-110000.000,134.961,99.051,200.846,154.102,39.622,-27.627,-14948.639,26031.090,-11211.861
1512177357,-11.600,24.500,309.100,133300.000,-38150.000,967830.000,-256000.000,-282000.000,-110000.000,186.752,85.066,292.164,118.630,12.329,-39.083,-14648.529,26031.532,-10989.403
1512177357,-7.100,13.200,309.900,104800.000,-50480.000,1049260.000,-256000.000,-282000.000,-110000.000,157.339,122.338,333.449,66.166,-7.288,-59.538,-14274.658,25807.106,-11217.690
1512177357,-8.500,0.000,311.600,93630.000,-4640.000,924440.000,-256000.000,-282000.000,-110000.000,136.217,201.366,324.888,34.615,8.941,-56.564,-14046.951,26407.448,-11219.322
1512177357,0.300,-18.200,313.500,59390.000,3970.000,1042300.000,-256000.000,-282000.000,-110000.000,88.813,282.539,294.635,43.083,38.838,-53.692,-14047.394,26332.436,-11444.359
1512177357,21.000,-1.300,317.400,85820.000,-610.000,1075560.000,-253000.000,-289000.000,-89000.000,79.895,234.537,250.628,70.364,38.538,-49.531,-13748.795,26032.890,-11522.041
1512177357,6.700,-14.600,320.500,48160.000,3230.000,973330.000,-253000.000,-289000.000,-89000.000,58.542,201.392,251.271,70.077,54.266,-60.993,-13448.517,26108.345,-11674.568
1512177357,1.500,-5.300,310.900,39250.000,3420.000,973140.000,-253000.000,-289000.000,-89000.000,63.528,202.430,272.670,64.575,47.707,-78.913,-13595.184,26858.116,-11747.948
1512177357,-8.100,-3.900,308.700,78610.000,7930.000,978210.000,-253000.000,-289000.000,-89000.000,87.757,243.021,292.351,71.844,35.529,-101.480,-13446.869,26483.345,-11749.397
1512177357,-12.400,14.800,301.900,59080.000,-20320.000,1043820.000,-260000.000,-289000.000,-103000.000,80.322,256.764,355.185,76.157,12.104,-123.173,-13372.849,26258.446,-11675.133
1512177357,-18.100,33.800,293.700,-1830.000,-16170.000,920530.000,-260000.000,-289000.000,-103000.000,66.865,258.800,395.507,86.386,4.930,-156.157,-12923.935,26034.126,-11829.063
1512177357,-39.800,2.800,296.900,78670.000,-1530.000,988280.000,-260000.000,-289000.000,-103000.000,55.272,291.847,421.574,99.676,35.338,-194.185,-12398.933,26034.913,-11833.527
1512177357,-29.800,-9.600,298.100,83800.000,-16170.000,1023250.000,-260000.000,-289000.000,-103000.000,240.096,70.868,225.196,190.580,95.227,-122.265,-12134.666,26447.807,-12023.063
1512177357,21.800,-51.900,305.100,78740.000,2690.000,860530.000,-260000.000,-289000.000,-103000.000,346.171,-214.497,113.802,196.912,71.164,1.420,-12060.608,26260.422,-12211.281
1512177357,7.600,15.400,305.100,78190.000,-9030.000,993290.000,-261000.000,-304000.000,-115000.000,271.277,-280.524,223.891,77.788,34.434,26.265,-12510.360,26334.747,-12394.928
1512177357,14.600,16.100,305.300,78740.000,2810.000,958860.000,-261000.000,-304000.000,-115000.000,287.134,-141.787,304.027,22.102,36.492,70.892,-12436.226,26184.860,-12770.630
1512177357,19.700,9.900,306.500,109680.000,1040.000,1044860.000,-261000.000,-304000.000,-115000.000,62.406,186.202,371.203,-9.069,-21.099,14.167,-11910.621,26298.142,-12587.540
1512177357,-6.800,-10.000,308.700,156370.000,2870.000,985230.000,-261000.000,-304000.000,-115000.000,-187.837,622.173,376.026,18.620,-18.624,-165.524,-11010.925,26224.495,-12520.218
1512177357,-13.200,11.900,301.300,93930.000,-14470.000,985230.000,-261000.000,-304000.000,-115000.000,-2.847,479.248,141.011,219.537,86.197,-146.746,-10637.100,25962.555,-12523.529
1512177357,-8.900,14.800,299.300,101990.000,-30640.000,1014530.000,-245000.000,-299000.000,-99000.000,227.490,-58.904,207.505,272.070,63.838,-73.231,-10786.933,26037.331,-12859.718
1512177357,-12.800,21.400,299.100,79280.000,-6590.000,960140.000,-245000.000,-299000.000,-99000.000,250.681,-91.923,448.123,41.841,4.758,-136.556,-10412.773,25850.395,-12862.999
1512177357,-23.200,10.000,302.100,112920.000,-1770.000,963260.000,-245000.000,-299000.000,-99000.000,351.917,-14.017,292.616,43.231,64.624,-35.663,-9887.489,25888.679,-12642.433
1512177357,-12.100,-4.700,299.100,130860.000,-1340.000,988650.000,-245000.000,-299000.000,-99000.000,244.192,-130.486,225.086,86.079,17.624,22.085,-10151.459,25625.778,-13202.827
1512177358,-4.000,-7.900,302.100,103520.000,6410.000,957580.000,-253000.000,-320000.000,-96000.000,129.771,-114.552,182.975,34.951,5.840,-28.094,-9925.613,25813.622,-13204.659
1512177358,16.000,6.800,302.800,16970.000,2440.000,1052550.000,-253000.000,-320000.000,-96000.000,161.475,-75.018,201.695,2.026,23.789,-30.957,-10453.278,25212.837,-13125.481
1512177358,5.100,0.800,305.200,49010.000,57920.000,990540.000,-253000.000,-320000.000,-96000.000,220.638,-18.258,171.832,27.635,44.651,8.141,-10149.979,25963.280,-13277.672
1512177358,2.500,-2.800,295.300,45840.000,15690.000,1072750.000,-253000.000,-320000.000,-96000.000,240.421,20.298,138.140,88.242,32.466,52.714,-10526.810,25587.715,-13574.654
1512177358,-5.300,11.200,288.200,94670.000,-24170.000,1035280.000,-253000.000,-320000.000,-96000.000,132.956,53.143,192.134,121.763,7.075,46.913,-10076.065,25738.396,-13428.413
1512177358,-16.400,11.700,286.600,74280.000,2560.000,982540.000,-247000.000,-308000.000,-91000.000,-45.289,133.888,272.982,107.643,-27.014,-20.077,-10377.121,25512.947,-13500.969
1512177358,-10.000,30.000,284.800,54990.000,10620.000,1033570.000,-247000.000,-308000.000,-91000.000,-91.246,211.646,348.276,79.635,-30.627,-107.968,-9928.467,25213.615,-13504.936
1512177358,-15.400,33.000,283.400,97110.000,-1530.000,993160.000,-247000.000,-308000.000,-91000.000,-9.912,301.404,398.807,60.380,-25.223,-185.395,-9627.335,25439.064,-13282.387
1512177358,-14.000,34.400,283.500,57740.000,31130.000,975280.000,-247000.000,-308000.000,-91000.000,106.213,317.598,404.813,96.121,4.691,-181.002,-9777.115,25513.847,-13506.065
1512177358,-6.900,23.000,287.900,74770.000,-5070.000,990600.000,-247000.000,-308000.000,-91000.000,175.300,215.264,346.821,154.400,5.839,-131.534,-9476.883,25589.302,-13733.589
1512177358,7.100,20.400,297.500,52190.000,18620.000,968630.000,-242000.000,-324000.000,-110000.000,173.479,40.263,255.574,189.912,7.385,-102.414,-9252.869,25364.632,-13660.606
1512177358,12.300,27.700,293.200,65000.000,15500.000,997130.000,-242000.000,-324000.000,-110000.000,166.118,-114.358,112.076,198.835,19.355,-59.262,-9102.264,25514.854,-13811.790
1512177358,14.600,19.000,296.400,57560.000,40280.000,1018130.000,-242000.000,-324000.000,-110000.000,213.482,-176.178,81.633,173.909,7.156,-21.320,-9328.308,25289.513,-13884.987
1512177358,4.400,16.600,291.300,66530.000,-8000.000,1015380.000,-242000.000,-324000.000,-110000.000,236.775,-168.818,155.550,130.705,-6.236,-1.928,-9179.031,25139.748,-13961.327
1512177358,3.200,4.100,288.700,73180.000,20690.000,1013730.000,-235000.000,-320000.000,-99000.000,248.359,-108.190,296.650,65.557,-31.885,10.619,-9477.905,25364.296,-13733.696
1512177358,2.000,26.100,286.600,13370.000,-13430.000,996150.000,-235000.000,-320000.000,-99000.000,221.912,16.511,420.366,-7.830,-24.947,-4.641,-9103.394,25289.848,-14036.903
1512177358,9.200,24.500,280.600,27160.000,33390.000,1039250.000,-235000.000,-320000.000,-99000.000,188.543,132.714,509.835,-73.560,-5.378,-14.100,-9327.682,25439.522,-13959.923
1512177358,3.600,31.400,279.000,4030.000,15260.000,1050480.000,-235000.000,-320000.000,-99000.000,190.970,221.406,496.320,-87.049,30.856,-14.076,-8952.606,25440.086,-13813.103
1512177358,4.500,50.500,270.800,17270.000,-8420.000,1036930.000,-235000.000,-320000.000,-99000.000,161.996,278.200,380.962,-36.554,53.819,-2.160,-8500.992,25815.758,-13966.759
1512177358,-4.100,49.000,273.400,25700.000,2750.000,989990.000,-235000.000,-349000.000,-99000.000,44.480,292.262,203.410,37.122,62.826,-13.617,-8576.065,25815.651,-14116.127
1512177358,0.100,43.400,272.600,68480.000,12390.000,988650.000,-235000.000,-349000.000,-99000.000,-30.093,229.516,2.756,114.708,49.745,-28.341,-8277.039,25591.103,-14043.785
1512177358,3.600,41.100,275.600,19710.000,29300.000,993040.000,-235000.000,-349000.000,-99000.000,-9.941,92.944,-62.457,166.682,53.410,-27.821,-8426.880,25590.874,-13742.516
1512177358,4.500,31.400,280.200,22460.000,9460.000,913450.000,-235000.000,-349000.000,-99000.000,57.187,-22.437,-1.119,175.828,45.110,-36.459,-8653.046,25365.532,-14040.703
1512177358,6.700,23.400,274.300,69520.000,44370.000,985780.000,-235000.000,-349000.000,-99000.000,167.066,-117.572,119.543,138.154,21.632,-33.775,-8427.750,25440.865,-14117.577
1512177358,28.900,22.200,281.500,53770.000,4090.000,1055730.000,-233000.000,-354000.000,-98000.000,267.588,-118.770,261.713,79.695,-16.286,-15.727,-8203.011,25403.701,-14306.999
1512177358,3.300,29.300,275.000,97900.000,2810.000,899350.000,-233000.000,-354000.000,-98000.000,147.861,160.843,294.528,87.023,-26.654,6.171,-7942.642,24954.094,-14534.439
1512177358,0.500,39.100,276.800,11540.000,50780.000,969060.000,-233000.000,-354000.000,-98000.000,-22.959,303.274,252.575,167.246,-14.880,-48.276,-7155.029,24992.782,-14653.617
1512177358,4.300,34.000,269.200,39920.000,850.000,1080320.000,-233000.000,-354000.000,-98000.000,115.096,192.743,343.737,189.902,1.808,-110.665,-6705.650,24843.452,-14545.013
1512177358,-6.100,23.000,267.000,87520.000,3660.000,999760.000,-238000.000,-345000.000,-89000.000,266.630,60.830,457.411,131.207,-3.266,-96.762,-6443.825,24731.346,-14884.796
1512177358,-3.500,20.000,266.300,31370.000,43760.000,958920.000,-238000.000,-345000.000,-89000.000,198.169,100.942,376.605,100.097,12.270,-62.906,-6517.891,24956.230,-15034.050
1512177358,-6.800,35.600,264.100,68180.000,19650.000,936890.000,-238000.000,-345000.000,-89000.000,140.535,77.070,250.425,112.947,28.960,-31.649,-6067.963,24956.910,-15187.874
1512177358,-9.300,41.700,259.000,99850.000,16660.000,993290.000,-238000.000,-345000.000,-89000.000,160.797,11.757,343.772,40.049,13.821,-31.351,-6067.772,24994.408,-15150.361
1512177358,-5.600,42.900,260.600,41810.000,9890.000,991580.000,-238000.000,-345000.000,-89000.000,176.341,90.228,374.117,-10.081,17.680,-16.947,-5917.884,24957.139,-15039.154
1512177358,4.900,30.500,264.600,3910.000,33570.000,1028990.000,-221000.000,-338000.000,-82000.000,96.562,178.503,238.947,51.604,3.388,-10.468,-5542.770,25032.699,-15492.302
1512177358,13.000,32.800,263.500,35710.000,30520.000,1022220.000,-221000.000,-338000.000,-82000.000,4.214,198.299,151.328,114.193,-15.789,-34.922,-5506.699,24732.750,-15642.754
1512177358,14.400,27.800,268.200,20260.000,47910.000,1037600.000,-221000.000,-338000.000,-82000.000,60.024,266.403,325.607,122.781,16.603,-84.064,-4980.828,24921.036,-15609.634
1512177358,8.400,45.700,265.400,34850.000,-1100.000,1012820.000,-221000.000,-338000.000,-82000.000,222.718,198.713,379.431,115.535,20.322,-67.994,-4832.131,24658.768,-15836.029
1512177359,2.800,46.100,265.800,7810.000,23190.000,1002620.000,-226000.000,-343000.000,-88000.000,292.970,31.650,377.736,81.565,5.098,-39.856,-4606.781,24771.599,-16175.392
1512177359,-2.800,35.000,263.000,30270.000,7870.000,1053830.000,-226000.000,-343000.000,-88000.000,287.298,13.570,332.816,53.302,12.150,-39.518,-4606.674,24846.596,-16625.343
1512177359,-5.100,45.000,268.200,46080.000,33020.000,995910.000,-226000.000,-343000.000,-88000.000,265.532,76.631,298.608,44.497,-10.622,-37.285,-4606.003,24996.605,-16625.282
1512177359,-10.900,50.100,263.000,-14100.000,-4820.000,1010800.000,-226000.000,-343000.000,-88000.000,236.319,140.749,263.228,58.255,-8.816,-42.413,-4756.454,24921.379,-16849.037
1512177359,-9.700,38.700,265.800,-26860.000,56640.000,1038700.000,-226000.000,-343000.000,-88000.000,235.296,125.924,194.932,108.920,-21.222,-14.599,-4755.707,25071.373,-16698.967
1512177359,1.600,39.400,269.200,-17270.000,7930.000,1051210.000,-230000.000,-357000.000,-81000.000,223.897,36.228,171.003,151.398,6.514,14.716,-4683.182,24546.486,-16924.858
1512177359,-9.600,16.100,269.500,41440.000,6590.000,992370.000,-230000.000,-357000.000,-81000.000,188.231,-29.041,196.909,165.080,12.715,28.170,-4607.391,24696.602,-16700.417
1512177359,-51.100,17.700,270.600,87590.000,46390.000,941530.000,-230000.000,-357000.000,-81000.000,182.077,-100.711,243.478,143.538,8.390,41.380,-4607.391,24696.602,-16700.417
1512177359,-24.500,3.300,271.800,75560.000,14400.000,1003660.000,-230000.000,-357000.000,-81000.000,187.897,-188.354,274.173,96.976,-5.827,49.410,-4608.475,24471.596,-16850.517
1512177359,-20.600,-7.300,269.200,88990.000,4940.000,1005920.000,-230000.000,-357000.000,-81000.000,83.577,-162.992,330.315,-2.685,2.992,10.265,-4458.588,24471.825,-17076.805
1512177359,-21.800,1.900,267.800,74580.000,14950.000,985660.000,-224000.000,-363000.000,-86000.000,-22.105,109.068,417.148,-100.484,12.210,-61.751,-4383.881,24396.935,-17002.464
1512177359,-2.300,-0.900,266.700,46690.000,20690.000,1088320.000,-224000.000,-363000.000,-86000.000,-19.609,337.688,406.253,-96.302,-6.072,-88.359,-3479.797,24923.286,-13559.898
1512177359,-14.400,-7.100,261.300,121700.000,46570.000,999510.000,-224000.000,-363000.000,-86000.000,30.520,357.377,211.960,13.512,-12.438,-73.080,-3254.715,24998.634,-14086.769
1512177359,-15.000,-5.300,267.600,69090.000,17520.000,998290.000,-224000.000,-363000.000,-86000.000,-55.228,340.485,45.420,147.669,7.099,-51.939,-3405.655,24848.396,-14610.558
1512177359,-14.000,11.900,267.100,71350.000,32170.000,991460.000,-207000.000,-363000.000,-89000.000,-157.752,305.057,54.471,236.264,45.683,-47.299,-3331.070,24773.521,-14761.223
1512177359,-12.700,15.300,273.000,35770.000,50230.000,1100280.000,-207000.000,-363000.000,-89000.000,-56.384,165.050,171.654,252.820,46.549,-82.836,-3181.824,24623.741,-14912.575
1512177359,-24.200,6.300,275.100,110660.000,37900.000,976680.000,-207000.000,-363000.000,-89000.000,167.747,6.024,277.757,198.390,13.972,-118.134,-3258.621,24248.634,-15137.108
1512177359,-8.300,5.100,278.800,82820.000,54500.000,960450.000,-207000.000,-363000.000,-89000.000,326.648,-59.010,335.267,127.144,-23.593,-92.316,-3032.578,24473.961,-15063.911
1512177359,-19.600,-19.700,291.200,110660.000,21910.000,882260.000,-207000.000,-363000.000,-89000.000,302.467,-3.593,382.015,85.334,-10.851,-51.839,-2732.727,24474.419,-15366.463
1512177359,-4.000,-20.400,294.000,37840.000,26370.000,996950.000,-195000.000,-364000.000,-84000.000,201.087,122.276,394.845,62.989,-0.040,-31.579,-2508.774,24249.763,-15443.489
1512177359,8.700,-13.200,304.400,10070.000,46140.000,1027590.000,-195000.000,-364000.000,-84000.000,148.001,199.119,384.745,58.497,20.119,-24.449,-2433.167,24399.864,-15594.048
1512177359,11.100,-2.300,301.200,21790.000,15630.000,1058040.000,-195000.000,-364000.000,-84000.000,106.627,217.239,373.549,61.252,17.320,-44.153,-2133.850,24250.328,-15596.672
1512177359,-13.300,26.800,290.700,43760.000,13240.000,970210.000,-195000.000,-364000.000,-84000.000,60.671,218.346,315.317,74.810,32.961,-69.471,-1610.306,23951.103,-15826.271
1512177359,-27.300,21.600,288.200,68730.000,21550.000,986330.000,-195000.000,-364000.000,-84000.000,43.919,234.507,233.044,94.087,39.666,-89.143,-1834.900,24025.780,-15674.324
1512177359,-8.500,0.100,289.100,11350.000,-2870.000,1042420.000,-200000.000,-380000.000,-86000.000,68.574,192.911,223.666,96.329,65.617,-82.931,-1683.884,24250.999,-15675.484
1512177359,-14.800,-27.200,292.300,70430.000,33450.000,976260.000,-200000.000,-380000.000,-86000.000,115.792,156.580,267.934,72.959,82.474,-65.845,-1682.449,24550.987,-15525.352
1512177359,-0.900,-10.700,298.900,-52670.000,-2990.000,1027160.000,-200000.000,-380000.000,-86000.000,187.574,64.277,273.982,45.673,88.195,-30.258,-1421.852,24138.893,-15602.775
1512177359,32.400,22.400,298.000,59020.000,14470.000,970890.000,-200000.000,-380000.000,-86000.000,154.195,0.695,258.351,12.099,58.925,5.265,-1272.430,24026.619,-15754.097
1512177359,19.200,10.900,310.300,34550.000,15750.000,1012390.000,-198000.000,-382000.000,-94000.000,38.249,89.331,182.889,61.364,28.302,-14.832,-1196.327,24289.223,-15904.617
1512177359,10.100,14.100,307.900,64270.000,-6160.000,982420.000,-198000.000,-382000.000,-94000.000,15.316,117.066,185.320,146.087,-0.312,-65.253,-973.991,23689.568,-15831.802
1512177359,8.400,0.500,312.500,11350.000,27650.000,1008180.000,-198000.000,-382000.000,-94000.000,69.489,183.751,264.690,165.536,-0.880,-110.367,-710.755,23839.965,-15721.466
1512177359,7.700,4.700,307.200,6410.000,-3910.000,1008910.000,-198000.000,-382000.000,-94000.000,186.156,173.711,300.459,137.818,70.182,-89.447,-411.095,23765.404,-15724.052
1512177359,0.700,-17.800,310.000,53710.000,18800.000,1020260.000,-198000.000,-382000.000,-94000.000,238.666,124.499,378.338,75.323,72.224,-25.442,-299.843,23503.074,-15875.129
1512177359,8.400,-8.400,311.600,52670.000,6530.000,1032900.000,-191000.000,-400000.000,-84000.000,105.437,83.773,342.151,-8.310,75.822,-55.890,37.262,23391.075,-15653.053
1512177359,13.400,1.300,320.600,13850.000,8480.000,1046080.000,-191000.000,-400000.000,-84000.000,126.016,86.835,161.231,74.094,77.504,-23.279,-0.839,23278.526,-15840.286
1512177359,11.600,8.000,315.900,73120.000,240.000,1009160.000,-191000.000,-400000.000,-84000.000,94.360,-31.795,168.356,127.483,35.172,-26.108,261.047,23128.914,-15730.087
1512177359,-9.200,-13.000,324.800,75620.000,26430.000,967590.000,-191000.000,-400000.000,-84000.000,131.559,103.232,246.120,99.985,17.477,-50.130,409.821,22866.638,-15806.472
1512177359,-10.300,-17.200,324.800,101260.000,-19960.000,1012450.000,-191000.000,-400000.000,-84000.000,132.049,192.284,317.329,85.993,47.092,-44.514,895.333,22454.872,-16073.310
1512177360,-3.600,-17.300,338.000,57310.000,12210.000,941890.000,-177000.000,-400000.000,-91000.000,124.162,159.770,276.590,81.112,62.844,-44.985,1005.020,21780.037,-15624.596
1512177360,-4.100,-8.100,332.000,114810.000,-23500.000,929020.000,-177000.000,-400000.000,-91000.000,116.358,131.951,296.638,40.606,53.659,-55.957,1081.894,22230.156,-15925.011
1512177360,-0.500,9.900,335.700,86060.000,-16480.000,1002930.000,-177000.000,-400000.000,-91000.000,71.966,154.235,339.783,-0.854,55.817,-95.742,1157.867,22455.269,-16000.542
1512177360,6.500,20.000,338.600,93990.000,-6960.000,1066470.000,-177000.000,-400000.000,-91000.000,110.032,138.363,293.373,-8.473,52.335,-103.178,1532.349,22305.824,-15703.804
1512177360,-12.100,35.600,339.300,89840.000,-24230.000,983030.000,-172000.000,-409000.000,-86000.000,113.363,144.913,219.881,18.774,74.623,-83.181,1306.824,22230.492,-16076.927
1512177360,-11.600,53.700,330.500,130370.000,22640.000,999450.000,-172000.000,-409000.000,-86000.000,90.803,116.145,164.018,82.489,68.126,-58.480,1755.844,22006.157,-16005.852
1512177360,12.900,59.000,340.100,46690.000,10310.000,1055540.000,-172000.000,-409000.000,-86000.000,67.994,67.058,123.009,127.690,58.193,-44.828,1602.432,21255.928,-16079.918
1512177360,13.600,44.100,388.600,107060.000,52310.000,1001280.000,-172000.000,-409000.000,-86000.000,70.380,19.967,169.785,135.588,45.891,-51.119,1756.821,22231.163,-16080.742
1512177360,9.900,35.700,360.600,111820.000,4210.000,965820.000,-172000.000,-409000.000,-86000.000,83.580,53.021,211.669,129.639,44.256,-66.694,1607.391,22380.943,-16304.405
1512177360,8.400,16.800,368.300,30700.000,-7020.000,948910.000,-170000.000,-410000.000,-98000.000,127.520,103.189,264.717,128.293,42.784,-59.563,1980.133,21856.499,-16082.832
1512177360,23.300,44.100,372.200,84230.000,-26430.000,982730.000,-170000.000,-410000.000,-98000.000,151.012,103.226,261.857,137.312,45.163,-42.458,2055.359,21931.602,-16308.434
1512177360,24.400,51.800,376.600,75500.000,-2690.000,1006100.000,-170000.000,-410000.000,-98000.000,131.909,113.765,322.385,131.118,63.483,-35.858,2128.082,21406.715,-16159.309
1512177360,6.500,39.500,376.600,98820.000,10070.000,1001710.000,-170000.000,-410000.000,-98000.000,102.923,125.442,334.797,107.699,68.903,-53.038,2429.428,21707.176,-16161.720
1512177360,11.900,49.100,369.100,115230.000,-19350.000,1047850.000,-170000.000,-410000.000,-98000.000,144.517,103.082,333.192,76.855,62.993,-69.325,2204.697,21781.837,-16309.776
1512177360,22.800,52.200,364.900,57800.000,23990.000,1010380.000,-158000.000,-401000.000,-76000.000,173.697,80.618,372.982,38.029,55.581,-84.491,2055.222,21856.606,-15933.464
1512177360,11.600,36.200,362.700,92650.000,-47240.000,1005800.000,-158000.000,-401000.000,-76000.000,166.323,61.390,366.410,8.495,64.126,-87.977,2054.871,21781.609,-15933.495
1512177360,15.000,28.900,369.800,17400.000,-19100.000,1003540.000,-158000.000,-401000.000,-76000.000,163.281,55.121,291.719,-0.690,73.158,-58.325,2428.497,21482.170,-16011.833
1512177360,10.500,23.200,372.200,91740.000,-5680.000,1048160.000,-158000.000,-401000.000,-76000.000,108.125,70.152,211.019,21.766,79.071,-33.475,2577.744,21332.390,-16163.170
1512177360,14.200,26.600,379.400,19470.000,7450.000,1055600.000,-161000.000,-412000.000,-79000.000,65.240,37.071,159.110,55.270,78.550,-23.361,2578.384,21482.399,-16238.106
1512177360,4.000,19.200,370.200,170100.000,-35160.000,948610.000,-161000.000,-412000.000,-79000.000,99.065,-21.528,109.292,73.386,73.169,-15.962,2653.793,21557.503,-16088.707
1512177360,-8.800,1.600,368.000,104430.000,-7320.000,868710.000,-161000.000,-412000.000,-79000.000,102.557,4.152,93.444,86.532,63.014,2.057,2653.046,21407.509,-16238.777
1512177360,14.400,-10.400,371.500,144710.000,-15140.000,1026490.000,-161000.000,-412000.000,-79000.000,90.732,41.378,165.894,83.085,47.505,-3.448,2426.056,20957.161,-16162.071
1512177360,19.400,12.300,374.600,107480.000,-2810.000,1011170.000,-161000.000,-412000.000,-79000.000,36.960,71.016,260.096,60.545,62.147,-18.223,2349.747,20657.051,-16086.571
1512177360,27.000,42.300,375.000,36130.000,-4520.000,1068850.000,-158000.000,-405000.000,-76000.000,55.986,157.412,338.493,50.653,49.997,-47.195,2801.773,21107.735,-16090.187
1512177360,19.600,36.500,372.800,66960.000,-22950.000,981750.000,-158000.000,-405000.000,-76000.000,77.276,183.078,342.091,65.145,53.301,-70.703,3325.073,20733.513,-16094.826
1512177360,2.800,28.900,377.800,30940.000,-45590.000,916690.000,-158000.000,-405000.000,-76000.000,60.672,176.821,249.079,107.809,71.576,-66.673,3100.754,20883.171,-16092.842
1512177360,10.500,-0.900,381.400,32230.000,-36070.000,935240.000,-158000.000,-405000.000,-76000.000,87.659,147.594,194.999,150.522,71.967,-65.368,3100.159,20770.676,-16280.387
1512177360,18.800,-28.400,382.300,34360.000,-21550.000,936830.000,-138000.000,-417000.000,-81000.000,160.808,1.799,245.125,112.847,66.147,-61.748,3287.521,20733.452,-16207.001
1512177360,32.200,-41.400,382.700,28440.000,-28320.000,985110.000,-138000.000,-417000.000,-81000.000,196.066,63.619,340.196,26.215,63.051,-35.880,3210.548,20283.341,-16094.078
1512177360,24.600,-15.400,382.600,48460.000,-24170.000,1024900.000,-138000.000,-417000.000,-81000.000,59.399,111.512,322.923,-10.572,65.691,-40.022,3661.193,20434.021,-16172.829
1512177360,15.200,-45.800,381.800,63420.000,-38760.000,992490.000,-138000.000,-417000.000,-81000.000,38.515,179.612,170.411,33.667,87.089,-62.764,3659.919,20134.011,-16022.965
1512177360,1.500,-32.800,371.900,119690.000,-39120.000,909420.000,-138000.000,-417000.000,-81000.000,56.013,62.203,138.276,102.945,74.133,-52.165,3809.448,20021.736,-15949.295
1512177360,-8.400,-31.200,370.200,76970.000,-31920.000,976260.000,-130000.000,-416000.000,-76000.000,121.365,-39.790,178.312,71.665,81.029,-38.963,3505.623,19196.289,-16172.134
1512177360,-9.100,-27.200,367.400,99550.000,-37350.000,1060670.000,-130000.000,-416000.000,-76000.000,122.296,54.724,191.448,61.453,71.863,0.776,3807.289,19571.731,-16212.005
1512177360,16.200,-41.400,371.500,41020.000,-54200.000,952760.000,-130000.000,-416000.000,-76000.000,-10.461,96.707,195.535,64.133,50.566,-49.017,3919.327,19459.404,-16138.016
1512177360,14.900,-18.500,375.600,71840.000,-35640.000,1035100.000,-130000.000,-416000.000,-76000.000,44.891,171.544,203.523,75.652,67.446,-90.886,4106.430,19347.183,-15914.658
1512177360,42.300,-32.800,383.600,54690.000,-61650.000,1010380.000,-130000.000,-416000.000,-76000.000,121.205,71.149,258.652,63.412,64.332,-77.328,4029.090,18822.068,-15876.762
1512177360,15.700,-15.000,379.900,72810.000,-27650.000,986020.000,-122000.000,-430000.000,-86000.000,116.577,110.677,249.659,37.346,68.850,-62.950,4329.765,18972.518,-15879.249
1512177361,48.100,-37.300,383.800,42050.000,-15010.000,1045720.000,-122000.000,-430000.000,-86000.000,50.601,160.856,212.632,45.685,67.894,-65.094,4441.681,18860.191,-16030.251
1512177361,42.900,-7.500,378.300,16110.000,-35640.000,1057130.000,-122000.000,-430000.000,-86000.000,3.390,181.167,167.243,73.174,77.741,-69.024,4666.382,18785.530,-15957.191
1512177361,46.700,0.800,372.000,69030.000,7260.000,1005250.000,-122000.000,-430000.000,-86000.000,56.463,114.059,113.410,97.691,88.126,-59.946,4441.086,18710.182,-15880.318
1512177361,17.200,36.600,366.700,80630.000,-8120.000,1020870.000,-93000.000,-417000.000,-81000.000,128.381,74.581,146.297,91.218,78.767,-55.298,4665.634,18635.521,-16107.262
1512177361,3.500,72.600,356.600,162110.000,-25330.000,1055240.000,-93000.000,-417000.000,-81000.000,165.555,38.176,217.067,49.094,70.684,-52.584,4514.359,18335.289,-15956.123
