unixtime,rx,ry,rz,ax,ay,az,mx,my,mz,apprx,appry,apprz,appax,appay,appaz,appmx,appmy,appmz
1512177103,-8.100,28.900,451.500,191890.000,33750.000,911930.000,151000.000,-290000.000,-162000.000,627.310,476.613,-144.580,16.150,2.296,-27.997,-32007.843,-11869.499,-38535.805
1512177103,26.100,48.600,462.200,145390.000,65430.000,917970.000,175000.000,-287000.000,-176000.000,582.515,397.507,-146.568,23.290,-24.755,12.705,-31560.760,-12543.816,-38314.934
1512177103,62.600,67.800,461.100,136840.000,3540.000,992550.000,175000.000,-287000.000,-176000.000,383.453,241.166,-107.354,39.260,-38.900,34.964,-31336.777,-12768.486,-38316.948
1512177103,21.600,79.800,460.300,138240.000,12450.000,908200.000,175000.000,-287000.000,-176000.000,182.452,64.550,-81.033,45.206,-52.017,39.502,-31038.239,-13068.031,-38544.640
1512177103,33.700,57.000,460.900,200380.000,62990.000,914980.000,175000.000,-287000.000,-176000.000,-19.962,-86.474,-32.255,46.474,-51.392,44.511,-31119.537,-14418.159,-38994.621
1512177103,11.900,54.900,457.500,204900.000,68240.000,927860.000,175000.000,-287000.000,-176000.000,-84.337,-125.071,-8.801,29.326,-33.555,33.918,-31039.856,-13443.031,-38394.814
1512177103,27.600,69.800,456.200,212710.000,51700.000,933650.000,170000.000,-275000.000,-167000.000,-17.239,-61.953,-1.210,17.038,-20.478,27.966,-31339.890,-13443.489,-38467.262
1512177103,6.400,52.200,455.400,175480.000,50960.000,898930.000,170000.000,-275000.000,-167000.000,58.504,-2.021,-2.039,-14.993,8.824,-2.251,-31264.847,-13443.382,-38392.906
1512177103,20.000,55.900,456.100,116090.000,49930.000,991700.000,170000.000,-275000.000,-167000.000,69.362,23.655,-12.452,-10.524,7.484,-4.362,-31040.863,-13668.037,-38394.920
1512177103,22.100,64.600,461.800,185360.000,36130.000,941960.000,170000.000,-275000.000,-167000.000,39.529,11.863,-13.991,-1.152,-2.938,1.250,-31339.737,-13443.489,-38167.259
1512177103,-1.100,41.500,462.900,229130.000,55050.000,887150.000,180000.000,-264000.000,-154000.000,40.581,9.729,-12.915,3.739,-5.696,11.383,-31264.557,-13368.370,-38467.873
1512177103,11.900,50.700,463.500,218140.000,42600.000,889040.000,180000.000,-264000.000,-154000.000,47.657,8.619,9.567,4.076,-4.176,13.833,-31489.136,-13293.709,-38315.926
1512177103,-15.000,42.700,461.300,258670.000,60610.000,847900.000,180000.000,-264000.000,-154000.000,14.759,19.272,1.667,-10.408,9.842,16.299,-31489.822,-13443.718,-38315.987
1512177103,4.900,54.300,468.600,179990.000,46330.000,921020.000,180000.000,-264000.000,-154000.000,-1.969,17.147,-18.839,-16.605,12.319,-1.423,-31491.806,-13893.715,-38241.203
1512177103,40.700,77.200,466.600,148560.000,26250.000,909730.000,180000.000,-264000.000,-154000.000,22.719,54.591,-26.878,-22.825,8.920,3.318,-31417.099,-13968.605,-38166.862
1512177103,21.600,58.300,465.800,134460.000,81240.000,948430.000,196000.000,-252000.000,-159000.000,86.796,134.809,-29.935,-27.141,23.252,63.653,-31266.052,-13743.385,-38093.040
1512177103,20.000,72.400,463.000,171200.000,37230.000,938540.000,196000.000,-252000.000,-159000.000,18.553,94.114,-31.066,29.627,-7.736,28.556,-31267.548,-14043.373,-38393.181
1512177103,36.400,88.400,465.400,155580.000,45780.000,939210.000,196000.000,-252000.000,-159000.000,-157.267,-135.787,-47.207,56.024,-36.152,-28.337,-31191.238,-13743.263,-38468.681
1512177103,3.700,64.200,469.800,213750.000,82640.000,893860.000,196000.000,-252000.000,-159000.000,-84.660,-143.265,10.321,32.836,-14.546,-79.070,-31265.594,-13593.376,-38542.976
1512177103,1.200,54.100,472.300,210630.000,23380.000,917180.000,188000.000,-239000.000,-160000.000,166.874,91.965,89.407,-12.330,-18.457,-41.221,-31191.498,-13818.260,-38318.718
1512177103,-0.700,58.300,471.500,189640.000,53280.000,884890.000,188000.000,-239000.000,-160000.000,271.535,204.300,83.853,-27.703,17.031,12.644,-31267.883,-14118.385,-38393.211
1512177103,-2.800,44.300,475.900,179570.000,34610.000,854610.000,188000.000,-239000.000,-160000.000,118.643,52.468,38.466,2.485,-1.792,48.389,-31270.660,-14718.391,-38543.495
1512177103,19.600,27.800,474.200,164550.000,10560.000,963870.000,188000.000,-239000.000,-160000.000,-119.602,-162.516,-5.177,14.560,-5.155,52.880,-30969.543,-14492.928,-38320.930
1512177103,29.200,40.100,474.700,135990.000,17880.000,883000.000,188000.000,-239000.000,-160000.000,-183.559,-217.088,-8.427,11.420,-3.593,19.343,-31418.533,-14268.608,-38317.009
1512177103,5.300,34.400,476.600,104190.000,11410.000,887270.000,200000.000,-220000.000,-155000.000,-95.424,-114.457,17.727,-25.567,12.193,-3.925,-31268.188,-14193.382,-38318.245
1512177103,6.100,21.800,481.900,125730.000,21060.000,917050.000,200000.000,-220000.000,-155000.000,-30.058,-1.097,3.079,-43.341,27.812,-7.745,-31640.823,-13668.938,-38314.812
1512177103,11.900,23.600,483.600,143190.000,28990.000,863770.000,200000.000,-220000.000,-155000.000,-20.262,43.804,-6.750,-6.636,0.599,-8.525,-31419.281,-14418.602,-38467.079
1512177103,13.700,23.800,487.400,68240.000,9950.000,958980.000,200000.000,-220000.000,-155000.000,8.774,-25.616,6.219,14.941,-5.882,1.810,-31416.916,-13893.601,-38466.843
1512177103,21.200,26.000,484.700,106750.000,3660.000,967710.000,200000.000,-220000.000,-155000.000,10.795,-11.678,-18.756,-6.261,6.629,6.832,-31304.474,-13930.931,-38242.806
1512177103,-8.800,21.600,488.200,109860.000,-7930.000,937380.000,202000.000,-208000.000,-170000.000,-1.886,3.274,-24.216,-7.050,4.340,6.819,-31266.762,-13893.379,-38168.106
1512177103,-4.100,44.700,489.600,113040.000,20260.000,978640.000,202000.000,-208000.000,-170000.000,-14.229,-34.674,-21.330,3.135,-5.976,-1.774,-31342.117,-13968.490,-38205.010
1512177103,-13.600,29.300,495.700,204280.000,6040.000,910950.000,202000.000,-208000.000,-170000.000,30.613,-9.495,-23.788,0.106,0.580,1.569,-31491.280,-13781.219,-38203.644
1512177103,-52.600,16.000,496.800,195500.000,-23070.000,886470.000,202000.000,-208000.000,-170000.000,28.596,14.010,-30.135,-3.096,1.177,7.026,-31342.331,-14005.996,-38280.029
1512177103,17.000,9.100,506.900,120970.000,980.000,955260.000,212000.000,-200000.000,-160000.000,7.244,-10.592,-29.463,-5.245,3.845,14.695,-31342.926,-14155.998,-38130.096
1512177103,1.900,15.700,507.100,125240.000,-36930.000,898500.000,212000.000,-200000.000,-160000.000,-12.528,-3.151,-25.993,-6.271,8.949,14.995,-31717.255,-14006.553,-38126.838
1512177103,12.000,20.400,512.100,194520.000,-24660.000,848020.000,212000.000,-200000.000,-160000.000,-4.979,31.050,-29.495,-0.663,1.989,8.743,-31454.834,-14006.164,-38279.076
1512177103,19.800,29.800,511.300,104250.000,-16360.000,947140.000,212000.000,-200000.000,-160000.000,1.726,36.375,-15.520,4.617,-1.341,-2.477,-31381.996,-14493.553,-38242.439
1512177103,52.600,54.300,515.300,98940.000,6900.000,909550.000,212000.000,-200000.000,-160000.000,20.332,-21.814,-15.453,-6.291,-2.635,-3.076,-31679.954,-14043.999,-38202.171
1512177104,30.500,34.400,514.300,104060.000,-17760.000,968140.000,207000.000,-192000.000,-172000.000,7.667,-31.969,-24.203,-11.387,1.545,-13.034,-31492.065,-13968.712,-38091.240
1512177104,23.300,56.200,515.100,69400.000,15560.000,917910.000,207000.000,-192000.000,-172000.000,14.861,-7.426,-6.957,-6.052,-3.985,-13.547,-31266.907,-13893.379,-38468.117
1512177104,57.400,37.200,528.600,94420.000,31920.000,1074890.000,207000.000,-192000.000,-172000.000,23.104,4.305,11.328,0.779,-10.795,-14.276,-31268.417,-14268.379,-38093.285
1512177104,12.700,11.600,516.000,100400.000,31800.000,957030.000,207000.000,-192000.000,-172000.000,26.229,-24.537,14.471,-1.634,-6.524,-5.664,-31495.102,-14643.715,-38091.545
1512177104,8.400,-31.400,479.900,91000.000,70190.000,1013060.000,207000.000,-192000.000,-172000.000,32.760,-8.489,7.160,-9.243,-6.920,6.492,-31266.388,-13818.382,-38093.071
1512177104,-9.200,-51.400,491.900,75560.000,66650.000,995000.000,195000.000,-186000.000,-167000.000,29.635,2.193,2.886,-5.697,-2.880,3.671,-31267.136,-13968.376,-38243.141
1512177104,-7.700,-95.500,454.100,168700.000,27340.000,961430.000,195000.000,-186000.000,-167000.000,20.281,8.619,-11.085,-1.711,0.571,2.856,-31492.813,-14118.721,-38241.310
1512177104,64.200,-109.900,338.900,51150.000,72450.000,1011960.000,195000.000,-186000.000,-167000.000,21.312,10.751,-8.931,-0.270,3.444,3.301,-31718.796,-14344.063,-38164.497
1512177104,-59.300,-155.900,372.800,60490.000,103520.000,996640.000,195000.000,-186000.000,-167000.000,25.521,20.368,-4.570,7.449,7.363,4.233,-31722.397,-15094.063,-38614.845
1512177104,-62.200,-187.900,465.100,152280.000,65310.000,1029050.000,188000.000,-144000.000,-96000.000,32.708,16.071,11.509,9.359,9.426,12.501,-31642.853,-14118.950,-38315.025
1512177104,-87.200,-193.500,497.100,83310.000,25570.000,951290.000,188000.000,-144000.000,-96000.000,31.436,8.572,24.259,7.907,10.601,23.359,-31418.747,-14343.605,-38092.049
1512177104,-75.400,-161.700,493.900,137760.000,-2440.000,925960.000,188000.000,-144000.000,-96000.000,12.205,-10.687,26.047,0.681,9.463,31.936,-31343.872,-14343.498,-38317.680
1512177104,-87.900,-145.900,478.300,172120.000,6840.000,922790.000,188000.000,-144000.000,-96000.000,-37.806,-34.253,18.842,-6.691,9.086,28.516,-31419.540,-14493.614,-38317.116
1512177104,-58.900,-109.100,463.800,171940.000,6650.000,864500.000,188000.000,-144000.000,-96000.000,-78.201,-36.437,11.853,-4.039,8.379,11.965,-31794.434,-14494.164,-38088.921
1512177104,-46.600,-77.600,454.700,247740.000,23990.000,853030.000,188000.000,-151000.000,-133000.000,-64.256,0.975,7.919,2.549,7.846,-12.087,-31419.312,-14418.602,-38542.076
1512177104,-18.400,-79.100,517.300,227840.000,-10440.000,903810.000,188000.000,-151000.000,-133000.000,-11.002,25.616,11.974,7.454,0.453,-16.943,-31719.086,-14419.060,-38089.531
1512177104,-95.500,-77.400,477.800,249690.000,41440.000,1033940.000,188000.000,-151000.000,-133000.000,24.248,27.817,8.230,11.726,-8.654,-5.264,-31867.783,-14119.286,-38163.109
1512177104,-86.000,6.300,450.700,287720.000,20810.000,992070.000,188000.000,-151000.000,-133000.000,32.611,3.242,16.793,5.870,-7.777,11.381,-31567.856,-14118.828,-38315.666
1512177104,-62.700,35.200,471.400,220520.000,72630.000,996700.000,188000.000,-151000.000,-133000.000,10.431,-3.177,3.655,-2.927,-1.441,25.073,-31718.750,-14344.063,-38089.500
1512177104,-90.500,51.700,479.500,212220.000,74950.000,988280.000,202000.000,-162000.000,-187000.000,0.785,-17.080,6.668,-3.135,6.177,16.563,-31942.734,-14119.392,-38087.471
1512177104,-90.700,80.200,494.500,217650.000,59880.000,959780.000,202000.000,-162000.000,-187000.000,-16.365,-29.941,10.634,-18.818,9.725,20.687,-31944.199,-14419.395,-38312.614
1512177104,-129.200,93.900,467.400,200010.000,25150.000,879090.000,202000.000,-162000.000,-187000.000,-46.156,-20.363,8.106,-21.204,3.741,12.503,-32317.810,-14119.957,-38234.291
1512177104,-85.400,133.800,465.700,201600.000,31560.000,915220.000,202000.000,-162000.000,-187000.000,-61.036,-23.582,5.749,-16.954,-1.749,0.835,-31717.697,-14119.057,-38014.397
1512177104,-88.700,178.600,463.300,156980.000,-16600.000,978150.000,195000.000,-130000.000,-177000.000,-80.240,-22.546,6.540,-6.672,-10.345,-12.210,-31717.102,-13969.048,-38164.314
1512177104,-126.800,176.700,468.200,169310.000,-13060.000,869320.000,195000.000,-130000.000,-177000.000,-119.729,-71.744,6.863,-2.833,-14.962,-16.459,-31941.162,-13744.392,-38312.309
1512177104,-113.500,171.400,464.300,127870.000,-32040.000,833440.000,195000.000,-130000.000,-177000.000,-167.544,-109.183,-4.621,12.381,-16.252,-24.076,-31565.674,-13668.831,-38015.465
1512177104,-96.000,147.300,448.900,58110.000,-65920.000,886290.000,195000.000,-130000.000,-177000.000,-88.690,-66.877,-0.667,10.962,-1.073,-12.353,-31941.727,-13894.394,-38087.372
1512177104,-21.800,124.500,422.100,88870.000,20260.000,867680.000,195000.000,-130000.000,-177000.000,27.882,36.887,14.176,6.774,14.235,19.963,-32052.650,-13557.060,-37973.762
1512177104,3.700,99.300,482.200,39060.000,-55300.000,850830.000,212000.000,-116000.000,-154000.000,-63.376,-43.842,-15.144,6.003,19.802,25.638,-32089.760,-13444.610,-38198.388
1512177104,-2.400,63.900,456.900,56150.000,-28560.000,898320.000,212000.000,-116000.000,-154000.000,-86.824,-72.183,-17.183,-7.059,11.896,40.631,-32165.474,-13632.233,-37935.341
1512177104,-27.700,41.800,423.600,17460.000,-10440.000,931090.000,212000.000,-116000.000,-154000.000,-112.196,-74.331,-29.816,-13.163,-2.901,9.422,-32427.841,-13595.116,-38008.095
1512177104,-54.100,16.500,406.000,46750.000,-40280.000,958560.000,212000.000,-116000.000,-154000.000,-182.627,-104.892,-27.748,-10.979,-12.659,-24.091,-32574.410,-12845.336,-37893.974
1512177104,-58.100,-6.800,417.200,51090.000,32710.000,899780.000,212000.000,-116000.000,-154000.000,-66.071,-58.332,18.348,2.106,-11.414,-42.154,-32386.139,-12695.053,-37707.993
1512177104,-110.800,-34.800,435.700,112920.000,-9340.000,970090.000,205000.000,-95000.000,-106000.000,-67.481,-72.732,6.017,-4.381,-1.014,0.750,-32460.960,-12657.669,-37669.846
1512177104,-101.600,-30.000,446.900,132450.000,-45410.000,909000.000,205000.000,-95000.000,-106000.000,-126.403,-95.756,-9.841,0.472,8.727,20.271,-32759.735,-12395.615,-37592.171
1512177104,-88.200,-67.200,420.200,84780.000,-60.000,959590.000,205000.000,-95000.000,-106000.000,-50.850,-55.069,0.456,-4.838,1.386,7.954,-33059.868,-12433.564,-37514.641
1512177104,-99.700,-75.100,415.600,137150.000,-24720.000,882630.000,205000.000,-95000.000,-106000.000,-78.362,-15.566,-9.932,-10.523,3.526,23.698,-33021.805,-12321.007,-37402.405
1512177104,-119.700,-59.900,425.200,151060.000,10680.000,888120.000,203000.000,-104000.000,-145000.000,-110.301,-11.870,-11.979,8.633,-5.059,-0.035,-33058.014,-12021.065,-37514.443
1512177105,-83.000,-46.300,424.000,204650.000,3970.000,863460.000,203000.000,-104000.000,-145000.000,-22.960,-42.791,22.222,7.906,-1.883,-23.970,-33132.736,-11946.175,-37626.274
1512177105,-63.900,-28.000,434.600,127870.000,-790.000,917050.000,203000.000,-104000.000,-145000.000,-0.429,-20.306,15.166,-10.909,0.547,-1.996,-33057.251,-11871.071,-37326.881
1512177105,-44.300,-23.200,412.800,178650.000,-15260.000,911130.000,203000.000,-104000.000,-145000.000,-13.154,1.043,11.857,-6.836,5.363,1.605,-32982.651,-11945.961,-37477.547
1512177105,-44.200,-18.500,427.300,121520.000,20510.000,941590.000,203000.000,-104000.000,-145000.000,2.998,-11.731,1.385,0.179,12.186,-0.889,-32832.916,-12020.729,-37328.865
1512177105,-72.600,-22.800,423.000,92410.000,5680.000,935180.000,203000.000,-75000.000,-138000.000,-16.963,-38.431,-18.187,0.316,2.958,22.459,-32907.623,-11945.839,-37403.191
1512177105,-70.200,-14.600,418.100,68120.000,3600.000,963750.000,203000.000,-75000.000,-138000.000,-35.038,-43.788,-20.597,0.588,3.738,19.867,-32982.986,-12020.958,-37477.592
1512177105,-48.300,4.500,410.400,48280.000,-39250.000,943600.000,203000.000,-75000.000,-138000.000,-18.083,-36.297,-13.928,2.260,0.193,9.212,-32907.242,-11870.842,-37328.148
1512177105,-40.900,4.000,410.000,58780.000,-15560.000,954160.000,203000.000,-75000.000,-138000.000,19.130,-21.297,-6.939,-3.747,1.231,1.813,-33058.563,-12171.059,-37252.022
1512177105,-56.600,-3.100,408.900,72570.000,-5860.000,919920.000,203000.000,-75000.000,-138000.000,3.159,-2.100,-8.174,-5.087,1.649,5.458,-32683.258,-12095.497,-37330.162
1512177105,-71.800,-19.400,410.300,82640.000,-28500.000,910640.000,209000.000,-66000.000,-150000.000,-64.940,-58.792,-17.883,-4.213,-0.084,0.064,-33133.362,-12096.184,-37551.338
1512177105,-47.100,-17.400,414.100,44980.000,-20690.000,936830.000,209000.000,-66000.000,-150000.000,-81.884,-78.030,-25.658,-1.230,-5.578,-8.938,-33281.906,-11796.394,-37324.928
1512177105,-8.000,-33.800,423.300,92710.000,6650.000,990050.000,209000.000,-66000.000,-150000.000,-35.211,-27.792,-9.886,-4.895,-0.256,-12.384,-33282.990,-12021.400,-37475.029
1512177105,12.400,-29.800,434.000,94360.000,-14530.000,945250.000,209000.000,-66000.000,-150000.000,18.988,11.793,2.766,0.217,2.456,-16.212,-33282.364,-11871.407,-37549.965
1512177105,2.900,-42.600,431.400,49260.000,-3170.000,878660.000,202000.000,-66000.000,-133000.000,45.453,0.064,13.770,5.002,-0.897,-5.581,-33358.597,-12171.516,-37324.471
1512177105,7.300,-83.400,409.100,63110.000,370.000,892640.000,202000.000,-66000.000,-133000.000,19.982,-14.916,5.886,-3.480,-4.653,7.974,-33133.667,-12171.181,-37476.387
1512177105,17.600,-107.700,382.600,47180.000,-5800.000,938900.000,202000.000,-66000.000,-133000.000,-4.535,-30.971,5.477,-8.362,-0.682,3.780,-33132.248,-11871.178,-37326.241
1512177105,5.200,-117.700,391.900,67690.000,13790.000,1054630.000,202000.000,-66000.000,-133000.000,-0.188,-9.594,1.349,-5.520,7.532,10.565,-33207.550,-11946.297,-37250.633
1512177105,57.000,-90.000,404.500,163700.000,20140.000,1060970.000,202000.000,-66000.000,-133000.000,28.405,-2.102,12.447,4.225,3.165,2.185,-33207.962,-12021.294,-37400.673
1512177105,84.800,-50.200,391.200,167790.000,2620.000,1038570.000,177000.000,-49000.000,-116000.000,34.884,-5.279,8.270,-1.743,5.110,10.088,-33133.560,-12171.181,-37251.381
1512177105,67.200,-13.400,444.500,138370.000,-26980.000,1054690.000,177000.000,-49000.000,-116000.000,29.633,13.945,3.994,-6.511,0.147,18.754,-33283.188,-12096.397,-37175.072
1512177105,68.800,-71.200,400.900,194950.000,58530.000,1000370.000,177000.000,-49000.000,-116000.000,8.443,22.472,-3.746,-5.353,2.343,24.528,-33207.626,-11946.297,-37400.627
1512177105,39.000,-7.700,319.400,145750.000,93200.000,939940.000,177000.000,-49000.000,-116000.000,-31.942,2.134,-11.863,4.809,-0.816,6.657,-33132.614,-11946.175,-37401.268
1512177105,38.200,27.300,317.800,114930.000,54930.000,904240.000,177000.000,-49000.000,-116000.000,-21.313,-27.763,-11.814,5.966,1.229,1.569,-33132.126,-11871.178,-37101.234
1512177105,37.200,44.700,324.200,155150.000,18430.000,879390.000,168000.000,-54000.000,-155000.000,10.492,-8.513,-0.628,-1.162,0.225,-0.665,-33208.176,-12096.291,-37175.713
1512177105,86.000,54.300,334.200,81240.000,30150.000,920170.000,168000.000,-54000.000,-155000.000,14.809,2.185,-2.658,-9.217,5.321,1.153,-33359.573,-12396.507,-37249.580
1512177105,44.900,32.200,326.900,49800.000,28690.000,898380.000,168000.000,-54000.000,-155000.000,6.331,9.651,-5.955,-6.285,0.760,3.486,-32907.623,-11945.839,-37403.191
1512177105,70.300,55.100,339.600,65860.000,8000.000,854250.000,168000.000,-54000.000,-155000.000,15.276,0.575,1.074,-3.159,-0.791,2.206,-33282.921,-12021.400,-37325.035
1512177105,20.800,46.200,338.800,113710.000,-3780.000,846070.000,170000.000,-45000.000,-140000.000,-31.755,-28.887,6.684,-4.546,-0.643,-3.231,-33319.763,-11871.452,-37362.145
1512177105,21.300,50.900,341.200,76290.000,-12760.000,837520.000,170000.000,-45000.000,-140000.000,11.292,-12.282,15.361,3.147,1.256,-0.280,-33320.122,-11946.457,-37399.673
1512177105,53.800,72.800,337.200,49870.000,-9580.000,912600.000,170000.000,-45000.000,-140000.000,-22.747,-39.558,9.979,1.958,-1.716,11.523,-33506.851,-11796.737,-37210.526
1512177105,37.800,52.500,325.300,71040.000,-32960.000,845580.000,170000.000,-45000.000,-140000.000,-30.686,-5.384,8.383,-6.574,3.297,9.625,-33656.570,-11721.962,-37321.709
1512177105,18.500,49.400,315.900,65370.000,-18620.000,889710.000,170000.000,-45000.000,-140000.000,7.711,20.843,7.963,6.112,4.689,-4.753,-33507.378,-11909.240,-37248.070
1512177105,49.400,73.900,281.800,43950.000,-12390.000,922300.000,165000.000,-37000.000,-132000.000,37.709,-14.869,-1.851,1.639,-0.887,7.523,-33356.491,-11721.511,-37174.255
1512177105,39.300,69.800,236.500,47910.000,-5550.000,928100.000,165000.000,-37000.000,-132000.000,28.818,-8.992,-12.623,-12.007,2.659,17.295,-33620.232,-11984.413,-37284.645
1512177105,14.400,48.300,273.800,53890.000,4090.000,857360.000,165000.000,-37000.000,-132000.000,-11.649,3.771,-14.229,-4.974,2.793,3.650,-33731.666,-11759.575,-37171.089
1512177105,-16.500,20.200,300.800,62190.000,8790.000,890260.000,165000.000,-37000.000,-132000.000,-0.521,-6.372,-11.441,4.372,-2.226,-2.004,-33395.080,-11984.070,-36986.565
1512177105,-32.800,11.200,297.700,58720.000,-8850.000,916260.000,165000.000,-37000.000,-132000.000,-23.830,-24.012,-20.901,2.997,-4.282,-8.468,-33545.067,-11984.298,-36947.792
1512177105,-26.100,-3.700,295.700,58470.000,-11110.000,919130.000,159000.000,-28000.000,-123000.000,-31.897,-102.538,-20.223,7.798,-2.597,-5.126,-33882.065,-11872.307,-36944.870
1512177106,-14.500,3.300,297.900,64030.000,-27470.000,919310.000,159000.000,-28000.000,-123000.000,-46.346,-138.819,-50.942,-1.497,1.051,-10.494,-33732.056,-11872.078,-36946.144
1512177106,-16.600,0.900,293.700,43090.000,-15560.000,921200.000,159000.000,-28000.000,-123000.000,-52.614,-146.286,-58.519,-4.794,0.946,1.804,-33957.733,-12022.408,-36944.313
1512177106,-7.300,12.700,290.000,48160.000,-33510.000,910710.000,159000.000,-28000.000,-123000.000,-94.030,-248.868,-73.335,-19.599,-13.651,-8.186,-34105.301,-11497.643,-36792.793
1512177106,-19.200,8.000,283.900,71780.000,-45170.000,902340.000,133000.000,-15000.000,-138000.000,-90.488,-259.502,-94.642,4.849,13.268,14.468,-34256.454,-11797.859,-36416.649
1512177106,-14.200,25.800,279.900,43400.000,-34610.000,906680.000,133000.000,-15000.000,-138000.000,-97.123,-194.390,-77.457,-14.836,1.690,12.804,-34331.161,-11722.969,-36490.990
1512177106,7.100,28.500,275.200,39370.000,-25570.000,948430.000,133000.000,-15000.000,-138000.000,-51.592,-124.930,-55.234,-15.496,13.013,7.754,-34480.789,-11648.201,-36414.665
1512177106,15.300,33.400,271.400,69460.000,-21300.000,898620.000,133000.000,-15000.000,-138000.000,23.864,1.195,-34.511,-13.190,13.034,27.925,-34780.823,-11648.643,-36487.129
1512177106,-3.500,22.100,266.800,33390.000,-73120.000,893130.000,133000.000,-15000.000,-138000.000,52.411,26.844,-19.084,-9.117,0.956,21.830,-34409.241,-12398.094,-36565.651
1512177106,-7.300,20.400,264.200,31250.000,-59140.000,914180.000,142000.000,3000.000,-126000.000,-65.544,-17.086,-44.400,-11.756,5.379,15.847,-34482.849,-12098.198,-36489.876
1512177106,2.700,18.600,261.100,32900.000,-31370.000,924260.000,142000.000,3000.000,-126000.000,-270.573,-230.931,-98.219,3.162,-18.687,-30.194,-34555.740,-11648.308,-36339.027
1512177106,-6.400,6.300,261.300,67080.000,-50540.000,933290.000,142000.000,3000.000,-126000.000,-419.102,-627.338,-161.451,64.035,-3.004,-80.280,-34929.214,-11348.869,-35960.701
1512177106,-11.700,1.300,265.400,50600.000,-67380.000,907530.000,142000.000,3000.000,-126000.000,-398.617,-859.055,-186.478,42.473,-27.805,-72.919,-35154.358,-11424.217,-35583.824
1512177106,-8.700,-9.600,264.100,54630.000,-79900.000,840760.000,142000.000,3000.000,-126000.000,-290.088,-981.488,-308.994,-32.758,23.029,-59.151,-36204.178,-11425.789,-35199.913
1512177106,5.900,12.800,258.200,38700.000,-58590.000,944340.000,126000.000,-1000.000,-142000.000,-442.261,-1192.919,-465.449,-50.017,8.365,-22.405,-37027.573,-11127.022,-34667.763
1512177106,-2.400,14.400,248.600,41750.000,-89290.000,927800.000,126000.000,-1000.000,-142000.000,-627.138,-1355.350,-575.298,-68.136,24.080,6.364,-37403.015,-11277.580,-34214.653
1512177106,-12.500,6.800,248.200,48100.000,-66890.000,935550.000,126000.000,-1000.000,-142000.000,-864.603,-1875.595,-746.857,-160.537,103.696,-161.830,-38374.649,-10679.039,-32856.087
1512177106,0.400,14.000,248.900,55480.000,-83370.000,945920.000,126000.000,-1000.000,-142000.000,-1006.860,-2341.091,-1515.965,-202.051,219.522,-46.907,-39500.916,-11130.730,-31346.733
1512177106,4.500,18.800,250.600,49010.000,-65730.000,961430.000,126000.000,8000.000,-138000.000,-1406.557,-2703.013,-1925.985,-281.584,242.391,73.720,-40702.499,-11657.539,-29761.787
1512177106,8.500,13.300,251.300,43030.000,-70920.000,925540.000,126000.000,8000.000,-138000.000,-1500.669,-2226.694,-1949.145,-286.535,169.124,145.084,-41604.599,-12333.885,-27879.463
1512177106,2.500,12.300,249.300,35460.000,-94180.000,936770.000,126000.000,8000.000,-138000.000,-1035.947,-1571.255,-1913.484,-334.253,121.077,176.348,-42205.994,-12784.782,-26599.571
1512177106,9.200,7.300,249.700,70920.000,-104800.000,915160.000,126000.000,8000.000,-138000.000,-786.301,-1410.120,-2174.751,-361.488,99.832,228.737,-42286.316,-14134.911,-25099.556
1512177106,-18.400,-8.300,244.100,62380.000,-110050.000,911010.000,126000.000,8000.000,-138000.000,-1196.579,-1783.159,-2913.310,-277.738,105.184,231.875,-41616.638,-15408.897,-24280.907
1512177106,-4.300,1.900,241.300,57070.000,-127560.000,927190.000,135000.000,3000.000,-137000.000,-1874.189,-2214.506,-3539.741,194.139,-131.569,179.656,-40572.830,-16907.341,-23165.520
1512177106,5.300,5.200,240.200,60360.000,-120730.000,958250.000,135000.000,3000.000,-137000.000,-1443.277,-1921.613,-1147.707,1658.124,-1135.193,-386.613,-39828.598,-18331.230,-21897.560
1512177106,9.700,4.300,247.900,75560.000,-129580.000,923030.000,135000.000,3000.000,-137000.000,-714.747,-1535.398,1819.306,46.094,-503.822,-46.463,-40276.733,-18031.898,-20843.590
1512177106,-11.100,-6.100,249.400,69820.000,-148740.000,928590.000,135000.000,3000.000,-137000.000,-233.697,-263.258,1154.822,-221.915,36.626,245.285,-41694.336,-16459.023,-20230.766
1512177106,0.300,-10.500,250.500,84780.000,-135560.000,918150.000,135000.000,3000.000,-137000.000,158.620,-43.283,-128.128,-214.879,33.737,-141.467,-41575.692,-15146.340,-19743.614
1512177106,2.000,-11.600,249.100,66830.000,-155090.000,935670.000,128000.000,10000.000,-147000.000,818.634,-22.480,-684.036,-16.795,-55.404,-93.919,-40980.026,-16120.452,-19636.658
1512177106,5.200,-1.200,249.100,60240.000,-160520.000,927920.000,128000.000,10000.000,-147000.000,33.999,-319.873,-1344.071,-102.103,-23.048,-68.798,-39976.913,-18181.442,-19871.215
1512177106,-1.100,3.200,244.900,51210.000,-152650.000,960390.000,128000.000,10000.000,-147000.000,-414.946,-45.766,-2292.553,-227.185,-59.180,-34.530,-38299.492,-20353.935,-20486.565
1512177106,-19.200,-11.300,243.300,98080.000,-171330.000,928100.000,128000.000,10000.000,-147000.000,-55.257,210.389,-2176.646,-41.467,-235.811,-9.119,-34940.346,-23686.386,-22204.285
1512177106,-17.000,-14.600,243.800,85940.000,-158940.000,890140.000,128000.000,24000.000,-137000.000,507.435,-237.087,-1250.042,-7.821,-66.432,125.888,-31653.733,-26418.968,-24371.078
1512177106,-18.000,-5.500,245.800,57560.000,-142330.000,875240.000,128000.000,24000.000,-137000.000,1316.955,-589.472,-1226.215,125.576,279.596,-4.298,-29525.825,-28478.264,-25027.695
1512177106,-67.200,-48.100,243.000,117680.000,-158570.000,876040.000,128000.000,24000.000,-137000.000,1536.448,-254.632,-491.083,246.252,392.701,-116.807,-27517.746,-32337.761,-24109.200
1512177106,-30.400,-29.400,253.000,92710.000,-178470.000,858520.000,128000.000,24000.000,-137000.000,816.981,339.863,823.541,194.198,316.511,-35.528,-27596.008,-33162.872,-23208.946
1512177106,9.100,2.400,254.900,98630.000,-153870.000,951660.000,128000.000,24000.000,-137000.000,292.574,863.147,1295.890,266.770,271.820,-49.074,-28867.393,-32339.783,-23422.730
1512177106,49.500,35.600,261.400,54930.000,-138120.000,984990.000,130000.000,26000.000,-155000.000,792.115,610.211,1568.764,217.352,199.536,5.816,-30511.742,-31142.243,-22883.148
1512177106,25.400,24.100,257.100,107420.000,-131470.000,943730.000,130000.000,26000.000,-155000.000,1213.633,453.449,1761.418,96.547,115.055,28.954,-32681.984,-30245.498,-21439.254
1512177107,10.100,15.300,258.500,38210.000,-152100.000,955080.000,130000.000,26000.000,-155000.000,1231.232,601.813,1832.548,38.212,84.797,70.181,-34550.613,-28973.305,-20147.743
1512177107,-4.900,1.300,255.300,84230.000,-137570.000,939330.000,130000.000,26000.000,-155000.000,1317.106,690.159,2060.106,1.154,63.298,85.691,-36122.314,-28300.667,-19609.032
1512177107,20.500,18.000,258.100,58350.000,-159480.000,971620.000,130000.000,26000.000,-155000.000,1398.022,622.592,2256.128,-10.802,30.623,82.800,-37091.736,-27177.116,-18550.240
1512177107,10.000,14.800,258.100,56210.000,-161190.000,856630.000,115000.000,33000.000,-138000.000,1355.306,456.028,2188.838,-1.469,-23.654,76.736,-38134.277,-25603.676,-17790.596
1512177107,17.000,35.200,257.700,51940.000,-189640.000,964600.000,115000.000,33000.000,-138000.000,1174.941,232.875,1995.687,10.658,-59.250,61.215,-39401.474,-23955.589,-17028.999
1512177107,23.800,42.500,259.500,34970.000,-164430.000,947270.000,115000.000,33000.000,-138000.000,986.097,-52.100,1732.910,-29.929,-45.116,22.628,-40294.083,-22381.920,-16420.631
1512177107,12.800,41.000,258.900,50720.000,-169560.000,941280.000,115000.000,33000.000,-138000.000,989.597,-220.565,1576.728,-119.029,-54.253,9.005,-41190.048,-21558.266,-15737.587
1512177107,-17.000,9.500,261.500,114620.000,-169980.000,873900.000,114000.000,42000.000,-160000.000,1172.004,-252.189,1503.570,-139.184,-124.261,-25.680,-41633.743,-20283.928,-14608.192
1512177107,-53.100,-5.500,265.000,89660.000,-165710.000,923100.000,114000.000,42000.000,-160000.000,1272.372,-242.154,1364.336,-148.235,-158.794,-43.293,-42755.814,-19760.612,-13473.396
1512177107,9.200,25.300,267.200,60300.000,-153020.000,918820.000,114000.000,42000.000,-160000.000,1194.124,-114.448,1009.720,-123.823,-196.025,21.022,-43199.707,-18486.275,-12718.971
1512177107,-24.000,9.300,260.500,91980.000,-128910.000,903750.000,114000.000,42000.000,-160000.000,1004.203,28.875,767.602,-109.921,-197.141,50.183,-43497.452,-18036.720,-12266.228
1512177107,-8.500,18.500,265.400,66220.000,-127990.000,946110.000,114000.000,42000.000,-160000.000,785.413,-64.158,648.974,-110.569,-157.603,75.517,-43945.694,-17662.392,-12112.221
1512177107,3.900,26.200,266.300,67200.000,-177800.000,947510.000,114000.000,52000.000,-157000.000,618.920,-41.623,467.542,-106.474,-127.637,90.203,-44544.952,-17513.298,-11957.054
1512177107,-8.800,15.600,265.000,89660.000,-148930.000,918760.000,114000.000,52000.000,-157000.000,439.583,163.658,233.256,-85.897,-102.615,125.959,-44543.381,-17213.295,-11506.920
1512177107,-33.200,-1.300,267.500,93510.000,-159480.000,906680.000,114000.000,52000.000,-157000.000,167.498,345.178,63.644,-37.629,-75.747,159.600,-44392.212,-16913.063,-11883.049
1512177107,11.500,43.300,260.700,112180.000,-147090.000,967830.000,114000.000,52000.000,-157000.000,-134.231,340.565,0.622,38.539,-44.038,160.527,-44393.936,-17288.063,-11958.229
1512177107,1.900,30.900,267.100,108400.000,-145260.000,970700.000,98000.000,37000.000,-159000.000,-285.154,191.918,-35.133,74.700,-12.017,156.018,-44318.268,-17062.950,-12633.766
1512177107,-33.400,0.400,266.400,55480.000,-159000.000,915650.000,98000.000,37000.000,-159000.000,-256.066,23.246,-60.880,65.295,11.584,123.681,-44469.986,-17438.179,-12707.649
1512177107,4.400,28.400,267.800,80570.000,-156370.000,924260.000,98000.000,37000.000,-159000.000,-210.296,-76.027,-61.629,53.045,31.420,90.371,-44394.089,-17213.066,-12933.189
1512177107,3.600,22.100,270.200,63290.000,-142090.000,947140.000,98000.000,37000.000,-159000.000,-248.382,-82.589,-15.298,50.217,23.458,58.321,-44468.292,-17063.179,-12707.481
1512177107,24.900,27.400,272.300,75930.000,-171330.000,882080.000,98000.000,37000.000,-159000.000,-332.000,1.481,81.861,61.124,8.351,34.743,-44093.338,-17062.614,-12785.667
1512177107,26.500,25.300,268.800,62870.000,-161070.000,933040.000,98000.000,58000.000,-148000.000,-407.155,58.850,181.180,67.248,8.921,14.394,-44240.631,-16462.837,-12784.111
1512177107,-10.400,3.100,268.800,81360.000,-153500.000,900570.000,98000.000,58000.000,-148000.000,-354.196,16.041,264.952,64.483,-3.418,-2.485,-44088.013,-15862.617,-12935.112
1512177107,5.200,8.100,268.700,62260.000,-143980.000,937560.000,98000.000,58000.000,-148000.000,-174.498,-75.597,288.558,61.998,-4.508,-5.027,-43937.302,-15712.379,-12861.320
1512177107,4.400,6.100,268.600,48580.000,-108890.000,973690.000,98000.000,58000.000,-148000.000,7.014,-140.437,268.576,33.168,-18.539,-4.288,-44086.136,-15487.602,-12559.944
1512177107,5.900,10.000,268.700,35400.000,-151180.000,919310.000,98000.000,58000.000,-148000.000,35.890,-31.436,268.308,26.061,-48.983,21.168,-44384.445,-15113.060,-12557.213
1512177107,22.400,23.000,267.600,32100.000,-134280.000,925230.000,96000.000,56000.000,-167000.000,-166.435,69.684,291.311,35.324,-55.458,31.905,-44193.687,-14400.276,-12445.984
1512177107,2.800,22.500,266.400,39490.000,-144170.000,929500.000,96000.000,56000.000,-167000.000,-118.338,3.679,216.088,13.699,-45.769,35.023,-44229.309,-13987.824,-12407.967
1512177107,-15.700,15.700,261.000,75010.000,-116640.000,901060.000,96000.000,56000.000,-167000.000,24.500,-69.014,84.115,5.477,-50.341,50.108,-44340.592,-13725.487,-12331.894
1512177107,-29.600,10.300,258.600,69820.000,-160770.000,931580.000,96000.000,56000.000,-167000.000,11.005,8.790,163.080,9.512,-66.925,73.326,-44414.276,-13463.104,-12068.641
1512177107,-3.700,7.100,260.700,116090.000,-151490.000,904050.000,87000.000,65000.000,-155000.000,34.078,-56.182,85.898,8.358,-80.296,84.805,-44600.335,-13163.376,-11879.410
1512177107,-9.600,10.400,255.800,79590.000,-146730.000,917850.000,87000.000,65000.000,-155000.000,-70.067,-94.497,-64.991,2.434,-73.665,84.623,-44412.354,-13088.097,-11580.979
1512177107,23.800,39.100,248.900,89230.000,-145570.000,973210.000,87000.000,65000.000,-155000.000,-217.903,66.127,-110.817,21.752,-70.226,79.100,-44262.467,-13125.374,-11469.764
1512177107,45.100,42.600,251.000,63480.000,-189030.000,930540.000,87000.000,65000.000,-155000.000,-259.780,147.267,-120.736,54.861,-66.586,84.413,-44414.635,-13575.599,-11768.692
1512177107,10.800,16.000,252.200,85390.000,-157040.000,904420.000,87000.000,65000.000,-155000.000,-76.953,-20.019,-193.827,67.457,-72.724,82.102,-43889.877,-13574.814,-12260.651
1512177107,15.600,29.200,250.300,48280.000,-156560.000,911380.000,89000.000,56000.000,-150000.000,-140.689,-8.870,-206.436,47.079,-90.630,85.989,-43404.701,-14099.090,-12190.033
1512177107,6.900,18.000,244.100,55970.000,-160950.000,901610.000,89000.000,56000.000,-150000.000,-207.359,80.205,-200.165,60.501,-71.752,89.614,-43370.407,-14811.531,-12190.690
1512177107,7.100,23.200,236.500,38330.000,-150820.000,921750.000,89000.000,56000.000,-150000.000,-129.329,41.493,-279.123,89.877,-82.022,92.022,-42997.841,-15298.470,-12681.595
1512177108,-11.100,9.500,229.200,53770.000,-139160.000,937990.000,89000.000,56000.000,-150000.000,-176.822,2.299,-213.319,113.518,-70.186,86.077,-42810.913,-15410.698,-12795.738
1512177108,-9.600,5.100,224.100,36930.000,-135250.000,941530.000,89000.000,56000.000,-150000.000,-168.679,-53.404,-128.111,126.726,-63.972,78.235,-42962.326,-15710.915,-12944.603
1512177108,3.700,19.000,221.400,6770.000,-121520.000,934080.000,84000.000,61000.000,-159000.000,-100.530,-137.813,-62.386,126.671,-46.817,64.417,-42738.266,-15935.585,-12796.623
1512177108,-4.800,11.700,215.400,33330.000,-149170.000,927250.000,84000.000,61000.000,-159000.000,-21.047,-176.200,-35.783,99.968,-56.132,68.954,-42887.146,-15710.808,-12570.244
1512177108,8.800,21.800,213.900,42790.000,-137020.000,952820.000,84000.000,61000.000,-159000.000,-48.426,-79.006,-51.833,90.230,-65.619,68.534,-42812.820,-15860.695,-12570.946
1512177108,-6.300,10.900,214.100,47970.000,-135620.000,943480.000,84000.000,61000.000,-159000.000,-174.429,36.259,-98.032,93.623,-64.075,63.682,-42964.951,-16310.921,-12794.884
1512177108,4.800,1.700,206.100,49260.000,-124150.000,903200.000,87000.000,65000.000,-155000.000,-233.394,102.480,-139.165,107.679,-68.539,61.460,-42588.348,-15935.356,-12947.899
1512177108,-14.100,-6.700,204.800,59450.000,-136780.000,887020.000,87000.000,65000.000,-155000.000,-197.458,115.310,-120.480,131.549,-71.205,56.977,-42139.053,-16084.694,-13026.802
1512177108,-1.900,-15.200,203.900,28320.000,-118160.000,910400.000,87000.000,65000.000,-155000.000,-121.915,57.599,-50.295,132.796,-69.321,57.035,-42290.436,-16384.911,-13100.655
1512177108,-7.300,-22.500,201.500,41500.000,-171330.000,920350.000,87000.000,65000.000,-155000.000,-55.230,50.176,-20.566,118.950,-73.148,59.376,-42514.099,-16085.243,-13098.610
1512177108,32.800,-13.000,202.900,14280.000,-108890.000,931150.000,87000.000,65000.000,-155000.000,-32.607,110.053,-31.755,108.686,-78.773,64.004,-42515.213,-16310.249,-13323.708
1512177108,20.400,-12.500,201.500,24170.000,-144780.000,895750.000,70000.000,72000.000,-155000.000,-44.521,173.027,-17.852,100.623,-88.547,77.467,-42291.565,-16609.917,-13325.752
1512177108,24.500,0.400,192.100,56760.000,-183110.000,864500.000,70000.000,72000.000,-155000.000,-54.080,215.741,-17.842,99.911,-90.990,82.296,-41990.250,-16309.471,-13403.175
1512177108,39.300,-10.500,189.600,56640.000,-164980.000,810300.000,70000.000,72000.000,-155000.000,-65.777,237.086,-19.005,122.266,-109.998,89.579,-41915.741,-16384.361,-13703.835
1512177108,-4.700,-59.500,183.900,20320.000,-159670.000,865420.000,70000.000,72000.000,-155000.000,-62.894,181.515,-2.097,131.420,-95.502,85.295,-41841.232,-16459.251,-14004.509
1512177108,32.000,-51.700,194.100,4520.000,-121640.000,988710.000,70000.000,72000.000,-155000.000,31.637,138.896,17.248,110.400,-89.509,91.527,-42365.631,-16310.020,-14149.986
1512177108,50.500,-33.000,198.300,43640.000,-103090.000,1056580.000,50000.000,66000.000,-143000.000,134.752,150.763,34.771,94.329,-88.137,100.822,-42591.232,-16460.365,-13998.131
1512177108,46.200,-6.900,188.300,31680.000,-123410.000,1030330.000,50000.000,66000.000,-143000.000,118.576,178.487,47.426,92.235,-89.676,120.196,-42142.090,-16609.688,-14377.022
1512177108,23.400,22.900,176.800,87400.000,-129940.000,979130.000,50000.000,66000.000,-143000.000,63.131,235.011,51.085,98.910,-101.551,137.749,-42292.847,-16759.926,-14525.826
1512177108,-13.600,24.200,173.200,115780.000,-102230.000,978450.000,50000.000,66000.000,-143000.000,18.525,209.330,39.689,116.892,-97.326,140.491,-42293.900,-16984.917,-14600.929
1512177108,-35.600,36.100,168.300,72020.000,-146790.000,1041930.000,54000.000,81000.000,-167000.000,8.075,114.277,22.149,124.126,-98.174,136.549,-42443.634,-16910.149,-14749.611
1512177108,-14.400,43.400,159.500,71350.000,-149720.000,946410.000,54000.000,81000.000,-167000.000,18.190,76.974,-10.880,117.667,-97.358,121.796,-42292.999,-16759.926,-14825.813
1512177108,-46.100,20.500,158.700,67990.000,-159670.000,901250.000,54000.000,81000.000,-167000.000,9.594,102.587,-5.585,110.511,-102.363,121.854,-42293.289,-16834.923,-14750.862
1512177108,10.300,49.900,159.300,45650.000,-125490.000,919430.000,54000.000,81000.000,-167000.000,-46.103,162.282,13.003,115.668,-106.642,112.466,-41845.062,-17209.251,-14904.854
1512177108,-4.400,56.600,161.300,27280.000,-134890.000,896670.000,54000.000,81000.000,-167000.000,-93.543,211.410,-16.294,116.191,-111.474,99.923,-42071.701,-17584.587,-14828.117
1512177108,1.700,52.100,161.300,11780.000,-115480.000,894170.000,56000.000,61000.000,-148000.000,-145.029,249.868,-60.618,119.423,-122.076,89.072,-41919.159,-16984.352,-15129.112
1512177108,-23.000,37.000,173.500,20450.000,-130000.000,933410.000,56000.000,61000.000,-148000.000,-187.242,286.706,-84.553,118.861,-115.551,78.688,-41433.082,-17246.125,-15620.873
1512177108,-10.000,47.300,148.500,-65370.000,-130070.000,888610.000,56000.000,61000.000,-148000.000,-81.966,316.806,-99.447,102.049,-119.191,85.340,-40947.578,-17620.399,-16262.680
1512177108,3.300,47.500,138.400,-25510.000,-143920.000,884030.000,56000.000,61000.000,-148000.000,-105.212,351.633,-175.355,84.427,-147.202,125.885,-41101.448,-18408.127,-16899.269
1512177108,17.300,39.800,126.100,-24110.000,-129460.000,888120.000,56000.000,61000.000,-148000.000,-317.306,436.079,-367.891,51.868,-134.906,130.228,-40540.482,-18632.286,-17954.147
1512177108,12.800,22.200,120.800,7390.000,-142640.000,908080.000,31000.000,89000.000,-138000.000,-515.549,620.410,-555.616,69.496,-113.472,121.565,-39720.764,-19643.562,-19424.126
1512177108,6.100,21.400,118.900,-26060.000,-124390.000,908630.000,31000.000,89000.000,-138000.000,-646.532,664.084,-594.140,114.803,-63.411,114.836,-38373.406,-20054.046,-21010.788
1512177108,-6.000,9.200,122.200,-29050.000,-121950.000,943910.000,31000.000,89000.000,-138000.000,-574.543,408.603,-446.870,155.867,-21.348,85.251,-36990.425,-20839.463,-22972.939
1512177108,-3.300,16.100,115.300,-22830.000,-128910.000,901550.000,31000.000,89000.000,-138000.000,-360.553,246.417,-372.909,136.956,-13.223,70.970,-36167.771,-21250.732,-23955.131
1512177108,-3.900,11.600,114.600,4700.000,-118160.000,883480.000,49000.000,86000.000,-148000.000,-373.183,275.940,-187.495,170.181,-26.233,59.310,-34969.773,-21586.441,-24940.483
1512177108,-9.200,-2.800,108.000,11050.000,-140750.000,897090.000,49000.000,86000.000,-148000.000,-230.213,192.201,-134.011,195.290,-39.943,28.415,-34632.713,-21585.930,-25843.346
1512177108,-5.700,0.500,107.200,46880.000,-115660.000,845760.000,49000.000,86000.000,-148000.000,-144.915,175.517,-7.041,177.631,-25.926,-1.470,-33958.260,-21659.920,-26261.612
1512177108,-16.000,-0.300,103.500,29300.000,-148560.000,864870.000,49000.000,86000.000,-148000.000,-6.526,374.845,47.363,140.242,-22.701,-0.315,-33471.733,-21809.182,-26865.829
1512177109,-8.700,1.500,99.100,49740.000,-95700.000,807920.000,49000.000,86000.000,-148000.000,-108.351,436.511,116.464,176.255,-26.175,27.074,-33321.625,-21696.465,-27654.549
1512177109,-22.500,-3.300,97.500,32900.000,-112670.000,910580.000,29000.000,81000.000,-130000.000,-137.521,348.832,134.922,180.738,-15.053,26.741,-33099.701,-22371.132,-27731.773
1512177109,-8.800,-19.200,96.000,7510.000,-121640.000,899720.000,29000.000,81000.000,-130000.000,-30.033,250.711,141.469,164.903,-15.314,9.221,-32646.545,-21620.445,-28185.234
1512177109,-3.900,-27.300,99.200,24170.000,-93320.000,913270.000,29000.000,81000.000,-130000.000,142.842,232.713,195.084,141.501,-29.036,27.280,-32947.037,-21695.900,-28482.735
1512177109,4.900,-9.700,89.100,41500.000,-104980.000,971680.000,29000.000,81000.000,-130000.000,199.000,313.933,219.633,140.918,-37.188,40.581,-32871.887,-21620.796,-28858.330
1512177109,57.100,16.200,80.300,41260.000,-93690.000,970640.000,31000.000,79000.000,-142000.000,102.206,341.579,207.665,142.323,-48.010,58.748,-33098.679,-21996.132,-29081.596
1512177109,29.400,10.800,73.600,1220.000,-102660.000,973330.000,31000.000,79000.000,-142000.000,15.277,290.242,176.381,147.798,-30.239,57.835,-32949.539,-22145.897,-29457.939
1512177109,40.900,11.200,68.600,22580.000,-114690.000,918640.000,31000.000,79000.000,-142000.000,54.740,280.685,173.717,151.114,-27.281,77.704,-33174.286,-22071.251,-29605.995
1512177109,7.700,-0.700,59.400,-5920.000,-87590.000,927800.000,31000.000,79000.000,-142000.000,86.189,305.235,207.306,152.083,-34.250,65.324,-32948.685,-21920.906,-29757.835
1512177109,11.900,-0.700,60.300,-27890.000,-126650.000,879210.000,31000.000,79000.000,-142000.000,79.970,258.251,194.260,138.872,-20.014,53.517,-33249.435,-22071.358,-29905.342
1512177109,38.500,1.500,59.700,-16720.000,-68300.000,957340.000,42000.000,82000.000,-159000.000,124.480,265.766,210.923,142.765,-28.331,58.302,-33176.834,-22596.245,-29981.224
1512177109,48.500,14.200,58.200,-22400.000,-75260.000,916990.000,42000.000,82000.000,-159000.000,164.302,206.056,184.639,155.618,-25.863,63.901,-33401.276,-22446.587,-30204.247
1512177109,57.900,17.800,53.500,-24050.000,-57250.000,892880.000,42000.000,82000.000,-159000.000,199.004,192.173,213.881,151.284,-29.391,70.793,-33477.737,-22746.696,-30428.734
1512177109,24.200,29.700,55.000,-15320.000,-39920.000,895630.000,42000.000,82000.000,-159000.000,205.377,147.185,276.710,155.456,-19.822,74.037,-33551.834,-22596.809,-29978.035
1512177109,18.400,12.500,46.900,-20510.000,-46390.000,881470.000,42000.000,82000.000,-159000.000,251.303,136.466,337.043,148.307,-38.172,84.667,-34000.748,-22372.475,-29824.120
1512177109,42.600,-1.600,43.900,-16600.000,-54810.000,910100.000,29000.000,84000.000,-154000.000,284.441,149.213,396.198,143.208,-38.050,83.204,-34077.316,-22672.600,-30273.613
1512177109,22.900,4.700,36.900,-3360.000,-26610.000,973450.000,29000.000,84000.000,-154000.000,237.397,165.145,405.166,123.724,-47.734,98.766,-34227.219,-22672.829,-30047.325
1512177109,55.800,8.400,38.200,34910.000,-46690.000,963750.000,29000.000,84000.000,-154000.000,146.329,188.574,368.746,125.357,-47.754,99.281,-34450.455,-22298.149,-29895.241
1512177109,69.100,4.500,34.600,-24660.000,-24960.000,940550.000,29000.000,84000.000,-154000.000,78.526,177.838,342.140,115.703,-48.380,101.065,-34978.943,-23048.943,-30116.142
1512177109,46.600,9.100,37.700,-6410.000,-4030.000,931090.000,33000.000,95000.000,-150000.000,60.796,188.544,319.536,101.098,-52.651,90.635,-35050.491,-22299.049,-29965.157
1512177109,22.600,11.300,34.000,-39550.000,-21790.000,889590.000,33000.000,95000.000,-150000.000,28.565,181.111,268.935,97.016,-50.858,73.908,-34974.258,-21998.940,-30190.651
1512177109,11.500,15.800,36.000,2200.000,9030.000,911680.000,33000.000,95000.000,-150000.000,-6.960,193.960,225.823,105.819,-53.252,71.536,-34823.456,-21848.717,-29966.850
1512177109,8.400,14.200,31.000,-15080.000,-26180.000,845950.000,33000.000,95000.000,-150000.000,-16.257,242.051,210.934,117.497,-64.957,63.457,-35202.026,-22599.281,-30339.012
1512177109,10.500,1.700,27.800,-72630.000,-30940.000,933840.000,33000.000,95000.000,-150000.000,-32.342,260.170,217.159,128.710,-66.048,64.007,-34899.658,-22073.830,-30341.316
1512177109,14.500,1.100,28.100,15750.000,-5370.000,873720.000,10000.000,72000.000,-138000.000,-75.538,226.520,184.434,139.964,-68.440,48.007,-34862.007,-21998.771,-30716.607
1512177109,-4.300,1.300,25.800,-14220.000,-42300.000,888180.000,10000.000,72000.000,-138000.000,-56.426,171.192,89.640,109.804,-31.485,37.198,-34861.336,-21811.272,-31054.023
1512177109,25.600,0.800,27.700,-20510.000,18370.000,899540.000,10000.000,72000.000,-138000.000,-52.821,325.989,136.602,130.003,-18.317,57.904,-34862.419,-21998.771,-31541.595
1512177109,1.600,-0.500,26.500,20320.000,790.000,858760.000,10000.000,72000.000,-138000.000,-60.301,369.577,236.855,177.206,-39.376,93.723,-34673.562,-21660.988,-31843.040
1512177109,0.800,10.400,20.000,38640.000,-17400.000,928100.000,10000.000,72000.000,-138000.000,-69.124,107.247,274.192,115.500,-27.029,75.710,-34372.108,-21323.036,-31995.422
1512177109,8.700,26.800,21.600,29600.000,-5070.000,950680.000,24000.000,79000.000,-165000.000,-24.499,256.490,193.806,54.154,-34.043,71.701,-34671.341,-21135.987,-32142.792
1512177109,-12.500,18.400,20.600,-11540.000,-19900.000,891540.000,24000.000,79000.000,-165000.000,-90.153,369.191,140.477,127.377,-56.699,96.416,-34371.955,-21210.533,-32707.878
1512177109,-9.700,13.700,16.800,-7510.000,-9640.000,918090.000,24000.000,79000.000,-165000.000,-42.398,186.122,112.282,133.504,-56.334,95.374,-34221.382,-21022.804,-33234.070
1512177109,-11.900,-0.100,15.700,-38150.000,-5430.000,971560.000,24000.000,79000.000,-165000.000,-109.748,221.371,60.790,120.147,-36.517,55.565,-34259.178,-21060.363,-33496.262
1512177109,-3.200,-11.100,17.800,-16300.000,23560.000,978820.000,3000.000,86000.000,-169000.000,-92.319,206.833,134.551,148.307,-40.293,35.136,-33882.866,-20722.305,-33911.789
1512177109,-5.900,3.500,26.900,-44680.000,7810.000,858830.000,3000.000,86000.000,-169000.000,-18.683,105.359,189.634,128.990,-44.950,23.553,-33658.150,-20759.468,-34138.717
1512177109,-20.500,-4.900,15.300,-37660.000,15080.000,889710.000,3000.000,86000.000,-169000.000,86.383,292.439,194.470,114.307,-90.300,61.274,-33958.503,-20834.916,-34173.698
1512177109,-21.600,5.300,13.300,-41750.000,15810.000,927860.000,3000.000,86000.000,-169000.000,17.899,215.531,142.041,144.645,-93.100,93.304,-33507.507,-20571.739,-34552.398
1512177110,-8.800,-1.100,12.900,-46940.000,26730.000,935420.000,3000.000,86000.000,-169000.000,29.561,21.278,72.242,121.789,-44.933,76.807,-33469.971,-20571.693,-34477.730
1512177110,18.100,3.300,1.600,-49320.000,24480.000,937500.000,17000.000,86000.000,-165000.000,0.416,27.722,29.197,91.792,-10.983,68.061,-33320.801,-20721.458,-34779.060
1512177110,-0.100,11.500,-1.300,-29910.000,-3910.000,904910.000,17000.000,86000.000,-165000.000,-37.507,124.792,71.630,98.283,-6.033,66.873,-33321.167,-20796.455,-34854.103
1512177110,4.400,-1.300,3.600,-44740.000,-22830.000,874080.000,17000.000,86000.000,-165000.000,-70.913,157.800,93.643,120.176,11.675,62.539,-33245.117,-20571.342,-34779.625
1512177110,7.500,-14.900,-3.200,-4940.000,23740.000,883300.000,17000.000,86000.000,-165000.000,-10.741,147.144,129.660,151.320,-2.113,74.581,-33095.490,-20646.126,-34855.949
1512177110,-10.400,-17.300,2.900,4390.000,-5860.000,919430.000,17000.000,86000.000,-165000.000,94.675,90.555,199.219,185.784,-14.127,91.900,-33169.403,-20421.242,-34705.208
1512177110,-9.300,-10.800,4.300,18190.000,9830.000,937560.000,24000.000,100000.000,-152000.000,159.507,5.052,271.285,196.981,-5.943,113.018,-33170.303,-20646.233,-34480.309
1512177110,17.300,-7.300,3.200,52370.000,37110.000,945430.000,24000.000,100000.000,-152000.000,196.674,-83.685,340.811,191.441,28.409,119.505,-33543.854,-20346.794,-34251.991
1512177110,20.200,-4.400,-1.700,30330.000,41990.000,885310.000,24000.000,100000.000,-152000.000,333.176,-115.639,401.311,198.343,77.484,126.200,-33992.569,-20122.459,-33723.061
1512177110,-11.900,-12.700,-8.500,-36740.000,14770.000,927980.000,24000.000,100000.000,-152000.000,443.595,-74.132,558.695,238.823,114.910,136.399,-34440.659,-19748.146,-33269.066
1512177110,7.600,-0.100,-5.200,-7510.000,57070.000,905580.000,26000.000,95000.000,-164000.000,396.458,57.710,838.849,266.113,152.191,120.068,-34889.053,-19448.814,-32740.105
1512177110,10.300,-1.100,-6.400,22890.000,17330.000,916560.000,26000.000,95000.000,-164000.000,285.906,234.244,1151.282,279.882,183.239,74.179,-35335.678,-18774.483,-32060.966
1512177110,-0.900,-8.900,-7.700,61460.000,6960.000,943480.000,26000.000,95000.000,-164000.000,232.371,369.145,1495.314,281.069,200.730,60.054,-35855.347,-17650.261,-31530.983
1512177110,-4.100,-3.500,0.000,14830.000,102050.000,938230.000,26000.000,95000.000,-164000.000,312.387,525.645,1822.164,274.480,188.294,46.489,-36225.296,-16600.822,-30852.318
1512177110,-15.000,-3.300,-5.700,-28690.000,35340.000,961000.000,26000.000,95000.000,-164000.000,508.395,607.406,2222.929,261.374,161.061,46.640,-36666.061,-14576.485,-30622.551
1512177110,34.500,-2.100,-9.600,-46750.000,26610.000,915650.000,24000.000,96000.000,-159000.000,697.018,514.120,2545.152,219.025,135.461,56.520,-37332.626,-12777.473,-29940.987
1512177110,22.400,6.900,-16.500,-33570.000,-12020.000,882930.000,24000.000,96000.000,-159000.000,844.065,341.994,2735.379,174.874,105.502,50.269,-38224.274,-11053.810,-28732.552
1512177110,17.400,14.100,-24.000,-8360.000,-5680.000,909550.000,24000.000,96000.000,-159000.000,875.796,216.916,2808.960,116.060,87.275,46.928,-38438.095,-8654.137,-27979.530
1512177110,22.000,1.300,-20.000,-36190.000,11900.000,876890.000,24000.000,96000.000,-159000.000,850.657,158.189,2779.611,68.011,14.545,56.026,-39253.082,-6555.351,-26846.550
1512177110,18.000,-5.100,-8.000,-25940.000,23320.000,891240.000,24000.000,96000.000,-159000.000,734.000,228.704,2681.153,-6.451,-36.560,101.343,-39316.940,-4155.449,-26169.823
1512177110,15.000,-16.600,-17.300,-12270.000,65060.000,922670.000,1000.000,81000.000,-147000.000,460.261,320.551,2477.087,-55.464,-58.626,126.815,-38855.392,-1679.756,-25347.496
1512177110,24.900,-14.000,-13.700,-31370.000,27100.000,881160.000,1000.000,81000.000,-147000.000,195.931,380.479,2218.679,-74.458,-62.464,129.663,-38546.539,195.702,-24524.178
1512177110,36.100,0.500,-20.000,-430.000,59940.000,870790.000,1000.000,81000.000,-147000.000,43.894,188.423,1990.871,-121.494,-60.989,94.571,-38384.918,2745.949,-24224.281
1512177110,21.400,-15.600,-16.400,-2440.000,62260.000,938660.000,1000.000,81000.000,-147000.000,165.597,34.006,1842.845,-180.784,-78.579,83.215,-37999.939,4846.519,-23176.506
1512177110,6.700,-7.700,-16.400,19960.000,24660.000,885310.000,15000.000,91000.000,-130000.000,219.268,187.253,1634.143,-181.754,-130.709,108.305,-37089.737,7022.881,-22358.162
1512177110,9.700,4.900,-21.400,-21420.000,27890.000,888670.000,15000.000,91000.000,-130000.000,-106.474,537.533,1429.159,-125.034,-146.741,107.262,-36334.030,8224.022,-21763.985
1512177110,7.100,-17.600,-30.500,-20450.000,-14160.000,869870.000,15000.000,91000.000,-130000.000,-408.652,556.212,1200.438,-93.183,-103.614,99.954,-34974.335,10326.065,-21286.980
1512177110,9.300,-31.400,-25.200,-53650.000,14830.000,952150.000,15000.000,91000.000,-130000.000,-78.047,-99.892,1031.309,-134.018,-106.673,121.010,-33651.634,12465.546,-20134.659
1512177110,16.800,-20.400,-25.200,-50600.000,-28320.000,866700.000,15000.000,91000.000,-130000.000,-521.965,-17.546,642.453,-107.437,-138.595,73.282,-32179.306,14492.760,-18721.161
1512177110,17.800,-32.600,-27.300,10990.000,40590.000,901180.000,1000.000,84000.000,-143000.000,-684.268,117.263,406.036,-38.764,-108.537,28.097,-30973.427,15657.066,-17455.826
1512177110,2.800,-32.000,-17.200,22830.000,-3780.000,869140.000,1000.000,84000.000,-143000.000,-270.729,-182.849,429.106,-92.915,-147.441,11.443,-29653.557,17159.050,-16228.798
1512177110,10.100,-29.700,-24.100,-14100.000,3360.000,929080.000,1000.000,84000.000,-143000.000,-189.488,-60.896,130.611,-136.844,-238.719,-16.823,-28637.115,17910.568,-15112.068
1512177110,31.400,-20.900,-31.300,-67200.000,66770.000,944950.000,1000.000,84000.000,-143000.000,-248.427,-59.380,-141.549,-51.210,-138.516,9.806,-28336.517,17986.023,-14589.576
1512177110,13.300,-15.400,-26.900,-9400.000,48220.000,1004270.000,17000.000,89000.000,-138000.000,-48.038,-231.233,-51.295,-0.823,-23.179,46.785,-28260.223,18211.128,-14027.611
1512177110,14.400,-10.100,-23.700,-28200.000,25760.000,901490.000,17000.000,89000.000,-138000.000,-126.646,-103.939,66.873,-34.529,-30.487,59.112,-28146.835,18361.305,-13578.506
1512177110,-19.300,-4.400,-22.500,-35460.000,15690.000,895870.000,17000.000,89000.000,-138000.000,-337.474,64.316,-101.367,-24.357,-114.677,32.950,-27620.445,18624.595,-13170.341
1512177110,0.900,-3.100,-18.900,-23130.000,26000.000,866030.000,17000.000,89000.000,-138000.000,-246.534,12.690,-123.683,12.973,-131.596,0.021,-27508.628,18437.255,-12833.893
1512177110,-5.900,-8.900,-26.000,4700.000,35460.000,921260.000,17000.000,89000.000,-138000.000,13.235,-20.856,24.948,42.468,-101.108,-8.868,-27434.150,18287.369,-12534.592
1512177111,3.200,-8.800,-20.100,39370.000,83860.000,882140.000,7000.000,68000.000,-152000.000,114.364,-19.249,97.842,43.111,-90.479,6.653,-27284.897,18137.596,-12685.936
1512177111,4.300,-3.100,-24.900,-14590.000,73610.000,957210.000,7000.000,68000.000,-152000.000,68.237,26.708,53.629,55.259,-69.419,3.852,-27434.860,18137.367,-12609.673
1512177111,20.100,-7.600,-23.000,11900.000,44800.000,924380.000,7000.000,68000.000,-152000.000,74.531,71.693,-2.625,84.324,-65.233,25.759,-27358.139,18512.489,-12535.118
1512177111,16.200,-4.400,-20.800,21240.000,70920.000,880000.000,7000.000,68000.000,-152000.000,53.118,136.676,70.849,90.937,-84.238,41.678,-27058.578,18437.935,-12762.718
1512177111,-1.100,2.700,-21.300,-24230.000,59630.000,880550.000,7000.000,68000.000,-152000.000,29.253,51.009,155.487,54.659,-76.859,27.329,-26907.532,18663.170,-12688.881
1512177111,-16.900,-4.800,-25.600,21610.000,49800.000,890010.000,1000.000,88000.000,-140000.000,84.834,-14.036,144.343,7.881,-69.486,21.672,-27207.916,18587.715,-12761.375
1512177111,-12.900,-12.800,-24.900,-31430.000,550.000,985900.000,1000.000,88000.000,-140000.000,59.881,11.507,171.787,-35.708,-47.915,23.193,-26908.920,18363.167,-12764.030
1512177111,22.000,-3.700,-22.500,-11230.000,20320.000,877810.000,1000.000,88000.000,-140000.000,-3.859,105.428,162.662,-68.091,-7.379,21.466,-27132.080,18737.831,-12461.937
1512177111,-5.600,-18.500,-22.400,-11960.000,37840.000,880550.000,1000.000,88000.000,-140000.000,-25.700,241.233,71.135,-72.120,23.778,24.651,-26829.803,19263.283,-12614.250
1512177111,-15.800,-32.200,-23.400,27590.000,63600.000,904360.000,-7000.000,100000.000,-128000.000,-33.423,336.376,26.578,-56.617,30.715,23.531,-26304.947,19264.061,-12918.709
1512177111,8.400,-1.600,-22.500,-17270.000,69090.000,887570.000,-7000.000,100000.000,-128000.000,-51.843,308.549,44.342,-22.414,22.115,9.212,-26455.627,19113.838,-12917.503
1512177111,-0.300,1.300,-27.300,-11840.000,23010.000,938540.000,-7000.000,100000.000,-128000.000,-45.432,222.985,103.836,9.391,16.113,-11.671,-26381.714,18888.954,-13068.245
1512177111,-10.100,-16.000,-28.600,2080.000,43030.000,989500.000,-7000.000,100000.000,-128000.000,-52.279,88.333,123.519,12.708,8.388,-48.981,-26602.921,19713.615,-12915.947
1512177111,-11.600,-18.000,-23.400,-16600.000,50480.000,942690.000,-7000.000,100000.000,-128000.000,13.960,28.768,47.517,-1.447,-17.253,-72.011,-26453.903,19488.838,-12842.323
1512177111,-21.700,-15.400,-28.900,4030.000,37410.000,956730.000,1000.000,95000.000,-130000.000,143.613,-20.085,5.518,7.694,-25.031,-65.861,-26004.379,19414.513,-13146.187
1512177111,-19.200,-14.800,-25.600,-34420.000,29850.000,943730.000,1000.000,95000.000,-130000.000,262.668,-148.118,19.588,28.189,-37.271,-30.728,-26154.953,19264.290,-12919.975
1512177111,-15.000,-11.900,-21.800,-64880.000,26370.000,891360.000,1000.000,95000.000,-130000.000,387.380,-300.791,78.434,31.219,-49.734,29.872,-26532.013,18813.728,-12991.997
1512177111,-15.200,-12.700,-29.200,-55050.000,20510.000,893250.000,1000.000,95000.000,-130000.000,458.582,-419.266,86.517,29.101,-26.021,80.595,-26230.591,19114.174,-12844.414
1512177111,-3.100,-20.100,-24.100,-80990.000,78430.000,1004090.000,1000.000,95000.000,-130000.000,462.525,-390.337,41.897,40.620,-15.245,140.705,-26681.641,18888.496,-12915.688
1512177111,-7.200,-16.600,-21.700,-68850.000,-15750.000,913020.000,19000.000,81000.000,-120000.000,315.340,-229.412,119.215,63.485,3.913,180.748,-26757.202,18738.396,-12690.117
1512177111,-1.300,-20.500,-28.800,-70680.000,5310.000,869510.000,19000.000,81000.000,-120000.000,55.847,-95.409,217.197,55.759,5.043,186.529,-26679.611,19338.509,-12915.474
1512177111,-6.100,-7.100,-25.400,-38940.000,40160.000,937870.000,19000.000,81000.000,-120000.000,-169.495,-18.901,245.113,2.324,-3.448,156.618,-26605.774,19038.612,-12541.252
1512177111,12.500,-1.600,-31.200,-65430.000,24290.000,916870.000,19000.000,81000.000,-120000.000,-385.732,122.976,177.446,-45.465,-41.012,74.736,-26379.379,19338.951,-12468.040
1512177111,-0.300,-1.500,-34.200,-61770.000,44560.000,878170.000,26000.000,84000.000,-110000.000,-577.578,245.774,51.431,-67.428,-63.662,0.452,-25919.815,21139.641,-9546.043
1512177111,-28.500,-6.000,-34.900,-7870.000,22460.000,874390.000,26000.000,84000.000,-110000.000,-627.889,275.831,-64.330,-37.730,-43.576,-79.462,-25770.538,20989.876,-9622.383
1512177111,-33.700,-8.800,-24.400,-32040.000,14830.000,914790.000,26000.000,84000.000,-110000.000,-439.633,184.340,-106.694,14.013,8.055,-121.392,-25545.837,20915.215,-9549.324
1512177111,-11.500,-19.000,-30.900,5490.000,10010.000,938540.000,26000.000,84000.000,-110000.000,-92.180,90.867,-106.784,46.703,47.652,-124.035,-25435.639,20465.377,-10112.992
1512177111,-0.800,-13.200,-24.500,-14340.000,10800.000,920530.000,26000.000,84000.000,-110000.000,85.318,41.433,181.853,0.816,11.692,-60.134,-25585.099,20577.644,-10036.667
1512177111,-2.000,1.100,-20.800,-9640.000,7870.000,888120.000,21000.000,82000.000,-128000.000,61.103,-118.784,155.359,-94.676,13.690,-17.261,-25245.682,20990.654,-9926.842
1512177111,14.600,7.900,-21.300,-20810.000,38940.000,917050.000,21000.000,82000.000,-128000.000,37.639,-70.776,-99.600,-54.954,98.256,37.116,-25358.818,20840.492,-9850.960
1512177111,-2.700,-3.900,-31.300,43460.000,70070.000,932800.000,21000.000,82000.000,-128000.000,-60.097,11.827,-84.206,33.295,33.990,79.567,-25509.873,20615.257,-9924.797
1512177111,-19.800,-10.900,-18.200,22770.000,-370.000,905210.000,21000.000,82000.000,-128000.000,-383.853,88.084,-2.812,-11.566,-68.368,-28.297,-25098.007,20465.874,-9853.363
1512177111,-4.300,-18.000,-24.400,-13490.000,62810.000,932500.000,21000.000,82000.000,-128000.000,-260.010,149.964,-140.458,17.099,13.506,-140.344,-24873.451,20316.215,-9405.350
1512177111,-16.900,-24.600,-21.800,-19840.000,44130.000,917110.000,36000.000,74000.000,-133000.000,92.544,65.551,-126.050,140.195,81.258,-77.452,-25361.259,20277.985,-9663.719
1512177111,-35.700,-21.400,-26.500,28560.000,48160.000,921260.000,36000.000,74000.000,-133000.000,166.469,-119.582,101.448,88.432,93.815,-12.380,-25024.956,20015.992,-9704.208
1512177111,-28.400,-16.100,-22.000,7320.000,20870.000,909670.000,36000.000,74000.000,-133000.000,140.156,-75.385,147.593,19.570,53.033,41.551,-25249.962,20015.648,-9702.301
1512177111,8.400,-0.800,-21.000,41810.000,34300.000,882870.000,36000.000,74000.000,-133000.000,-72.451,33.308,116.107,-44.006,-27.712,9.526,-24948.845,20278.603,-9854.729
1512177111,-5.500,-8.900,-22.500,-5190.000,43090.000,939210.000,28000.000,72000.000,-132000.000,-259.070,126.607,60.428,-39.617,38.258,-97.395,-24721.695,20728.943,-9593.933
1512177112,-2.100,-11.500,-30.200,610.000,37900.000,909420.000,28000.000,72000.000,-132000.000,9.647,73.742,-12.089,-16.999,78.564,-138.072,-24572.067,20616.661,-9332.756
1512177112,-3.100,-9.500,-31.600,25090.000,39610.000,939270.000,28000.000,72000.000,-132000.000,111.264,-17.913,-36.518,-10.922,78.194,-104.394,-24798.111,20391.335,-9405.952
1512177112,-17.800,-10.900,-21.700,35280.000,20450.000,906620.000,28000.000,72000.000,-132000.000,161.460,-74.440,-45.585,-0.800,107.519,-50.528,-24721.390,20766.441,-9331.413
1512177112,-14.800,-6.400,-18.900,-24540.000,35640.000,912170.000,28000.000,72000.000,-132000.000,165.584,-143.876,-40.437,28.536,122.630,-1.387,-24647.858,20466.560,-9557.182
1512177112,-6.000,-8.400,-30.000,12270.000,21550.000,914180.000,35000.000,68000.000,-132000.000,185.428,-153.505,-15.662,48.667,83.608,38.940,-24799.545,20091.331,-9556.084
1512177112,-16.500,-21.800,-25.600,-6530.000,15320.000,872620.000,35000.000,68000.000,-132000.000,31.077,-126.072,36.566,28.964,27.811,46.556,-24424.545,20091.896,-9559.273
1512177112,2.100,-14.000,-24.100,3300.000,-21850.000,860110.000,35000.000,68000.000,-132000.000,-153.385,-112.473,39.271,-17.814,15.415,23.934,-24499.878,20016.777,-9558.678
1512177112,1.500,-16.500,-12.800,15690.000,-17580.000,868770.000,35000.000,68000.000,-132000.000,-183.645,-24.724,-60.002,-1.258,80.507,-0.790,-24649.094,20166.557,-9332.329
1512177112,22.100,-7.700,-20.000,-13240.000,41690.000,927060.000,35000.000,68000.000,-132000.000,-110.436,86.550,-99.069,56.671,89.988,-4.460,-24949.387,20091.103,-9254.814
1512177112,1.600,-5.100,-25.800,47610.000,15750.000,938350.000,47000.000,81000.000,-130000.000,-41.782,164.551,-56.225,118.859,73.180,-6.511,-24723.190,20391.441,-9556.587
1512177112,8.500,-10.100,-22.800,18490.000,24660.000,943970.000,47000.000,81000.000,-130000.000,-182.874,160.829,95.229,110.586,8.747,-39.418,-24575.897,19791.664,-9558.144
1512177112,-9.600,-19.200,-15.300,48520.000,35400.000,967350.000,47000.000,81000.000,-130000.000,-258.451,125.354,151.579,43.066,-8.468,-116.443,-24500.183,19941.780,-9483.711
1512177112,-3.600,-16.100,-2.400,21670.000,17940.000,940250.000,47000.000,81000.000,-130000.000,-198.020,138.226,172.756,-1.089,7.710,-171.975,-23747.513,20542.900,-9564.796
1512177112,-24.100,-11.900,-9.300,-1160.000,22340.000,952820.000,21000.000,93000.000,-128000.000,-55.230,133.219,110.840,-0.073,53.888,-194.492,-23446.426,20768.349,-9417.259
1512177112,-1.900,-2.900,-8.900,11110.000,16660.000,900760.000,21000.000,93000.000,-128000.000,117.860,18.304,17.003,18.636,117.819,-160.654,-23672.745,20468.010,-9340.477
1512177112,-18.900,-17.300,-7.600,13980.000,37110.000,910220.000,21000.000,93000.000,-128000.000,275.736,-111.616,-58.979,41.690,154.947,-82.364,-24122.925,20467.339,-9711.647
1512177112,-4.800,-10.400,-10.000,-8360.000,-9700.000,879580.000,21000.000,93000.000,-128000.000,324.931,-149.044,-7.233,54.510,95.769,-1.444,-24348.297,20392.006,-9784.782
1512177112,-20.500,-9.600,-10.500,-6840.000,48340.000,937440.000,21000.000,93000.000,-128000.000,178.408,-245.452,16.961,38.750,92.607,25.286,-24274.460,20167.107,-10085.503
1512177112,-4.800,-13.000,-5.600,4700.000,10070.000,949650.000,42000.000,82000.000,-135000.000,94.519,-159.151,66.152,22.184,55.182,54.679,-24198.380,20392.235,-9936.043
1512177112,27.700,-6.500,-13.400,-41080.000,39310.000,943730.000,42000.000,82000.000,-135000.000,-31.196,-20.606,133.042,-10.150,29.629,30.694,-23972.214,20617.561,-9637.856
1512177112,3.300,1.200,-2.500,-17090.000,37050.000,902160.000,42000.000,82000.000,-135000.000,-198.560,127.602,139.660,-46.230,21.477,-13.883,-23822.174,20617.790,-9564.125
1512177112,-10.800,0.900,-1.700,-2200.000,25510.000,918880.000,42000.000,82000.000,-135000.000,-284.778,160.729,69.235,-58.357,48.351,-85.972,-23895.111,21067.680,-9488.289
1512177112,6.800,11.300,-6.400,-26180.000,30030.000,902400.000,29000.000,74000.000,-137000.000,-233.117,151.379,-25.996,-19.590,80.961,-114.512,-23671.463,20768.013,-9490.334
1512177112,-28.500,-9.300,-5.700,1890.000,-4150.000,895020.000,29000.000,74000.000,-137000.000,-58.545,100.469,-78.016,25.466,101.965,-112.398,-23671.127,20843.025,-9490.303
1512177112,-12.100,-10.400,0.000,26370.000,7750.000,875490.000,29000.000,74000.000,-137000.000,-11.603,22.449,-18.972,39.321,90.804,-122.643,-23521.393,20768.242,-9341.606
1512177112,-3.100,-9.900,3.100,-60.000,48340.000,927860.000,29000.000,74000.000,-137000.000,47.151,-40.587,36.032,0.688,35.977,-129.392,-23445.755,20918.358,-9417.183
1512177112,-0.100,-22.400,1.700,-26310.000,11600.000,945980.000,29000.000,74000.000,-137000.000,61.106,-37.887,29.846,-51.660,37.166,-106.031,-23596.161,20843.132,-9565.941
1512177112,11.500,-13.600,6.000,37660.000,38700.000,889040.000,28000.000,82000.000,-125000.000,132.003,-50.874,-100.298,30.130,107.832,-17.017,-23821.068,20880.287,-9714.012
1512177112,-0.300,-8.800,7.600,-5070.000,19650.000,897030.000,28000.000,82000.000,-125000.000,93.317,-98.972,-116.484,92.983,55.376,51.671,-23746.910,20730.407,-10052.216
1512177112,-5.200,-1.900,7.300,14830.000,38150.000,871340.000,28000.000,82000.000,-125000.000,-171.694,41.217,90.177,54.023,-20.020,-36.562,-23937.691,20017.617,-10200.951
1512177112,-16.000,-10.800,7.900,11720.000,35030.000,921750.000,28000.000,82000.000,-125000.000,5.103,83.849,5.470,58.394,43.839,-105.682,-23561.211,20318.184,-9941.505
1512177112,-18.800,-12.400,8.800,23250.000,55360.000,944030.000,28000.000,82000.000,-125000.000,182.772,-42.086,85.962,100.554,41.738,-48.645,-23974.106,20280.068,-10388.008
1512177112,-6.000,-1.300,11.300,48520.000,42050.000,925540.000,33000.000,91000.000,-137000.000,75.045,-81.308,119.443,19.921,14.440,-51.486,-24048.927,20317.451,-10349.846
1512177112,-10.500,-2.300,12.800,45650.000,16170.000,896790.000,33000.000,91000.000,-137000.000,47.723,-1.065,35.110,3.645,17.328,-61.113,-23597.794,20543.129,-10128.570
1512177112,-15.400,3.900,13.600,69340.000,18860.000,858030.000,33000.000,91000.000,-137000.000,67.689,-45.268,-14.328,11.373,52.142,-43.351,-23561.096,20393.189,-10391.457
1512177112,-17.200,-15.300,21.700,64150.000,13610.000,903380.000,33000.000,91000.000,-137000.000,85.580,-36.789,32.334,13.629,67.480,5.770,-23936.478,20317.619,-10463.310
1512177112,-4.100,-24.600,28.200,49870.000,26250.000,938840.000,15000.000,91000.000,-147000.000,5.667,5.155,96.352,18.627,37.881,12.646,-24086.540,20279.900,-10237.053
1512177112,7.200,-12.400,29.000,27100.000,10800.000,932740.000,15000.000,91000.000,-147000.000,-85.674,49.384,78.126,-14.115,-2.547,-51.325,-23937.645,20055.122,-10425.926
1512177113,15.700,-10.900,34.100,28870.000,-5860.000,936040.000,15000.000,91000.000,-147000.000,-84.387,125.908,3.786,0.162,21.233,-91.047,-23898.758,20392.677,-10688.591
1512177113,32.100,-1.300,28.000,-23500.000,30270.000,943360.000,15000.000,91000.000,-147000.000,-5.676,98.363,-51.671,34.048,58.445,-97.081,-23898.895,20317.680,-10313.622
1512177113,10.000,-5.300,33.600,5740.000,6470.000,956600.000,15000.000,91000.000,-147000.000,114.752,61.160,-51.121,59.847,37.763,-75.110,-23523.346,20468.239,-10541.756
1512177113,-6.700,-5.600,34.600,-11350.000,9220.000,963810.000,28000.000,79000.000,-108000.000,125.113,-5.207,28.754,44.634,21.943,-58.516,-23598.373,20468.132,-10616.112
1512177113,-18.500,-0.900,33.200,-31920.000,31860.000,921140.000,28000.000,79000.000,-108000.000,57.814,-11.864,101.313,10.062,19.378,-47.110,-24122.849,20617.348,-10911.583
1512177113,-17.800,-18.800,37.300,25700.000,1340.000,960880.000,28000.000,79000.000,-108000.000,24.772,28.675,103.108,-4.936,38.600,-44.545,-24198.898,20392.235,-10986.046
1512177113,11.300,-10.400,38.900,35100.000,-24290.000,902590.000,28000.000,79000.000,-108000.000,27.711,57.613,55.278,4.897,38.319,-28.243,-23597.855,20618.126,-10916.039
1512177113,-23.700,-18.100,51.900,65430.000,4270.000,880920.000,28000.000,79000.000,-108000.000,-36.113,43.777,-18.186,29.046,42.878,-32.953,-23597.885,20618.126,-10991.035
1512177113,-14.100,-18.500,59.900,53960.000,12210.000,938780.000,26000.000,84000.000,-147000.000,-31.599,77.991,-31.861,69.436,16.262,-32.427,-23899.200,20317.680,-10913.628
1512177113,13.300,-19.600,53.700,22710.000,6650.000,928220.000,26000.000,84000.000,-147000.000,-76.093,25.492,13.152,91.199,9.401,-46.951,-23899.658,20242.683,-11138.664
1512177113,3.100,-14.900,60.700,21240.000,-9950.000,887570.000,26000.000,84000.000,-147000.000,-43.947,38.247,68.029,97.561,13.314,-81.823,-24049.988,20167.458,-11137.428
1512177113,-15.400,-18.400,63.800,114990.000,-29660.000,882750.000,26000.000,84000.000,-147000.000,-11.116,-18.334,78.971,79.852,26.251,-102.178,-23750.443,20092.903,-11365.013
1512177113,-1.600,-1.200,69.400,103390.000,-32900.000,935000.000,12000.000,88000.000,-137000.000,98.321,-3.257,101.930,63.084,41.256,-87.450,-23824.280,20317.787,-11064.262
1512177113,-15.000,-6.100,65.400,42720.000,-63540.000,980100.000,12000.000,88000.000,-137000.000,195.227,-37.302,106.413,54.147,45.888,-47.811,-23600.220,20093.132,-10916.283
1512177113,7.300,2.000,55.500,102780.000,-45590.000,881160.000,12000.000,88000.000,-137000.000,183.405,-72.580,110.383,37.529,64.822,-6.283,-23899.689,20242.683,-11213.661
1512177113,-26.800,-13.800,81.100,105590.000,-60120.000,916990.000,12000.000,88000.000,-137000.000,177.412,-62.924,86.878,25.576,68.474,27.504,-24349.915,20167.000,-10984.871
1512177113,-8.000,-41.000,85.600,152470.000,-59140.000,873170.000,12000.000,88000.000,-137000.000,97.152,-19.169,42.156,31.574,54.091,55.047,-24052.536,19642.448,-11512.672
1512177113,-26.800,-31.300,99.200,138550.000,-45290.000,844420.000,19000.000,66000.000,-154000.000,-12.829,26.573,55.649,33.357,33.861,57.349,-23899.200,20317.680,-10913.628
1512177113,-5.900,-22.600,103.200,138550.000,-53890.000,924380.000,19000.000,66000.000,-154000.000,-111.157,85.137,73.616,27.802,30.692,47.789,-23899.460,20242.683,-10763.664
1512177113,-1.200,-19.000,105.100,173950.000,-56580.000,909420.000,19000.000,66000.000,-154000.000,-153.771,112.845,73.095,9.647,38.078,-16.223,-23672.745,20618.019,-10690.392
1512177113,-6.000,-15.300,109.200,125920.000,-40470.000,917180.000,19000.000,66000.000,-154000.000,-101.141,146.081,50.518,12.309,43.729,-50.260,-23749.130,20317.894,-10764.900
1512177113,-3.700,-3.700,114.900,117430.000,-41320.000,907470.000,22000.000,66000.000,-147000.000,-45.299,162.114,91.896,7.557,20.938,-66.681,-23748.718,20392.906,-10614.861
1512177113,-14.500,-16.500,110.700,163450.000,-15990.000,897030.000,22000.000,66000.000,-147000.000,-88.614,107.490,129.454,-8.437,43.655,-86.960,-23449.387,20243.355,-10617.485
1512177113,-29.300,-26.400,110.800,111150.000,-18860.000,913510.000,22000.000,66000.000,-147000.000,-41.334,76.633,105.513,-4.524,61.916,-82.524,-23674.423,20243.019,-10690.575
1512177113,-2.800,-9.300,133.300,46750.000,-57190.000,930600.000,22000.000,66000.000,-147000.000,57.203,33.178,11.379,33.263,49.621,-54.041,-23599.075,20355.621,-10991.157
1512177113,10.400,0.000,136.400,52250.000,-42420.000,916870.000,22000.000,66000.000,-147000.000,-60.759,-6.418,-45.904,75.545,-7.068,-41.549,-23675.003,20130.508,-10840.629
1512177113,-23.300,-24.000,139.400,144840.000,-21790.000,845280.000,14000.000,65000.000,-132000.000,-34.322,32.049,-30.997,101.764,19.602,-90.093,-23562.095,20205.689,-10691.544
1512177113,-26.200,-19.800,147.500,135440.000,-70430.000,941530.000,14000.000,65000.000,-132000.000,85.757,26.655,89.058,114.549,26.945,-61.970,-23637.794,20055.573,-10728.478
1512177113,15.200,-1.900,151.100,169370.000,-43150.000,894040.000,14000.000,65000.000,-132000.000,78.678,38.059,260.632,25.052,14.378,-49.579,-23334.595,20731.026,-10430.725
1512177113,0.800,-4.100,148.200,186830.000,-66650.000,865840.000,14000.000,65000.000,-132000.000,-16.593,106.883,222.710,-35.722,30.995,-77.650,-23033.455,20956.481,-10170.670
1512177113,-24.100,6.100,171.200,177550.000,-79590.000,905090.000,14000.000,65000.000,-132000.000,6.572,25.559,42.599,-13.576,67.240,-82.471,-22770.188,21144.371,-10322.807
1512177113,1.700,-15.800,161.800,203250.000,3230.000,890810.000,-1000.000,70000.000,-143000.000,79.310,-52.144,-40.836,45.343,81.040,-37.792,-22920.113,21144.149,-10171.532
1512177113,-3.300,-18.200,163.400,131650.000,-111270.000,972230.000,-1000.000,70000.000,-143000.000,39.290,-18.093,-3.984,57.378,22.488,-17.876,-23070.053,21143.921,-10057.762
1512177113,31.200,6.500,176.000,147520.000,-56580.000,880070.000,-1000.000,70000.000,-143000.000,-46.486,84.255,30.843,48.653,42.123,-64.239,-22882.011,21294.204,-10321.785
1512177113,-24.400,-13.700,169.200,108220.000,-75440.000,997860.000,-1000.000,70000.000,-143000.000,114.169,42.399,-16.547,76.570,98.230,-40.692,-22693.596,21481.987,-10173.287
1512177113,18.200,4.000,185.200,100280.000,-44310.000,962160.000,19000.000,77000.000,-133000.000,144.054,-12.751,75.374,76.710,67.381,30.744,-22430.153,21744.881,-10662.903
1512177113,-7.600,-8.900,186.600,106320.000,-24230.000,916080.000,19000.000,77000.000,-133000.000,-96.847,75.471,110.035,21.429,26.315,-19.970,-22054.519,21857.940,-10403.534
1512177114,-29.300,-17.300,187.200,97780.000,-91980.000,897160.000,19000.000,77000.000,-133000.000,-75.089,163.268,23.239,73.117,34.137,-84.545,-22315.613,22195.045,-10626.152
1512177114,3.900,0.900,191.500,94120.000,-28750.000,950320.000,19000.000,77000.000,-133000.000,40.724,99.440,-21.146,130.480,19.025,-83.471,-22239.517,22420.174,-10476.677
1512177114,-10.800,10.000,196.700,121700.000,-28260.000,945430.000,19000.000,77000.000,-133000.000,-10.285,26.497,95.129,138.282,6.702,-103.179,-22088.623,22645.393,-10702.843
1512177114,2.000,42.100,197.100,134950.000,-57920.000,1021550.000,14000.000,75000.000,-148000.000,-51.668,0.695,146.676,95.143,-30.840,-142.095,-21636.139,23171.074,-10481.438
1512177114,-16.800,56.300,204.400,144780.000,-24050.000,874940.000,14000.000,75000.000,-148000.000,3.500,40.391,99.638,49.024,-16.016,-180.779,-22088.165,22720.390,-10477.821
1512177114,-85.900,4.400,189.000,162480.000,-65550.000,978940.000,14000.000,75000.000,-148000.000,97.906,72.654,65.941,40.092,15.131,-171.609,-21711.075,23170.952,-10330.788
1512177114,-38.100,16.900,196.400,156860.000,-35160.000,958130.000,14000.000,75000.000,-148000.000,220.508,24.903,-1.744,49.530,54.902,-121.398,-21934.799,23470.619,-10478.752
1512177114,-29.000,26.600,200.100,133670.000,-69090.000,924800.000,14000.000,75000.000,-148000.000,291.763,-9.190,6.631,64.890,51.174,-55.658,-22160.172,23395.287,-10551.872
1512177114,49.800,43.300,213.200,137940.000,-82400.000,923520.000,17000.000,93000.000,-138000.000,218.213,-44.674,69.407,62.759,48.897,-14.466,-22159.607,23545.280,-10776.802
1512177114,25.700,24.000,209.100,175290.000,-45040.000,890930.000,17000.000,93000.000,-138000.000,114.561,-19.356,150.079,42.013,44.715,17.446,-22085.587,23320.396,-10702.538
1512177114,-4.400,22.100,220.600,133180.000,-72330.000,894900.000,17000.000,93000.000,-138000.000,56.362,42.427,191.026,5.786,48.323,10.573,-22458.298,23844.841,-10849.113
1512177114,27.800,22.200,224.400,89050.000,-64030.000,903380.000,17000.000,93000.000,-138000.000,11.921,95.804,173.511,-8.688,34.673,7.748,-22458.603,23769.844,-10774.147
1512177114,15.300,12.700,225.800,117070.000,-55600.000,850770.000,10000.000,96000.000,-142000.000,-50.290,135.315,134.372,7.342,29.602,-18.544,-22532.654,23994.728,-10923.409
1512177114,1.300,-13.200,223.300,88870.000,-48650.000,932680.000,10000.000,96000.000,-142000.000,-123.158,95.890,25.505,38.075,27.117,-55.700,-22007.767,23995.522,-11152.870
1512177114,10.500,-38.700,232.100,78120.000,-54080.000,863950.000,10000.000,96000.000,-142000.000,-88.743,85.555,-122.214,72.256,25.021,-93.309,-22307.465,24070.061,-11225.288
1512177114,38.700,-5.600,234.200,61890.000,-52120.000,908260.000,10000.000,96000.000,-142000.000,-28.419,133.782,-158.487,122.659,33.506,-112.671,-22458.557,23844.841,-11374.107
1512177114,11.600,-6.300,230.600,135860.000,-78250.000,924680.000,10000.000,96000.000,-142000.000,6.268,142.196,-63.074,155.358,41.851,-117.715,-22609.009,23769.615,-11597.862
1512177114,6.100,-3.300,241.100,183040.000,-94480.000,880000.000,-8000.000,95000.000,-126000.000,112.466,89.720,88.598,145.479,26.751,-111.432,-22532.883,23994.728,-11373.405
1512177114,-14.600,-34.100,257.000,160580.000,-87590.000,801640.000,-8000.000,95000.000,-126000.000,192.889,18.078,185.457,101.183,36.808,-85.868,-22534.042,23769.722,-11673.515
1512177114,-22.900,-28.200,249.800,134890.000,-40100.000,911320.000,-8000.000,95000.000,-126000.000,180.298,22.224,237.523,46.235,30.872,-55.186,-22158.447,23920.296,-11826.622
1512177114,-70.400,-50.700,228.500,181090.000,-38640.000,928650.000,-8000.000,95000.000,-126000.000,154.340,59.661,198.906,7.534,23.517,-44.904,-22383.179,23994.957,-11974.663
1512177114,15.300,0.000,247.500,143490.000,-38270.000,1016110.000,-8000.000,95000.000,-126000.000,103.685,67.242,102.249,-6.142,15.008,-38.375,-22533.417,23994.728,-12423.393
1512177114,68.200,48.300,257.100,112920.000,-29300.000,1019350.000,-17000.000,86000.000,-159000.000,22.170,128.198,6.402,41.002,16.608,-42.236,-22759.384,23769.386,-12346.581
1512177114,0.900,5.700,255.000,124270.000,-19170.000,975100.000,-17000.000,86000.000,-159000.000,-21.841,133.560,-40.059,87.220,26.114,-54.407,-22535.431,23544.716,-12423.607
1512177114,-15.200,13.200,254.700,145630.000,-61100.000,943540.000,-17000.000,86000.000,-159000.000,43.996,147.644,-88.094,121.486,53.291,-63.577,-22684.494,23769.493,-12572.227
1512177114,-22.600,-3.100,258.300,114500.000,-11960.000,958500.000,-17000.000,86000.000,-159000.000,67.253,144.322,-12.080,142.702,38.129,-67.855,-22759.979,23694.389,-12871.620
1512177114,-38.900,-19.800,254.300,115720.000,-57190.000,941220.000,-17000.000,93000.000,-145000.000,72.870,105.598,130.721,112.875,25.309,-102.777,-22646.813,23844.558,-12872.513
1512177114,22.600,12.900,261.900,85390.000,-22280.000,934200.000,-17000.000,93000.000,-145000.000,211.169,87.147,115.071,98.270,26.307,-79.781,-22496.399,23957.283,-13061.226
1512177114,-39.100,-17.700,253.500,135440.000,-93630.000,900700.000,-17000.000,93000.000,-145000.000,150.202,104.248,63.609,121.445,7.641,-63.692,-22460.090,23732.338,-13436.654
1512177114,4.900,14.800,246.100,179260.000,-110050.000,865720.000,-17000.000,93000.000,-145000.000,169.209,123.540,42.628,179.076,44.244,-67.017,-22535.675,23619.720,-13586.067
1512177114,14.100,26.500,252.900,156980.000,-11540.000,925960.000,-17000.000,93000.000,-145000.000,102.319,143.913,220.826,119.501,-45.224,-95.874,-22197.784,23732.727,-13813.881
1512177114,-14.200,22.500,242.100,198490.000,-75070.000,931520.000,-35000.000,93000.000,-142000.000,67.077,261.218,295.350,8.931,-19.187,-173.855,-21671.898,23921.013,-13743.255
1512177114,35.400,38.200,255.400,86360.000,-19710.000,888000.000,-35000.000,93000.000,-142000.000,270.707,191.294,162.136,43.631,58.997,-84.318,-21520.004,24371.232,-14006.820
1512177114,9.600,34.800,248.200,132260.000,-30820.000,970760.000,-35000.000,93000.000,-142000.000,137.303,44.334,98.925,73.624,67.874,-3.831,-21707.344,24445.954,-14342.698
1512177114,15.000,30.800,253.700,156430.000,-44980.000,904110.000,-35000.000,93000.000,-142000.000,40.060,37.218,112.951,44.867,57.464,-36.008,-21407.058,24521.400,-14457.702
1512177114,32.600,52.500,260.100,141240.000,-47610.000,859620.000,-35000.000,82000.000,-145000.000,54.965,181.150,-8.398,65.618,19.442,-83.454,-21257.431,24446.617,-14534.028
1512177114,-14.600,9.900,258.500,109620.000,-14400.000,871700.000,-35000.000,82000.000,-145000.000,169.338,330.174,77.999,165.538,-1.444,-117.779,-20922.287,23997.139,-15212.097
1512177114,-10.300,16.000,261.000,88620.000,-23930.000,960510.000,-35000.000,82000.000,-145000.000,345.793,320.044,205.249,270.617,17.874,-125.858,-20849.266,23622.253,-15775.398
1512177115,-2.800,43.400,271.500,99430.000,-50230.000,970640.000,-35000.000,82000.000,-145000.000,452.532,228.705,289.095,320.758,43.622,-81.426,-20511.032,23847.755,-16340.660
1512177115,6.100,52.700,273.900,89720.000,-15990.000,967290.000,-35000.000,82000.000,-145000.000,423.076,203.885,393.054,261.300,18.912,-76.645,-20210.571,23998.207,-16793.144
1512177115,1.100,67.600,268.600,196720.000,-76420.000,903690.000,-38000.000,93000.000,-145000.000,332.534,317.666,589.364,151.503,-30.725,-89.975,-19834.229,24298.775,-16796.196
1512177115,-14.500,80.200,273.000,185790.000,-75810.000,908080.000,-38000.000,93000.000,-145000.000,257.727,404.980,668.535,50.621,-52.183,-123.092,-19383.820,24374.428,-16649.986
1512177115,-33.400,19.600,253.000,149900.000,-56030.000,836490.000,-38000.000,93000.000,-145000.000,305.557,400.894,612.714,-20.292,-35.699,-155.423,-19084.000,24374.886,-17027.534
1512177115,-61.100,8.400,252.200,89780.000,-91980.000,841430.000,-38000.000,93000.000,-145000.000,429.596,368.147,523.783,-45.391,11.777,-149.943,-18708.359,24525.444,-17105.644
1512177115,-47.000,20.600,251.100,139890.000,-34120.000,856690.000,-38000.000,93000.000,-145000.000,481.835,317.208,391.102,-13.496,50.649,-116.718,-18107.651,24676.353,-17035.683
1512177115,-21.200,-2.400,265.400,108580.000,-65250.000,898010.000,-54000.000,88000.000,-154000.000,437.912,263.964,271.947,17.539,43.086,-103.386,-17881.226,25051.689,-17562.416
1512177115,43.100,20.900,277.000,111270.000,-30700.000,986020.000,-54000.000,88000.000,-154000.000,377.657,187.158,172.730,44.240,50.787,-95.479,-17583.435,24527.138,-17265.205
1512177115,28.400,15.300,277.500,118100.000,-58040.000,973210.000,-54000.000,88000.000,-154000.000,323.177,192.532,115.459,83.931,42.214,-85.293,-17509.109,24452.248,-17940.880
1512177115,14.500,33.400,278.700,136660.000,-27710.000,903810.000,-54000.000,88000.000,-154000.000,291.959,219.278,70.325,109.192,24.230,-89.651,-17584.259,24452.141,-18240.242
1512177115,-11.600,31.200,265.400,151550.000,-22770.000,887570.000,-63000.000,75000.000,-135000.000,263.443,239.567,56.128,129.960,18.467,-96.842,-17885.468,24226.692,-18612.785
1512177115,-21.600,42.900,264.900,135680.000,-55050.000,948850.000,-63000.000,75000.000,-135000.000,274.966,278.004,69.217,127.566,-1.049,-94.615,-17210.541,24227.715,-18768.532
1512177115,-2.900,36.900,272.700,174620.000,-71530.000,868590.000,-63000.000,75000.000,-135000.000,307.985,343.205,74.187,118.469,-13.506,-98.242,-16910.568,24228.157,-18846.077
1512177115,-11.500,35.200,270.800,149290.000,-20750.000,946290.000,-63000.000,75000.000,-135000.000,329.098,340.012,87.277,125.128,-26.827,-100.235,-17137.863,23777.824,-19369.362
1512177115,-18.000,-22.900,271.100,140620.000,-52490.000,963500.000,-63000.000,75000.000,-135000.000,328.884,325.029,98.946,134.421,11.024,-83.834,-16839.172,23478.264,-19297.050
1512177115,-3.900,11.900,279.200,119450.000,-36870.000,887570.000,-66000.000,89000.000,-152000.000,399.484,328.242,149.018,149.058,28.577,-67.924,-16990.707,23178.047,-19670.921
1512177115,-10.100,-3.500,280.300,73120.000,-52670.000,1018070.000,-66000.000,89000.000,-152000.000,508.395,337.916,203.934,147.715,46.147,-68.918,-16542.206,22878.716,-19974.892
1512177115,19.800,24.000,287.200,88260.000,-45350.000,1009640.000,-66000.000,89000.000,-152000.000,578.799,396.768,203.022,138.552,40.792,-53.523,-16467.651,22803.825,-20200.554
1512177115,35.400,23.200,288.200,95520.000,-32040.000,974550.000,-66000.000,89000.000,-152000.000,641.506,479.088,219.144,143.539,21.329,-41.989,-16018.967,22579.491,-20804.482
1512177115,17.300,14.100,282.800,97780.000,-19290.000,947510.000,-75000.000,98000.000,-120000.000,678.486,538.919,242.276,160.897,12.684,-39.779,-15795.807,22204.826,-21106.560
1512177115,-26.800,3.100,267.800,86430.000,-72690.000,1000240.000,-75000.000,98000.000,-120000.000,735.418,606.351,219.884,163.664,-6.661,-51.288,-15802.338,20929.817,-22682.152
1512177115,0.500,28.100,264.700,88810.000,-29110.000,941160.000,-75000.000,98000.000,-120000.000,764.099,629.877,226.775,175.346,-14.179,-60.234,-15805.023,20404.823,-23357.384
1512177115,-19.000,1.200,264.900,94790.000,-59510.000,946900.000,-75000.000,98000.000,-120000.000,807.561,593.600,240.072,196.988,-22.932,-58.231,-15207.016,20030.708,-23962.654
1512177115,20.500,20.800,263.000,84350.000,-61220.000,935790.000,-75000.000,98000.000,-120000.000,844.752,522.085,244.630,194.158,-39.269,-42.054,-14912.125,19056.160,-25390.648
1512177115,42.300,65.500,267.900,130550.000,-69340.000,842650.000,-65000.000,91000.000,-140000.000,783.377,432.192,276.472,176.676,-66.103,0.408,-14466.690,18081.825,-25769.936
1512177115,-3.900,9.700,261.400,94240.000,-80570.000,812930.000,-65000.000,91000.000,-140000.000,399.951,475.784,354.222,95.672,-59.111,12.092,-13865.509,18382.721,-26112.388
1512177115,-8.400,8.700,258.100,171570.000,-48280.000,806880.000,-65000.000,91000.000,-140000.000,219.525,544.215,179.143,57.675,-14.395,-47.480,-13490.204,18495.788,-26528.023
1512177115,-8.100,-6.800,268.200,121580.000,-66650.000,837710.000,-65000.000,91000.000,-140000.000,132.711,655.238,148.423,106.249,-81.243,-105.175,-12817.543,18009.300,-26833.976
1512177115,30.200,1.700,273.100,99550.000,-79470.000,906070.000,-65000.000,91000.000,-140000.000,51.779,635.048,303.892,141.532,-113.541,-187.054,-11879.745,18085.709,-26916.908
1512177115,12.900,12.000,280.300,164120.000,-48030.000,906130.000,-89000.000,74000.000,-164000.000,259.410,342.264,239.249,193.572,-34.975,-177.288,-11278.618,18386.604,-27371.872
1512177115,61.900,27.300,287.000,137020.000,-70800.000,973690.000,-89000.000,74000.000,-164000.000,343.055,116.959,263.666,197.429,41.884,-48.244,-11468.727,17823.822,-27520.531
1512177115,52.200,21.200,287.800,130250.000,-56400.000,894900.000,-89000.000,74000.000,-164000.000,249.309,22.170,319.545,157.543,19.610,41.380,-11245.072,17561.661,-27860.069
1512177115,6.800,-0.700,276.300,138610.000,-47490.000,907780.000,-89000.000,74000.000,-164000.000,132.419,59.417,298.257,110.052,46.319,22.460,-10982.537,17562.058,-27787.300
1512177115,-29.700,32.100,267.600,124450.000,-63230.000,953740.000,-91000.000,93000.000,-138000.000,137.377,167.197,358.938,68.992,-28.447,14.335,-10757.461,17562.393,-27639.214
1512177115,-26.800,15.700,255.300,145320.000,-65490.000,943910.000,-91000.000,93000.000,-138000.000,-93.577,247.874,436.894,35.671,-107.466,-94.186,-10268.569,17863.121,-27568.222
1512177115,-33.200,43.300,256.200,163270.000,-61580.000,923770.000,-91000.000,93000.000,-138000.000,78.659,273.626,239.591,75.168,-2.630,-171.862,-9742.294,18126.411,-27385.056
1512177115,-1.300,36.900,258.300,134640.000,-20570.000,970210.000,-91000.000,93000.000,-138000.000,249.841,160.275,164.922,197.428,-2.958,-61.385,-9706.146,17826.462,-27385.521
1512177116,-7.100,49.500,257.700,149840.000,-29050.000,946900.000,-91000.000,93000.000,-138000.000,88.179,113.893,269.560,168.489,-85.066,-72.875,-9894.638,17638.680,-27684.013
1512177116,-25.000,13.700,264.100,166140.000,-44430.000,962100.000,-86000.000,81000.000,-164000.000,102.551,124.525,302.849,128.647,-68.407,-139.934,-9369.980,17564.476,-27688.515
1512177116,1.200,-0.400,266.600,154170.000,-50230.000,901430.000,-86000.000,81000.000,-164000.000,224.069,168.502,305.829,123.793,-7.648,-146.464,-9144.257,17714.806,-27615.349
1512177116,34.200,9.600,270.800,166870.000,-26670.000,900090.000,-86000.000,81000.000,-164000.000,367.126,168.743,292.977,131.985,9.170,-92.454,-9295.197,17489.586,-27464.180
1512177116,16.400,49.400,270.000,207950.000,-40650.000,911440.000,-86000.000,81000.000,-164000.000,387.869,154.695,392.373,144.733,15.099,-32.450,-9145.355,17489.815,-27765.450
1512177116,-10.800,13.200,254.600,106690.000,-58960.000,934390.000,-86000.000,81000.000,-164000.000,357.974,66.926,454.528,123.826,4.882,-7.699,-9221.024,17339.699,-27764.885
1512177116,-12.400,1.300,257.500,87710.000,-38270.000,952640.000,-93000.000,88000.000,-143000.000,312.166,61.523,452.782,82.525,3.920,-14.020,-9370.575,17414.467,-27538.582
1512177116,-4.300,-1.900,258.100,65490.000,-67020.000,974490.000,-93000.000,88000.000,-143000.000,269.855,135.197,436.435,39.921,12.489,-31.048,-8695.389,17490.486,-27844.276
1512177116,-10.900,-14.400,259.500,43950.000,-52610.000,968200.000,-93000.000,88000.000,-143000.000,276.598,212.281,354.715,41.235,17.868,-31.783,-8772.522,17040.367,-28068.855
1512177116,-26.900,-34.000,261.400,60120.000,-44740.000,875370.000,-93000.000,88000.000,-143000.000,304.898,208.251,254.903,70.661,38.762,-17.093,-8773.621,16815.361,-28218.956
1512177116,-64.700,-22.200,264.300,95580.000,-64150.000,836300.000,-103000.000,77000.000,-154000.000,327.773,214.752,225.406,102.164,33.376,1.583,-9075.668,16364.906,-28291.603
1512177116,-62.700,-48.100,262.300,117430.000,-37230.000,882810.000,-103000.000,77000.000,-154000.000,236.249,280.719,282.939,114.991,6.469,1.660,-8999.710,16590.019,-28367.134
1512177116,-90.500,-46.200,253.400,194820.000,-39920.000,907410.000,-103000.000,77000.000,-154000.000,171.456,367.038,337.737,92.035,-68.671,-53.583,-8697.189,17115.486,-28069.450
1512177116,-31.200,-18.400,260.600,170960.000,-49440.000,968510.000,-103000.000,77000.000,-154000.000,147.958,435.357,344.032,81.386,-104.241,-118.253,-7949.249,16666.603,-28151.039
1512177116,-44.600,-39.300,272.300,180360.000,-25700.000,897460.000,-103000.000,77000.000,-154000.000,199.727,460.079,309.691,83.169,-96.167,-157.489,-7724.365,16666.939,-28377.937
1512177116,-39.900,-26.900,261.300,94120.000,-48030.000,878050.000,-115000.000,72000.000,-165000.000,305.907,471.120,205.724,110.565,-57.207,-165.147,-7575.073,16517.159,-28454.292
1512177116,-50.300,-14.500,262.700,85630.000,-35460.000,882930.000,-115000.000,72000.000,-165000.000,393.146,430.775,150.348,161.040,-59.330,-138.571,-7199.890,16592.720,-28757.439
1512177116,-29.600,-9.700,262.300,179380.000,-4460.000,878600.000,-115000.000,72000.000,-165000.000,370.475,275.702,224.102,196.635,-18.892,-109.212,-7202.728,15992.714,-29057.716
1512177116,-36.400,-16.000,254.900,145810.000,-32470.000,945980.000,-115000.000,72000.000,-165000.000,369.015,145.220,306.782,181.385,44.432,-89.568,-6826.721,16218.285,-29060.799
1512177116,1.200,-8.400,256.100,182250.000,-53590.000,902590.000,-115000.000,72000.000,-165000.000,495.273,124.107,277.622,115.326,65.906,-95.924,-7204.117,15692.711,-29132.851
1512177116,-35.200,-39.700,244.100,157650.000,-43700.000,886600.000,-112000.000,61000.000,-169000.000,598.854,194.783,270.841,92.378,30.804,-57.488,-7130.249,15467.827,-29358.589
1512177116,-9.500,-10.100,241.800,146670.000,-35830.000,945010.000,-112000.000,61000.000,-169000.000,466.043,291.700,312.962,98.241,6.553,18.401,-6983.963,14643.044,-29360.237
1512177116,-4.700,-1.600,245.700,157840.000,-29540.000,941890.000,-112000.000,61000.000,-169000.000,391.789,312.994,291.705,50.391,-42.625,-2.264,-6458.359,14793.831,-29514.641
1512177116,-14.600,8.900,250.300,177730.000,-670.000,872250.000,-112000.000,61000.000,-169000.000,393.357,465.788,267.736,-23.085,-22.598,-81.294,-6385.239,14418.953,-29890.450
1512177116,-21.300,8.900,248.700,139950.000,-19470.000,932620.000,-133000.000,68000.000,-162000.000,500.079,630.709,139.799,-27.763,13.873,-159.298,-6161.469,14119.286,-29667.503
1512177116,29.000,24.200,248.600,177190.000,-29420.000,947750.000,-133000.000,68000.000,-162000.000,663.698,578.814,41.780,62.723,26.442,-133.823,-5863.464,13744.728,-30270.210
1512177116,-5.200,-1.600,237.800,135310.000,-16780.000,973210.000,-133000.000,68000.000,-162000.000,669.509,223.352,188.808,175.981,37.529,-46.247,-5718.689,12619.950,-30609.513
1512177116,1.900,-14.600,237.800,130680.000,-20630.000,990110.000,-133000.000,68000.000,-162000.000,466.402,205.291,254.565,204.092,65.260,22.191,-5423.301,11682.891,-31399.994
1512177116,-11.900,-38.100,236.100,85390.000,-1830.000,934140.000,-133000.000,68000.000,-162000.000,229.628,251.059,425.062,186.576,-47.085,61.050,-4976.830,10896.057,-31366.684
1512177116,-1.100,-19.600,235.600,121890.000,12570.000,918030.000,-131000.000,56000.000,-143000.000,96.534,170.108,476.156,135.964,-147.854,8.996,-4450.546,11159.347,-31183.518
1512177116,5.600,-25.000,238.600,114870.000,13120.000,970030.000,-131000.000,56000.000,-143000.000,-9.910,337.567,248.125,129.294,-61.980,-49.465,-3925.110,11235.138,-31000.450
1512177116,33.800,6.400,235.400,130740.000,1950.000,959470.000,-131000.000,56000.000,-143000.000,-24.755,311.853,273.938,172.962,-4.495,-52.672,-3662.635,11235.534,-31040.176
1512177116,-8.500,0.800,228.600,158020.000,5860.000,916260.000,-131000.000,56000.000,-143000.000,-92.615,249.719,313.784,143.195,-47.463,-79.076,-3097.977,11686.371,-30782.257
1512177116,-45.000,-9.700,224.000,164430.000,10130.000,892580.000,-138000.000,56000.000,-164000.000,-75.589,198.003,280.803,116.405,-62.543,-102.656,-2984.123,11949.043,-30445.587
1512177116,-27.700,-5.200,217.300,153500.000,-2140.000,917970.000,-138000.000,56000.000,-164000.000,21.967,118.109,243.559,160.328,-2.246,-78.351,-2683.296,12137.001,-30485.550
1512177116,-6.900,20.400,217.600,118230.000,20320.000,894710.000,-138000.000,56000.000,-164000.000,67.060,-79.892,473.259,161.290,-2.517,-28.084,-2494.751,12362.289,-30412.040
1512177116,-9.100,3.500,217.300,105100.000,-11660.000,883060.000,-138000.000,56000.000,-164000.000,52.436,16.592,556.535,20.373,-0.177,-41.591,-2344.727,12325.012,-30038.338
1512177116,-21.600,-0.700,210.400,100100.000,6590.000,889040.000,-138000.000,56000.000,-164000.000,116.866,272.594,249.735,-1.956,-16.495,-20.381,-2156.891,12362.785,-29702.415
1512177117,-3.300,2.700,214.400,114870.000,10380.000,887700.000,-137000.000,51000.000,-165000.000,37.972,198.433,149.724,73.815,-26.499,-40.929,-1892.944,12700.691,-29854.500
1512177117,-26.200,-5.600,211.900,142700.000,8480.000,932800.000,-137000.000,51000.000,-165000.000,62.940,167.552,121.195,95.097,1.378,-58.196,-1893.555,12550.682,-29704.567
1512177117,17.200,8.100,213.500,135680.000,29600.000,972900.000,-137000.000,51000.000,-165000.000,167.573,171.998,110.997,104.235,-25.496,-48.962,-2120.193,12175.346,-29627.831
1512177117,17.600,16.800,212.700,117190.000,17820.000,916020.000,-137000.000,51000.000,-165000.000,123.123,168.640,156.184,104.235,-51.103,-27.079,-1670.013,12251.015,-29931.618
1512177117,-18.600,8.000,199.700,138120.000,31680.000,919370.000,-137000.000,51000.000,-165000.000,63.303,200.576,165.022,93.690,-44.689,-39.227,-1899.094,11350.670,-30005.119
1512177117,-23.200,7.200,189.400,153930.000,28560.000,920590.000,-144000.000,58000.000,-165000.000,44.134,239.002,165.945,94.048,-44.630,-44.794,-1744.827,12250.908,-29555.977
1512177117,2.300,12.100,189.000,145200.000,-8540.000,943300.000,-144000.000,58000.000,-165000.000,45.057,234.715,174.473,101.496,-20.156,-33.032,-1668.884,12476.021,-29706.505
1512177117,3.700,6.500,191.700,118650.000,20320.000,918880.000,-144000.000,58000.000,-165000.000,48.731,200.470,208.520,104.770,-27.675,-33.407,-1220.642,12101.692,-29860.512
1512177117,-10.000,-12.000,187.200,109190.000,15690.000,880250.000,-144000.000,58000.000,-165000.000,28.135,160.878,227.273,103.643,-33.518,-38.928,-1296.585,11876.579,-29709.969
1512177117,-4.300,12.900,188.600,109070.000,3720.000,914250.000,-140000.000,51000.000,-165000.000,29.417,158.773,214.493,100.924,-32.039,-43.354,-1146.881,11801.811,-29636.284
1512177117,-12.400,8.700,182.400,113460.000,32900.000,969180.000,-140000.000,51000.000,-165000.000,52.914,183.379,212.786,99.102,-33.041,-45.100,-1370.834,12026.466,-29559.273
1512177117,-23.800,2.500,179.600,89290.000,6160.000,951480.000,-140000.000,51000.000,-165000.000,66.388,182.413,171.402,120.822,-36.267,-26.330,-1219.940,12251.701,-29785.439
1512177117,-2.800,6.000,176.600,111150.000,32170.000,935910.000,-140000.000,51000.000,-165000.000,75.180,162.031,218.362,124.317,-22.796,-7.947,-845.154,12177.254,-29563.652
1512177117,-19.300,1.100,176.600,80380.000,46140.000,907410.000,-140000.000,51000.000,-165000.000,60.318,164.022,278.917,103.833,-33.000,-19.630,-995.758,12027.031,-29412.453
1512177117,-18.200,-2.300,170.000,86910.000,39920.000,866150.000,-144000.000,58000.000,-172000.000,65.228,179.062,240.663,76.013,-29.102,-35.192,-770.676,12027.367,-29264.366
1512177117,-19.300,-7.300,165.900,94540.000,19470.000,920470.000,-144000.000,58000.000,-172000.000,75.883,211.123,243.063,50.935,-27.347,-31.096,-845.718,12027.260,-29338.737
1512177117,6.900,20.400,166.800,100950.000,24840.000,891240.000,-144000.000,58000.000,-172000.000,76.386,242.161,214.397,42.570,-17.791,-30.050,-618.958,12402.596,-29190.468
1512177117,-23.600,12.700,163.500,92770.000,24780.000,867190.000,-144000.000,58000.000,-172000.000,73.652,251.825,186.673,34.030,-24.504,-27.408,-95.383,12103.386,-29345.070
1512177117,0.400,0.800,161.000,53830.000,46200.000,874450.000,-144000.000,58000.000,-172000.000,46.281,203.756,162.653,44.268,-15.946,-28.123,-244.598,12253.151,-29118.721
1512177117,-6.800,3.900,155.000,82640.000,40280.000,909970.000,-144000.000,47000.000,-169000.000,65.200,173.972,112.718,58.387,-5.461,-34.500,-245.605,12028.160,-29118.828
1512177117,12.300,16.200,152.600,59200.000,27470.000,880310.000,-144000.000,47000.000,-169000.000,97.661,171.949,84.401,69.296,-8.136,-22.058,-169.556,12253.273,-29044.365
1512177117,-1.300,13.400,148.300,50720.000,9520.000,901430.000,-144000.000,47000.000,-169000.000,69.989,209.293,83.062,74.302,-30.347,-16.184,-95.383,12103.386,-29345.070
1512177117,17.200,11.300,145.300,87890.000,15870.000,891360.000,-144000.000,47000.000,-169000.000,36.430,232.806,50.676,81.001,-52.993,-13.799,129.364,12028.725,-29197.014
1512177117,19.400,15.300,144.300,50480.000,18130.000,977910.000,-140000.000,44000.000,-172000.000,-15.344,274.437,24.485,86.014,-57.406,-23.097,205.002,12178.825,-29272.591
1512177117,7.100,12.000,144.100,94850.000,9460.000,896670.000,-140000.000,44000.000,-172000.000,15.067,276.689,-9.179,106.902,-42.997,-29.935,279.205,12028.938,-29498.299
1512177117,-1.300,7.600,141.800,109190.000,42110.000,941160.000,-140000.000,44000.000,-172000.000,54.301,257.494,1.980,127.974,-23.228,-32.405,279.541,12103.951,-29498.253
1512177117,5.100,14.400,138.000,122250.000,15560.000,894650.000,-140000.000,44000.000,-172000.000,100.621,225.266,133.668,137.707,-33.430,-50.253,90.973,11841.156,-29271.782
1512177117,12.700,12.100,135.400,86730.000,2140.000,957280.000,-140000.000,44000.000,-172000.000,169.859,186.655,264.061,107.743,-31.408,-60.806,765.335,11692.177,-29202.591
1512177117,29.400,3.100,132.500,55420.000,23680.000,907590.000,-154000.000,26000.000,-172000.000,217.541,134.956,246.983,92.990,-0.540,-10.420,1026.657,11430.062,-29204.941
1512177117,-2.500,-6.700,130.400,60420.000,-4760.000,906560.000,-154000.000,26000.000,-172000.000,155.255,161.634,210.993,75.626,-44.303,-8.579,1214.737,11542.846,-29056.488
1512177117,16.200,-4.900,129.400,17640.000,23800.000,923160.000,-154000.000,26000.000,-172000.000,110.313,210.679,223.839,60.194,-47.715,-63.243,1325.463,11130.508,-28907.639
1512177117,0.400,1.600,124.200,69580.000,40280.000,888790.000,-154000.000,26000.000,-172000.000,167.232,141.325,227.085,59.472,-2.890,-40.418,1737.846,11093.628,-28798.653
1512177117,7.500,1.700,120.000,77700.000,29600.000,912720.000,-154000.000,26000.000,-172000.000,136.501,113.528,214.283,25.003,0.358,-7.799,1699.638,10943.573,-28873.398
1512177117,2.300,-6.300,122.200,104430.000,39730.000,890080.000,-145000.000,49000.000,-150000.000,72.105,191.478,180.042,12.420,-30.023,-15.161,1660.355,10531.014,-28723.274
1512177117,10.300,-3.700,116.900,48710.000,22640.000,945070.000,-145000.000,49000.000,-150000.000,69.908,208.280,55.874,63.980,-44.645,-45.758,1884.720,10381.347,-28650.253
1512177117,9.600,-15.600,113.300,27470.000,20200.000,953980.000,-145000.000,49000.000,-150000.000,204.643,208.059,-2.411,138.802,-46.766,-34.078,2184.921,10456.802,-28915.275
1512177117,31.700,3.500,114.600,57680.000,50110.000,944150.000,-145000.000,49000.000,-150000.000,212.515,221.684,134.738,187.157,-39.575,-6.784,1919.761,9893.905,-29175.804
1512177117,13.000,-7.900,108.500,34300.000,34420.000,925420.000,-152000.000,38000.000,-157000.000,181.007,191.410,299.419,122.890,-28.846,-5.306,2218.857,9669.350,-28953.454
1512177118,26.000,11.500,106.800,87770.000,44490.000,865480.000,-152000.000,38000.000,-157000.000,125.392,256.930,346.283,41.574,-30.877,-22.117,2518.524,9557.304,-28618.553
1512177118,-6.800,-4.900,96.800,50840.000,40160.000,904540.000,-152000.000,38000.000,-157000.000,104.361,255.859,327.848,16.561,-15.458,-40.279,2367.142,9257.072,-28692.421
1512177118,1.500,-30.900,99.600,36320.000,70980.000,905150.000,-152000.000,38000.000,-157000.000,152.153,246.561,210.180,30.587,5.594,-32.417,2217.468,9331.856,-28691.109
1512177118,-7.900,-42.100,94.300,27530.000,29970.000,940310.000,-152000.000,38000.000,-157000.000,172.817,223.139,183.745,52.778,7.175,-28.070,2592.056,9257.408,-28844.337
1512177118,6.800,-24.200,92.500,55050.000,49560.000,918330.000,-158000.000,19000.000,-155000.000,148.726,210.209,221.729,64.846,-1.266,-23.858,2815.674,8957.741,-28921.394
1512177118,-11.300,7.600,50.600,67930.000,46200.000,894100.000,-158000.000,19000.000,-155000.000,169.331,178.236,198.461,67.913,-21.120,-27.442,2516.434,9107.292,-28768.761
1512177118,-12.400,0.100,74.800,86790.000,34670.000,915530.000,-158000.000,19000.000,-155000.000,171.453,171.828,198.468,63.733,-36.355,-36.921,2740.784,8957.634,-28695.747
1512177118,-0.900,-0.900,83.600,78740.000,60790.000,933410.000,-158000.000,19000.000,-155000.000,250.506,134.585,186.691,66.343,-37.919,-24.153,2965.271,8882.973,-29072.685
1512177118,-27.000,-22.000,84.300,94240.000,62190.000,901920.000,-158000.000,19000.000,-155000.000,308.233,55.655,173.395,90.931,-29.041,20.016,2815.338,8882.744,-28921.425
1512177118,-38.500,-43.400,79.800,56150.000,8360.000,927000.000,-154000.000,26000.000,-159000.000,292.272,2.235,169.783,117.103,-5.398,76.839,2738.953,8582.634,-28995.918
1512177118,14.000,-23.200,81.800,87280.000,42540.000,931030.000,-154000.000,26000.000,-159000.000,215.913,8.444,210.273,126.541,-2.315,96.830,2589.294,8657.402,-28994.606
1512177118,0.900,-8.400,72.600,103030.000,9770.000,855830.000,-154000.000,26000.000,-159000.000,77.007,78.687,233.024,112.954,-16.416,89.552,2738.647,8507.637,-28920.952
1512177118,3.300,21.300,33.300,64940.000,38450.000,889470.000,-154000.000,26000.000,-159000.000,-69.879,195.849,288.868,59.162,-59.956,42.729,2964.371,8657.967,-28847.801
1512177118,-22.600,38.500,58.500,97470.000,7390.000,868470.000,-152000.000,45000.000,-150000.000,-219.668,279.939,326.438,-2.790,-55.629,-22.263,3422.729,10233.665,-26300.911
1512177118,-23.800,36.400,54.900,62130.000,2010.000,910400.000,-152000.000,45000.000,-150000.000,-203.480,294.940,314.997,-40.454,-61.326,-85.819,3647.354,10158.989,-26377.861
1512177118,-21.300,4.700,54.200,61400.000,14220.000,883540.000,-152000.000,45000.000,-150000.000,-102.125,236.612,177.673,-4.198,-33.814,-101.214,3722.656,10234.108,-26453.453
1512177118,3.100,-3.100,58.500,30520.000,28560.000,874080.000,-152000.000,45000.000,-150000.000,67.221,221.213,-7.553,57.240,-14.099,-75.610,3721.756,10009.102,-26228.569
1512177118,1.900,-36.000,60.900,15560.000,27830.000,940250.000,-152000.000,45000.000,-150000.000,14.200,214.761,-24.332,114.277,-16.549,-61.030,4095.886,9859.673,-26606.819
1512177118,22.000,25.600,51.100,44190.000,40950.000,945920.000,-158000.000,19000.000,-159000.000,0.630,190.079,21.224,130.800,-10.980,-78.781,4169.128,9484.779,-26757.622
1512177118,32.600,29.600,25.300,-81670.000,61830.000,958250.000,-158000.000,19000.000,-159000.000,55.181,187.917,74.242,138.304,-11.971,-81.708,4094.055,9484.673,-26906.990
1512177118,-22.200,-34.100,48.100,112550.000,-20140.000,988100.000,-158000.000,19000.000,-159000.000,95.479,200.645,152.694,139.052,-18.150,-78.598,4319.092,9485.008,-26833.900
1512177118,11.200,-36.800,45.500,70740.000,34300.000,928410.000,-158000.000,19000.000,-159000.000,148.328,165.295,242.884,114.273,-13.393,-64.124,3794.540,9559.212,-26604.393
1512177118,-32.900,-30.100,23.700,44860.000,32040.000,887330.000,-158000.000,19000.000,-159000.000,198.521,130.137,236.028,95.454,2.369,-30.756,4243.790,9409.889,-26758.293
1512177118,-62.200,-49.400,2.500,57980.000,-19960.000,948850.000,-159000.000,28000.000,-137000.000,162.916,144.047,198.250,86.387,18.301,-8.725,4093.460,9334.663,-26757.057
1512177118,-30.600,-51.300,-23.200,102660.000,37660.000,884580.000,-159000.000,28000.000,-137000.000,118.206,189.378,196.160,82.963,9.098,-12.031,4167.404,9109.779,-26832.787
1512177118,-3.500,-38.000,10.500,18550.000,16050.000,940000.000,-159000.000,28000.000,-137000.000,96.529,184.435,250.198,67.101,-18.958,-58.532,4240.623,8697.387,-26683.625
1512177118,22.000,-29.000,11.700,25700.000,46940.000,909060.000,-159000.000,28000.000,-137000.000,130.090,173.268,250.645,43.624,-23.590,-86.767,4841.758,8923.287,-26463.623
1512177118,-8.800,-35.700,25.400,5250.000,27950.000,905700.000,-159000.000,17000.000,-154000.000,133.665,148.475,97.633,63.797,22.829,-65.002,4578.072,8660.386,-26461.517
1512177118,-16.000,-14.800,22.400,33080.000,8970.000,904050.000,-159000.000,17000.000,-154000.000,132.619,168.295,64.636,119.489,14.915,-18.121,4502.075,8435.272,-26423.485
1512177118,-6.400,-4.900,22.800,59690.000,59020.000,857240.000,-159000.000,17000.000,-154000.000,73.726,152.431,208.711,100.306,3.526,-46.618,4726.364,8285.606,-26500.465
1512177118,-1.500,-22.500,13.300,74950.000,25760.000,917180.000,-159000.000,17000.000,-154000.000,124.876,193.034,244.776,57.805,-3.523,-66.097,4875.633,8098.336,-26276.825
1512177118,20.900,-6.800,20.500,65550.000,12150.000,939090.000,-159000.000,17000.000,-154000.000,123.437,154.722,167.863,67.339,21.825,-56.849,4988.319,8136.001,-26240.265
1512177118,23.600,3.500,22.600,43400.000,10740.000,915890.000,-159000.000,31000.000,-160000.000,148.155,138.831,123.394,103.096,14.483,-44.139,5175.689,8098.785,-26166.877
1512177118,22.400,-0.900,18.600,32290.000,41440.000,911130.000,-159000.000,31000.000,-160000.000,128.877,149.879,194.046,93.925,-6.649,-53.802,5099.060,7723.671,-26053.917
1512177118,-0.700,9.500,15.800,25940.000,37840.000,868770.000,-159000.000,31000.000,-160000.000,120.579,165.848,212.635,50.138,3.538,-72.739,5513.100,8061.790,-26019.768
1512177118,-43.800,17.700,13.400,9090.000,18680.000,866580.000,-159000.000,31000.000,-160000.000,127.316,142.404,191.333,50.083,34.092,-62.840,5363.098,8061.569,-26018.494
1512177118,-49.100,23.200,15.700,73360.000,20940.000,865720.000,-156000.000,17000.000,-164000.000,132.448,101.925,136.362,65.439,23.698,-29.806,5474.830,7874.230,-25869.529
1512177119,-80.300,2.900,-3.900,48710.000,28380.000,953550.000,-156000.000,17000.000,-164000.000,82.234,141.954,112.854,72.387,-15.392,-45.532,5810.471,7462.242,-25872.581
1512177119,-27.400,-2.400,-3.600,6160.000,33750.000,926450.000,-156000.000,17000.000,-164000.000,77.161,159.066,97.915,93.177,-11.882,-56.572,5209.839,7311.333,-25792.564
1512177119,61.500,2.100,8.300,-26250.000,57500.000,950010.000,-156000.000,17000.000,-164000.000,112.509,167.557,152.826,100.607,3.567,-73.524,5433.258,6936.668,-25569.649
1512177119,45.800,-10.000,-1.300,-38760.000,15080.000,950560.000,-156000.000,17000.000,-164000.000,173.288,178.335,152.679,91.228,21.163,-69.614,5434.570,7236.671,-25644.508
1512177119,43.700,-5.300,-0.800,8970.000,44310.000,908750.000,-163000.000,10000.000,-157000.000,203.243,177.196,210.675,73.957,10.327,-59.576,5584.641,7236.900,-25495.781
1512177119,25.200,-3.300,8.300,-4270.000,25270.000,950010.000,-163000.000,10000.000,-157000.000,163.591,152.542,221.740,55.793,10.294,-32.522,5506.577,6561.775,-25570.457
1512177119,33.200,-16.200,8.700,41440.000,53830.000,953060.000,-163000.000,10000.000,-157000.000,120.244,184.434,265.997,31.720,21.565,-47.961,5583.374,6936.897,-25345.924
1512177119,8.500,-27.300,4.700,19470.000,35580.000,895260.000,-163000.000,10000.000,-157000.000,112.385,220.820,227.634,2.586,21.685,-61.126,5657.288,6712.013,-25496.666
1512177119,-0.500,-16.100,-9.300,0.000,40650.000,940860.000,-163000.000,10000.000,-157000.000,123.329,237.021,146.829,3.965,22.328,-61.219,5729.813,6187.111,-25722.542
1512177119,6.100,-56.100,-53.900,25020.000,26310.000,876460.000,-165000.000,8000.000,-142000.000,121.618,210.492,55.030,26.241,41.161,-31.044,5656.906,6637.001,-25571.693
1512177119,-8.700,-12.700,-11.300,19840.000,66350.000,936340.000,-165000.000,8000.000,-142000.000,116.836,205.212,21.896,49.297,53.588,-26.346,5880.859,6412.346,-25648.720
1512177119,-8.400,3.700,-6.800,24350.000,53650.000,990480.000,-165000.000,8000.000,-142000.000,173.233,207.546,-36.981,70.628,41.759,-28.097,5656.357,6487.007,-25346.764
1512177119,-1.500,-3.100,3.100,53830.000,51760.000,899480.000,-165000.000,8000.000,-142000.000,231.204,229.044,-60.586,90.476,27.736,-34.571,5729.172,6037.117,-25647.606
1512177119,8.100,-5.500,1.700,38880.000,44130.000,909910.000,-168000.000,26000.000,-176000.000,271.314,260.036,-34.310,113.590,12.959,-40.643,5729.843,6187.111,-25647.545
1512177119,11.500,-10.500,0.800,56150.000,32170.000,896670.000,-168000.000,26000.000,-176000.000,314.171,273.881,17.528,128.568,-23.100,-45.751,6100.830,5362.679,-26251.106
1512177119,23.700,-3.200,2.800,28560.000,47120.000,935730.000,-168000.000,26000.000,-176000.000,272.119,291.790,111.860,128.199,-40.905,-48.023,5877.441,5662.346,-25724.052
1512177119,16.900,14.600,3.100,39980.000,12820.000,897640.000,-168000.000,26000.000,-176000.000,184.717,305.418,176.739,115.755,-29.664,-75.125,6102.448,5662.682,-25725.975
1512177119,4.500,27.800,0.300,74400.000,47910.000,900020.000,-168000.000,26000.000,-176000.000,185.305,239.137,202.100,98.908,13.183,-71.019,6100.647,5287.682,-25951.149
1512177119,6.800,41.700,-0.100,50720.000,42180.000,881840.000,-163000.000,38000.000,-160000.000,183.980,234.836,218.059,68.098,30.864,-71.432,6325.089,5138.008,-25728.127
1512177119,-3.100,30.800,-2.100,37900.000,33080.000,922000.000,-163000.000,38000.000,-160000.000,161.504,257.218,224.206,38.062,10.729,-66.710,6099.564,4987.679,-25426.277
1512177119,5.500,2.300,-0.300,58350.000,40710.000,913820.000,-163000.000,38000.000,-160000.000,101.199,246.506,196.648,6.328,18.317,-82.285,6325.836,5288.017,-25578.056
1512177119,15.200,3.500,5.100,-1100.000,26670.000,913270.000,-163000.000,38000.000,-160000.000,102.983,232.705,151.848,-6.534,13.346,-89.082,6175.873,5287.788,-25501.778
1512177119,32.600,9.100,6.000,21300.000,39980.000,957640.000,-163000.000,38000.000,-160000.000,83.172,188.935,122.625,-12.616,31.413,-81.393,6325.989,5288.017,-25278.053
1512177119,23.000,22.800,10.000,38820.000,50290.000,910220.000,-166000.000,17000.000,-147000.000,89.552,160.232,57.588,5.773,35.437,-57.029,6250.275,5137.901,-25352.486
1512177119,12.800,15.700,4.500,21120.000,36620.000,919920.000,-166000.000,17000.000,-147000.000,49.589,147.420,23.917,26.222,37.130,-44.677,6324.936,5063.011,-25353.157
1512177119,2.700,6.400,3.200,43580.000,51880.000,895570.000,-166000.000,17000.000,-147000.000,29.726,177.341,1.345,34.034,20.007,-53.312,6322.800,4612.999,-25578.377
1512177119,-11.100,-6.300,8.400,24900.000,44560.000,908020.000,-166000.000,17000.000,-147000.000,12.209,213.041,31.065,41.834,3.776,-87.726,6625.069,5063.461,-25093.216
1512177119,17.200,24.200,12.100,27470.000,54140.000,922490.000,-152000.000,21000.000,-147000.000,110.718,158.644,66.950,51.906,47.884,-76.558,6548.943,4800.850,-24980.194
1512177119,8.700,21.700,18.000,53650.000,49070.000,876890.000,-152000.000,21000.000,-147000.000,207.046,175.925,44.419,67.295,71.624,-24.514,6584.472,4388.405,-25205.703
1512177119,-1.900,15.200,17.600,62930.000,33750.000,879940.000,-152000.000,21000.000,-147000.000,259.597,231.583,27.784,84.594,34.184,-33.969,6960.900,4688.965,-25058.746
1512177119,-19.600,-0.100,21.400,80200.000,55360.000,936950.000,-152000.000,21000.000,-147000.000,376.887,373.224,65.689,99.481,33.115,-72.553,6956.452,3713.959,-25171.707
1512177119,-14.100,-11.900,21.800,32900.000,42790.000,949280.000,-152000.000,21000.000,-147000.000,622.127,490.714,262.608,94.309,8.831,-94.005,7066.818,3226.631,-25060.379
1512177119,21.700,8.500,19.700,32470.000,44800.000,992130.000,-158000.000,29000.000,-145000.000,526.031,370.796,330.626,94.626,5.474,-68.318,7550.888,2477.348,-25177.376
1512177119,25.300,10.500,18.600,41810.000,33020.000,904850.000,-158000.000,29000.000,-145000.000,508.307,237.963,235.026,87.337,13.335,-108.982,8035.034,1728.073,-25144.363
1512177119,14.000,15.800,18.400,28990.000,16480.000,908810.000,-158000.000,29000.000,-145000.000,563.534,204.442,213.857,78.455,-0.224,-92.977,7917.191,527.901,-25031.464
1512177119,-1.500,-11.100,26.200,25760.000,59200.000,896730.000,-158000.000,29000.000,-145000.000,552.296,140.141,309.947,73.261,61.643,-26.831,8101.067,-259.324,-25183.418
1512177119,-16.900,-33.200,27.200,-15380.000,56270.000,967100.000,-158000.000,29000.000,-145000.000,418.082,232.938,275.811,101.049,74.056,15.601,7908.943,-1309.609,-24994.812
1512177119,14.600,-25.800,34.000,28020.000,38510.000,940800.000,-151000.000,29000.000,-145000.000,335.319,206.971,380.596,88.428,31.177,26.777,8133.019,-1534.272,-24809.326
1512177120,17.600,-20.400,34.000,41200.000,55480.000,903140.000,-151000.000,29000.000,-145000.000,260.909,90.266,458.532,18.301,-33.918,-14.514,8244.110,-1834.114,-24922.920
1512177120,-18.800,-25.400,32.900,30460.000,38510.000,923460.000,-151000.000,29000.000,-145000.000,155.461,158.730,327.183,-16.705,-55.727,-71.773,8318.024,-2133.995,-24398.705
1512177120,-10.700,-3.200,34.400,61340.000,71230.000,928530.000,-151000.000,29000.000,-145000.000,177.451,232.926,96.426,-18.689,-3.302,-100.953,8388.870,-3033.897,-24624.748
1512177120,-22.900,14.500,30.100,103210.000,36500.000,904480.000,-144000.000,29000.000,-148000.000,189.290,279.016,27.465,60.989,0.885,-80.241,8541.336,-2508.659,-24400.795
1512177120,-25.600,-11.100,31.200,74040.000,41080.000,879390.000,-144000.000,29000.000,-148000.000,185.410,266.109,67.873,115.997,51.094,-58.634,8316.635,-2433.998,-24473.839
1512177120,23.200,-45.400,37.800,130620.000,38700.000,906070.000,-144000.000,29000.000,-148000.000,194.299,213.571,172.291,143.846,46.121,-33.004,8541.336,-2508.659,-24400.795
1512177120,20.000,20.400,38.200,47670.000,44860.000,972290.000,-144000.000,29000.000,-148000.000,167.416,201.627,250.750,143.536,29.220,-25.141,8539.383,-2958.672,-24250.999
1512177120,5.600,13.700,46.900,65060.000,36870.000,947200.000,-144000.000,29000.000,-148000.000,206.452,139.688,272.421,119.966,-7.416,-28.233,8313.034,-3259.010,-24249.214
1512177120,18.600,28.400,52.700,99300.000,50960.000,888790.000,-158000.000,29000.000,-172000.000,175.193,143.871,293.303,92.014,-53.912,-26.061,8464.432,-2958.778,-24175.362
1512177120,-8.400,36.900,51.100,103820.000,47000.000,939150.000,-158000.000,29000.000,-172000.000,113.868,183.484,199.805,90.989,-66.766,-49.672,8312.592,-3409.004,-23799.294
1512177120,-12.100,43.300,53.300,86430.000,60910.000,943660.000,-158000.000,29000.000,-172000.000,50.496,201.615,164.836,106.811,-46.730,-61.247,8687.881,-3333.443,-23877.449
1512177120,-10.400,31.300,53.400,59690.000,56270.000,948850.000,-158000.000,29000.000,-172000.000,24.692,173.782,177.160,117.931,-21.364,-89.675,8538.223,-3258.675,-23876.137
1512177120,0.300,22.000,54.200,33510.000,63660.000,914120.000,-166000.000,17000.000,-164000.000,41.692,115.995,242.233,97.140,2.034,-96.941,8613.297,-3258.553,-23726.784
1512177120,-22.800,1.300,53.300,46570.000,46020.000,918270.000,-166000.000,17000.000,-164000.000,39.744,42.188,292.053,56.451,27.743,-98.953,8764.832,-2958.336,-23352.913
1512177120,-15.300,13.800,56.600,76110.000,31310.000,876400.000,-166000.000,17000.000,-164000.000,39.321,-11.142,250.284,11.293,43.317,-74.667,8763.489,-3258.339,-23353.050
1512177120,-24.100,22.800,54.200,66350.000,36560.000,876890.000,-166000.000,17000.000,-164000.000,-10.246,-34.520,152.476,-11.295,46.827,-51.940,8313.110,-3334.007,-23424.263
1512177120,-12.900,24.400,59.100,106690.000,39490.000,930300.000,-166000.000,17000.000,-164000.000,-27.198,-73.925,79.601,14.294,58.852,-33.626,8313.782,-3183.998,-23424.187
1512177120,-15.300,26.500,68.400,111020.000,31490.000,876950.000,-172000.000,37000.000,-152000.000,-46.698,-105.907,32.301,65.846,64.046,-13.986,8311.127,-3784.004,-23349.464
1512177120,-21.400,33.700,72.200,105290.000,27100.000,882810.000,-172000.000,37000.000,-152000.000,-89.248,-126.383,90.246,126.175,60.426,8.447,8086.914,-3634.346,-23122.475
1512177120,-14.900,28.400,76.700,88500.000,43270.000,924130.000,-172000.000,37000.000,-152000.000,-94.710,-108.510,227.748,155.428,78.025,-0.959,7784.882,-4084.801,-23120.140
1512177120,14.900,27.000,82.000,98820.000,39610.000,878600.000,-172000.000,37000.000,-152000.000,-58.951,-45.744,390.529,144.349,24.954,-6.953,7935.898,-3859.581,-23121.315
1512177120,4.100,36.200,91.700,93930.000,49440.000,895390.000,-172000.000,37000.000,-152000.000,-82.453,54.612,397.999,108.448,-59.979,-11.323,8086.273,-3784.340,-23047.554
1512177120,12.900,25.700,93.600,134460.000,50540.000,855290.000,-186000.000,15000.000,-169000.000,-199.479,125.207,256.892,82.735,-116.946,-41.018,8161.911,-3634.239,-23123.116
1512177120,13.300,24.500,97.500,121830.000,64640.000,888120.000,-186000.000,15000.000,-169000.000,-238.007,157.559,74.153,74.874,-105.706,-90.942,8009.323,-4234.459,-22897.133
1512177120,8.500,-0.400,108.300,119570.000,50230.000,889160.000,-186000.000,15000.000,-169000.000,-208.903,163.110,-9.625,103.147,-28.983,-126.935,8160.446,-4009.239,-22673.302
1512177120,34.100,-7.200,105.500,106380.000,68420.000,928040.000,-186000.000,15000.000,-169000.000,-81.022,180.261,58.382,115.593,26.425,-136.720,8237.518,-3559.120,-22598.732
1512177120,42.600,-17.700,125.600,16240.000,44980.000,966670.000,-188000.000,17000.000,-177000.000,46.015,127.757,239.138,58.922,26.707,-102.169,8237.587,-3559.120,-22448.723
1512177120,65.500,11.700,128.600,59020.000,69030.000,930420.000,-188000.000,17000.000,-177000.000,40.134,60.458,237.221,-25.132,29.407,-80.621,8199.990,-3596.679,-22298.431
1512177120,28.200,16.900,123.200,21970.000,39310.000,1001340.000,-188000.000,17000.000,-177000.000,52.508,100.458,6.205,36.703,31.044,-44.420,8161.255,-3896.736,-22073.250
1512177120,37.800,5.100,112.400,104610.000,83190.000,926150.000,-188000.000,17000.000,-177000.000,0.804,139.300,40.238,117.859,6.272,-14.653,8161.278,-3896.736,-22035.751
1512177120,6.000,10.100,130.900,127440.000,78000.000,860470.000,-188000.000,17000.000,-177000.000,-48.095,154.815,258.658,117.820,-5.860,-44.952,8158.234,-4571.739,-22036.065
1512177120,-31.400,31.300,123.800,121340.000,67570.000,887390.000,-186000.000,26000.000,-148000.000,7.234,210.151,138.656,99.975,-9.502,-74.630,8384.178,-4421.394,-21512.909
1512177120,-49.100,-6.100,137.700,173830.000,74220.000,860110.000,-186000.000,26000.000,-148000.000,2.970,201.661,105.515,94.306,-16.728,-76.652,8647.126,-4346.008,-21290.101
1512177120,-10.400,-14.900,136.900,140560.000,54990.000,951540.000,-186000.000,26000.000,-148000.000,-20.517,126.067,233.371,60.292,65.321,-71.984,8571.243,-4533.623,-21364.556
1512177120,-36.000,14.800,139.700,154540.000,76900.000,858580.000,-186000.000,26000.000,-148000.000,-46.973,96.419,349.085,-19.233,44.946,-4.919,8268.921,-5059.075,-21287.247
1512177120,28.900,36.500,157.800,111940.000,41500.000,912350.000,-186000.000,26000.000,-148000.000,-47.581,10.084,252.297,-25.814,-24.541,-0.932,8454.811,-5396.294,-21476.494
1512177120,37.200,34.000,163.700,103450.000,44680.000,886540.000,-198000.000,10000.000,-174000.000,21.484,212.008,17.335,55.795,-41.047,-17.942,8490.364,-5846.244,-21327.019
1512177120,44.300,7.100,166.600,122440.000,39490.000,851440.000,-198000.000,10000.000,-174000.000,38.548,279.073,150.008,131.026,-47.629,-25.183,8865.059,-5920.677,-21255.234
1512177121,40.100,-1.700,166.400,94540.000,71470.000,942630.000,-198000.000,10000.000,-174000.000,45.846,178.882,317.139,140.709,-0.963,-22.890,8826.080,-6258.232,-21180.092
