unixtime,rx,ry,rz,ax,ay,az,mx,my,mz,apprx,appry,apprz,appax,appay,appaz,appmx,appmy,appmz
1512177664,-13.200,34.200,324.000,134520.000,-43400.000,956730.000,-35000.000,-454000.000,-115000.000,458.076,6.321,821.321,-19.304,-40.195,60.913,14254.486,-100.090,-19798.134
1512177664,-12.400,21.800,319.300,180660.000,-50110.000,1028440.000,-35000.000,-454000.000,-115000.000,277.259,315.030,682.255,-91.022,-47.470,82.364,13878.922,-250.664,-19570.030
1512177664,-7.100,24.900,321.000,112000.000,-123050.000,1022830.000,-19000.000,-456000.000,-130000.000,-206.003,660.824,461.112,-51.681,-20.981,46.431,14628.204,-399.529,-19651.466
1512177664,-28.400,37.000,306.100,141600.000,-120300.000,963990.000,-19000.000,-456000.000,-130000.000,-474.182,768.857,179.361,53.181,42.584,-59.290,14704.071,-249.428,-19277.046
1512177664,-11.700,31.600,300.700,106380.000,-80510.000,949340.000,-19000.000,-456000.000,-130000.000,-358.903,552.609,-34.000,190.302,120.186,-115.403,14854.141,-249.199,-19128.319
1512177664,-16.600,53.000,305.900,97230.000,-111450.000,1026000.000,-19000.000,-456000.000,-130000.000,-179.728,374.399,18.085,323.602,139.771,-94.880,15454.178,-248.299,-19058.418
1512177664,-2.000,60.300,300.900,151180.000,-55660.000,1003970.000,-14000.000,-437000.000,-91000.000,-91.510,269.311,286.574,351.037,140.246,-104.867,15527.161,-698.189,-19059.258
1512177664,16.100,54.300,293.200,163270.000,-86120.000,952880.000,-14000.000,-437000.000,-91000.000,82.709,221.062,516.003,264.853,81.569,-131.589,15752.197,-697.853,-18986.183
1512177664,-16.100,60.900,289.400,164920.000,-115480.000,964540.000,-14000.000,-437000.000,-91000.000,212.048,168.704,621.100,126.791,29.947,-137.241,15526.367,-923.180,-18609.367
1512177664,-23.200,65.500,272.300,158200.000,-82030.000,972660.000,-14000.000,-437000.000,-91000.000,325.208,176.375,612.107,29.185,3.807,-86.279,15224.762,-1298.637,-18456.993
1512177664,-23.200,65.400,269.800,101750.000,-95890.000,981570.000,-14000.000,-437000.000,-91000.000,348.087,102.766,578.065,-19.642,-0.126,-16.264,15223.450,-1598.640,-18382.133
1512177664,-19.700,43.400,269.600,104550.000,-133180.000,1059510.000,-21000.000,-433000.000,-111000.000,292.371,83.679,465.257,-30.972,12.076,43.890,14922.653,-1749.092,-18604.652
1512177664,17.000,14.100,267.400,80990.000,-89660.000,1080930.000,-21000.000,-433000.000,-111000.000,124.333,120.041,313.701,22.939,11.188,92.777,14845.291,-2274.208,-18604.256
1512177664,-10.800,57.700,253.500,87100.000,-89290.000,1032530.000,-21000.000,-433000.000,-111000.000,-100.146,178.626,224.303,82.419,8.933,75.512,14996.384,-2048.988,-18455.421
1512177664,-5.700,53.300,220.200,104130.000,-88620.000,936100.000,-21000.000,-433000.000,-111000.000,-184.146,276.790,215.965,122.794,-6.845,18.581,15294.800,-2423.531,-18233.147
1512177664,6.500,58.200,230.600,-90270.000,-69760.000,1038820.000,-3000.000,-416000.000,-77000.000,-196.400,310.883,248.951,146.486,-24.005,-34.111,15371.490,-2048.424,-18233.620
1512177664,3.600,63.100,239.700,64270.000,-91550.000,1026860.000,-3000.000,-416000.000,-77000.000,-182.280,370.628,301.605,133.987,-20.256,-87.055,15746.613,-2047.859,-18011.803
1512177664,-30.100,58.900,233.200,44430.000,-82890.000,1043580.000,-3000.000,-416000.000,-77000.000,-79.612,386.715,346.855,110.805,-3.526,-111.871,15743.729,-2722.862,-17712.105
1512177664,-47.800,55.100,222.000,35340.000,-119260.000,1016720.000,-3000.000,-416000.000,-77000.000,14.905,372.926,367.363,88.974,28.306,-94.574,15893.723,-2722.633,-17713.387
1512177664,12.800,15.300,213.900,24290.000,-100160.000,985960.000,-3000.000,-416000.000,-77000.000,63.304,326.997,404.151,83.005,26.782,-45.106,15743.835,-2722.862,-17487.114
1512177664,11.100,26.600,198.400,34480.000,-77580.000,971010.000,5000.000,-410000.000,-89000.000,-12.693,331.119,423.321,56.265,16.980,-33.116,15891.769,-3172.630,-17563.591
1512177664,0.100,23.600,210.000,30150.000,-82950.000,1001890.000,5000.000,-410000.000,-89000.000,-116.699,379.081,397.462,40.951,-10.284,-51.237,15967.560,-3022.530,-17339.165
1512177664,-31.300,22.200,213.100,33630.000,-96740.000,995060.000,5000.000,-410000.000,-89000.000,-135.934,323.633,333.027,56.840,-2.583,-77.501,16192.108,-3097.191,-17566.109
1512177664,31.600,-16.900,206.800,33330.000,-54630.000,976440.000,5000.000,-410000.000,-89000.000,-110.572,220.291,211.502,107.489,92.042,-69.765,16266.541,-3247.078,-17341.820
1512177664,35.000,-15.600,205.700,38390.000,-68050.000,894960.000,5000.000,-410000.000,-89000.000,40.914,163.929,202.842,190.763,101.733,7.644,16188.766,-3847.191,-17491.463
1512177664,29.000,-26.900,187.400,41930.000,-63720.000,969600.000,24000.000,-412000.000,-81000.000,33.106,-65.890,277.621,198.097,93.002,34.063,16412.827,-4071.861,-17343.483
1512177664,-60.500,5.200,181.500,119750.000,-124940.000,982850.000,24000.000,-412000.000,-81000.000,119.156,-66.269,262.873,146.925,107.095,44.535,16151.009,-3922.249,-17341.179
1512177664,-39.100,1.300,174.300,65060.000,-89110.000,1071110.000,24000.000,-412000.000,-81000.000,61.603,212.100,437.308,71.530,-9.375,70.932,15850.067,-4147.705,-17188.729
1512177664,-24.500,20.400,164.200,66890.000,-42480.000,973750.000,24000.000,-412000.000,-81000.000,65.475,399.041,438.015,-51.409,-67.807,-38.611,15774.620,-4297.814,-16738.159
1512177664,-33.300,24.800,168.300,22950.000,-93380.000,1113710.000,17000.000,-398000.000,-67000.000,158.035,322.447,348.474,-9.035,28.012,-40.574,15623.947,-4485.542,-16399.475
1512177664,-28.900,42.100,148.900,26490.000,-107730.000,870420.000,17000.000,-398000.000,-67000.000,83.688,198.721,196.118,87.326,21.047,-3.273,15845.657,-5235.215,-16214.233
1512177664,-14.500,54.200,150.500,73300.000,-78610.000,1088680.000,17000.000,-398000.000,-67000.000,23.006,207.249,159.558,117.011,-11.573,-31.491,15881.531,-5610.154,-16102.226
1512177664,-16.600,45.900,148.600,72390.000,-118100.000,973140.000,17000.000,-398000.000,-67000.000,68.901,176.161,251.796,113.221,-11.697,-61.964,16407.547,-5421.860,-15769.112
1512177664,-12.000,48.300,146.900,51880.000,-105100.000,1045170.000,17000.000,-398000.000,-67000.000,88.438,237.989,330.649,108.484,-28.677,-36.890,16442.047,-6096.817,-15694.740
1512177664,-24.000,48.700,148.700,44800.000,-152220.000,1039250.000,21000.000,-419000.000,-81000.000,111.730,201.349,241.844,82.246,3.805,-34.081,16403.556,-6359.367,-15319.542
1512177664,-14.900,26.400,142.300,-27400.000,-89480.000,995300.000,21000.000,-419000.000,-81000.000,119.625,146.274,276.944,113.658,-9.557,26.508,16139.290,-6772.270,-15130.005
1512177664,16.500,33.000,156.300,-66040.000,-77390.000,1046080.000,21000.000,-419000.000,-81000.000,-84.478,370.609,381.906,45.556,-116.812,-92.503,16286.682,-7372.047,-14944.053
1512177664,-8.700,45.400,157.400,47970.000,-45960.000,1033260.000,21000.000,-419000.000,-81000.000,23.537,305.793,293.698,47.975,16.015,-176.600,16363.182,-7071.929,-14644.554
1512177665,-46.900,64.600,136.000,66040.000,-107480.000,1064820.000,21000.000,-419000.000,-81000.000,343.570,2.155,136.303,128.957,97.551,-11.466,16098.999,-7447.334,-14642.494
1512177665,-53.800,85.400,142.200,-99790.000,-134030.000,1090330.000,31000.000,-401000.000,-77000.000,370.666,-167.704,165.955,148.476,43.171,121.151,15723.206,-7597.893,-14864.372
1512177665,-38.300,56.300,119.000,75070.000,-86910.000,1002930.000,31000.000,-401000.000,-77000.000,206.647,-246.033,217.676,70.273,7.453,143.928,15499.069,-7448.235,-14487.389
1512177665,-17.400,28.400,112.900,-8790.000,-87100.000,1001890.000,31000.000,-401000.000,-77000.000,75.326,-58.148,173.783,11.115,-41.775,136.818,15497.650,-7748.238,-14637.535
1512177665,-49.500,53.500,102.500,24720.000,-103390.000,1087830.000,31000.000,-401000.000,-77000.000,-84.727,154.138,192.456,-16.142,-69.844,114.130,15574.066,-7448.112,-14488.029
1512177665,-60.500,79.100,90.800,-11110.000,-88260.000,1005190.000,45000.000,-405000.000,-81000.000,-154.273,329.172,216.578,-9.198,-69.357,62.865,15797.302,-7822.777,-14640.114
1512177665,-57.000,79.800,102.300,-46750.000,-129270.000,1040410.000,45000.000,-405000.000,-81000.000,-209.223,421.001,191.582,73.071,-42.936,20.751,16096.375,-8047.340,-14492.775
1512177665,-53.800,67.500,106.800,24780.000,-61460.000,992130.000,45000.000,-405000.000,-81000.000,-190.924,344.276,112.692,158.846,-0.978,-23.655,16171.066,-8122.231,-14418.434
1512177665,-2.700,35.400,92.800,-57560.000,-41020.000,1004520.000,45000.000,-405000.000,-81000.000,-76.447,217.398,81.929,246.225,38.891,-44.694,16471.298,-8046.776,-14645.958
1512177665,-32.600,59.300,107.600,24350.000,-61040.000,951290.000,45000.000,-405000.000,-81000.000,8.246,214.126,182.288,319.851,46.833,-47.657,16393.936,-8571.892,-14645.561
1512177665,-42.100,65.900,98.500,-79280.000,40340.000,1154720.000,42000.000,-391000.000,-74000.000,65.334,207.488,339.801,331.885,37.632,-60.001,16620.361,-8271.553,-14497.337
1512177665,-46.500,57.800,88.400,-28260.000,-6530.000,1008480.000,42000.000,-391000.000,-74000.000,204.276,169.040,446.156,284.639,21.142,-59.422,16244.080,-8572.121,-14344.292
1512177665,15.400,13.400,91.200,40530.000,-73850.000,1097050.000,42000.000,-391000.000,-74000.000,299.735,147.638,539.145,208.370,3.314,-22.732,15942.474,-8947.563,-14191.917
1512177665,15.700,40.100,50.700,-94600.000,-52310.000,996580.000,42000.000,-391000.000,-74000.000,303.587,166.818,564.852,117.037,-19.472,-2.444,15263.901,-9773.582,-13886.559
1512177665,-24.400,23.300,42.600,-75620.000,-121770.000,994450.000,42000.000,-391000.000,-74000.000,266.886,199.945,529.255,39.309,-29.582,9.972,15417.358,-9023.354,-13737.495
1512177665,-28.400,42.200,47.700,-45720.000,-73430.000,994200.000,43000.000,-386000.000,-69000.000,235.405,169.110,432.746,-3.214,-34.793,28.453,15040.848,-9398.918,-13359.474
1512177665,23.000,20.000,28.600,-50960.000,28750.000,1055850.000,43000.000,-386000.000,-69000.000,134.125,182.035,305.534,-6.324,-17.962,45.801,15115.784,-9398.796,-13510.124
1512177665,9.500,35.400,45.700,7200.000,-97470.000,979610.000,43000.000,-386000.000,-69000.000,26.025,188.475,201.644,43.870,-10.877,49.373,15263.046,-9998.589,-13586.662
1512177665,-38.100,75.400,0.100,-55970.000,93510.000,927980.000,43000.000,-386000.000,-69000.000,6.300,132.969,167.053,94.381,-3.820,28.805,15113.144,-9998.802,-13360.390
1512177665,1.100,33.700,29.600,-19590.000,15320.000,1050780.000,35000.000,-380000.000,-74000.000,60.738,53.890,222.999,127.663,-24.065,17.490,15037.369,-10148.918,-13584.831
1512177665,15.800,44.600,61.700,-60000.000,-46690.000,947810.000,35000.000,-380000.000,-74000.000,104.569,47.437,280.113,116.180,-50.671,8.139,15110.748,-10523.811,-13435.631
1512177665,12.900,29.000,42.900,-44620.000,21420.000,964230.000,35000.000,-380000.000,-74000.000,92.134,133.848,327.140,94.943,-73.613,5.764,15258.469,-11048.592,-13287.148
1512177665,23.200,-8.100,49.100,-81850.000,-16110.000,1059690.000,35000.000,-380000.000,-74000.000,33.097,212.879,291.382,71.326,-78.313,-0.277,15035.034,-10673.927,-13510.063
1512177665,31.400,8.500,35.300,-22710.000,40280.000,1018800.000,35000.000,-380000.000,-74000.000,-8.332,239.659,218.379,80.020,-49.327,-18.407,15034.546,-10823.921,-13135.139
1512177665,30.800,16.400,13.000,-103450.000,-34790.000,992680.000,49000.000,-380000.000,-74000.000,13.761,207.746,170.618,116.701,-20.682,-12.784,15033.356,-11048.927,-13510.246
1512177665,52.600,39.000,7.700,-71900.000,13980.000,1013980.000,49000.000,-380000.000,-74000.000,60.642,106.350,167.749,149.107,-5.182,2.800,15031.357,-11498.940,-13435.448
1512177665,34.100,33.300,-2.800,-30400.000,23990.000,985600.000,49000.000,-380000.000,-74000.000,102.326,84.870,256.760,136.641,-40.430,34.255,15293.419,-11611.046,-13325.234
1512177665,35.700,47.500,-7.300,-17210.000,-40650.000,1014530.000,49000.000,-380000.000,-74000.000,-6.256,182.322,316.289,27.416,-103.382,-29.633,14990.059,-12361.488,-13285.530
1512177665,39.700,49.300,-13.400,-11900.000,48710.000,948000.000,43000.000,-379000.000,-66000.000,90.919,182.555,273.989,-25.651,-69.731,-35.949,14726.646,-12586.891,-13095.901
1512177665,41.500,25.400,-6.100,-73240.000,23500.000,969790.000,43000.000,-379000.000,-66000.000,121.316,39.008,233.953,-26.471,-50.424,32.660,14986.458,-13186.501,-13060.906
1512177665,43.300,44.500,14.200,-57800.000,-56460.000,997920.000,43000.000,-379000.000,-66000.000,-47.787,41.721,80.130,-8.558,-57.774,17.702,14795.379,-13974.281,-13134.682
1512177665,41.900,38.100,-8.000,-39000.000,30030.000,1054380.000,43000.000,-379000.000,-66000.000,-72.331,74.989,-12.853,107.955,1.354,9.660,15207.794,-13973.664,-13288.185
1512177665,10.900,16.600,-17.300,-19350.000,37600.000,937930.000,43000.000,-379000.000,-66000.000,38.188,4.899,134.021,156.763,-15.486,20.463,15468.079,-14423.271,-13703.117
1512177665,27.200,21.200,-16.800,-172180.000,-10680.000,1049800.000,49000.000,-377000.000,-64000.000,101.085,44.258,265.127,58.081,-57.488,3.496,15540.809,-14948.166,-13516.502
1512177665,29.000,20.800,-30.400,-82030.000,28930.000,968630.000,49000.000,-377000.000,-64000.000,154.848,62.017,237.716,19.115,-46.230,41.773,15463.760,-15435.783,-13216.087
1512177665,15.000,2.900,-27.600,-58780.000,-1100.000,959840.000,49000.000,-377000.000,-64000.000,57.219,100.972,180.470,-2.366,-49.191,46.092,15761.963,-15847.832,-13106.331
1512177665,31.000,11.300,-32.100,-106570.000,16970.000,976620.000,49000.000,-377000.000,-64000.000,-8.059,204.574,135.643,-10.490,-58.926,12.505,15722.793,-16222.893,-13068.688
1512177665,35.400,11.600,-37.700,-77700.000,64390.000,977170.000,49000.000,-377000.000,-64000.000,-24.098,141.060,103.743,53.562,-23.691,-5.413,16098.152,-16147.331,-13034.340
1512177666,34.100,12.700,-42.200,-113460.000,23190.000,1065550.000,42000.000,-391000.000,-64000.000,-27.009,178.814,184.851,100.015,-31.472,-28.278,16585.663,-16146.599,-13000.984
1512177666,30.800,7.300,-45.800,-77090.000,41140.000,965940.000,42000.000,-391000.000,-64000.000,-4.354,203.318,234.303,97.039,-48.056,-68.525,16434.357,-16446.831,-12924.843
1512177666,22.200,11.200,-46.700,-83310.000,37600.000,1067080.000,42000.000,-391000.000,-64000.000,143.648,75.478,174.171,117.961,22.073,-48.724,16660.446,-16221.489,-12776.649
1512177666,30.800,19.600,-45.000,-132320.000,29850.000,1017640.000,42000.000,-391000.000,-64000.000,282.331,-31.109,163.016,164.101,36.125,48.296,16658.493,-16671.486,-12626.869
1512177666,34.600,19.200,-48.700,-110720.000,53830.000,982060.000,38000.000,-380000.000,-54000.000,229.034,-77.246,224.980,147.180,-5.581,86.769,16209.503,-16447.166,-12622.932
1512177666,23.200,-2.900,-46.300,-56700.000,53410.000,1008480.000,38000.000,-380000.000,-54000.000,154.938,-43.246,259.204,81.836,-55.308,66.581,16582.825,-16821.602,-12626.289
1512177666,34.800,-0.700,-45.900,-84780.000,48340.000,998780.000,38000.000,-380000.000,-54000.000,96.217,88.035,271.606,41.217,-81.595,37.924,16356.842,-17046.944,-12549.477
1512177666,42.600,-3.300,-43.900,-91670.000,65430.000,993530.000,38000.000,-380000.000,-54000.000,-37.510,227.823,242.438,18.733,-87.886,-0.901,16283.188,-16747.047,-12548.698
1512177666,40.100,-0.100,-46.200,-94730.000,57980.000,959110.000,38000.000,-380000.000,-54000.000,-55.681,232.186,180.356,10.680,-17.016,-61.411,16283.417,-16747.047,-12098.717
1512177666,36.600,-7.600,-50.700,-114930.000,49680.000,1010740.000,40000.000,-393000.000,-45000.000,186.294,140.822,112.117,80.553,-15.335,-26.658,16207.809,-16897.163,-11948.143
1512177666,39.000,-0.300,-57.900,-88500.000,30520.000,945010.000,40000.000,-393000.000,-45000.000,147.254,66.859,213.637,99.289,-60.008,15.321,16132.248,-17047.279,-11722.572
1512177666,37.600,-7.100,-65.100,-99610.000,14950.000,1051030.000,40000.000,-393000.000,-45000.000,47.156,38.825,270.725,17.288,-77.286,-41.306,15606.018,-17348.076,-11493.263
1512177666,37.000,-6.900,-77.000,-90820.000,92770.000,996520.000,40000.000,-393000.000,-45000.000,136.736,22.000,202.667,-50.952,-51.153,-74.059,15683.456,-16822.945,-11343.651
1512177666,32.100,-3.500,-62.700,-140560.000,73670.000,997800.000,40000.000,-393000.000,-45000.000,229.220,23.304,153.906,-58.299,-18.372,-9.260,15683.838,-16747.948,-11268.623
1512177666,45.000,-1.100,-72.600,-98020.000,63290.000,982060.000,52000.000,-380000.000,-54000.000,198.392,-2.237,83.013,-34.421,-13.548,66.476,15758.270,-16897.850,-11044.319
1512177666,36.600,-13.600,-67.100,-92710.000,40950.000,905820.000,52000.000,-380000.000,-54000.000,88.064,-24.769,49.355,-13.391,-37.612,103.075,15908.417,-16897.621,-10745.598
1512177666,40.600,4.900,-79.600,-120420.000,47060.000,1009400.000,52000.000,-380000.000,-54000.000,-100.724,56.103,58.625,-8.157,-67.121,103.655,16059.280,-16672.386,-11046.761
1512177666,34.600,-5.900,-91.500,-115300.000,67990.000,960080.000,52000.000,-380000.000,-54000.000,-277.361,209.808,-18.021,-8.005,-65.105,-9.291,15909.317,-16672.615,-10970.497
1512177666,22.600,-18.400,-92.500,-96310.000,49930.000,929630.000,42000.000,-370000.000,-44000.000,-285.693,356.279,-86.924,44.708,-39.610,-70.798,16211.426,-16222.160,-10822.838
1512177666,23.600,-0.700,-91.500,-116390.000,75560.000,965270.000,42000.000,-370000.000,-44000.000,-180.494,295.515,-69.622,119.678,-1.576,-83.391,16361.572,-16221.931,-10524.117
1512177666,11.500,-1.600,-83.500,-96680.000,81050.000,953490.000,42000.000,-370000.000,-44000.000,8.729,128.987,18.889,164.234,16.874,-76.513,16362.915,-15921.944,-10523.979
1512177666,11.900,-14.400,-93.700,-129880.000,83250.000,1015440.000,42000.000,-370000.000,-44000.000,245.241,-103.768,146.236,139.860,19.065,-45.788,15914.948,-15472.603,-10519.936
1512177666,-6.300,-35.800,-100.700,-143860.000,72750.000,959050.000,42000.000,-370000.000,-44000.000,394.425,-228.642,208.728,67.962,-21.482,12.998,15763.626,-15772.835,-10443.794
1512177666,-5.300,-38.900,-104.000,-112730.000,67140.000,956730.000,49000.000,-384000.000,-44000.000,348.206,-188.170,233.785,-25.381,-70.740,54.485,15314.377,-15623.512,-10289.909
1512177666,14.900,-14.200,-109.100,-94850.000,35710.000,969730.000,49000.000,-384000.000,-44000.000,193.340,-134.909,189.084,-110.116,-45.200,43.164,14638.657,-15774.529,-10359.245
1512177666,24.800,-0.400,-112.900,-88260.000,44860.000,970760.000,49000.000,-384000.000,-44000.000,153.600,4.102,84.518,-128.768,6.662,43.488,14863.693,-15774.178,-10286.156
1512177666,27.300,11.700,-114.600,-91490.000,76780.000,1071960.000,49000.000,-384000.000,-44000.000,-28.575,215.382,54.895,-102.074,14.537,29.661,14677.215,-15549.461,-10284.469
1512177666,6.300,-26.600,-115.800,-50480.000,37110.000,990970.000,49000.000,-384000.000,-44000.000,-48.979,259.725,33.966,-18.465,49.144,1.742,14566.536,-15174.629,-10020.836
1512177666,-9.600,-41.100,-110.400,-98210.000,59690.000,928340.000,42000.000,-387000.000,-50000.000,-12.482,32.114,104.596,-11.555,33.341,-46.542,14227.761,-15437.638,-10205.590
1512177666,10.000,-14.200,-113.600,-90640.000,43700.000,977600.000,42000.000,-387000.000,-50000.000,255.842,-156.907,18.278,3.115,55.420,70.951,14267.601,-14912.574,-10243.164
1512177666,6.300,-26.500,-110.700,-88680.000,31490.000,972600.000,42000.000,-387000.000,-50000.000,22.542,58.384,83.342,-26.542,-93.590,73.739,14117.035,-15062.806,-10016.960
1512177666,-0.800,-26.600,-110.100,-117310.000,47550.000,952510.000,42000.000,-387000.000,-50000.000,-32.027,151.988,-29.594,4.276,-29.713,-14.017,14229.423,-15100.136,-9905.426
1512177666,3.100,-15.200,-109.600,-61770.000,45720.000,1009830.000,28000.000,-409000.000,-37000.000,130.322,-82.431,69.487,97.144,86.909,52.083,14604.385,-15062.072,-10321.098
1512177666,-2.800,-18.800,-111.300,-64580.000,34610.000,962590.000,28000.000,-409000.000,-37000.000,98.734,-247.428,296.058,-6.025,41.300,52.884,14079.552,-15025.360,-10316.620
1512177666,-6.500,-30.600,-113.500,-109250.000,36250.000,996890.000,28000.000,-409000.000,-37000.000,-147.907,140.190,177.102,-222.054,-19.603,-105.712,14233.818,-14275.131,-8555.054
1512177666,8.000,-32.500,-109.200,-122740.000,41020.000,988280.000,28000.000,-409000.000,-37000.000,-53.914,105.081,-94.571,-30.865,79.560,-72.334,13861.794,-13713.181,-7651.612
1512177666,2.800,-30.900,-108.900,-156310.000,67750.000,917850.000,28000.000,-409000.000,-37000.000,39.519,-133.324,78.656,74.361,70.032,12.637,13934.807,-14088.074,-8252.418
1512177666,5.700,-26.100,-115.000,-112490.000,41560.000,933720.000,33000.000,-393000.000,-45000.000,-63.391,-96.574,50.108,-43.144,5.744,-34.498,13786.987,-13563.293,-8625.900
1512177667,18.000,-15.600,-111.900,-127930.000,37290.000,1020810.000,33000.000,-393000.000,-45000.000,-103.221,104.378,-45.715,-38.165,37.702,-35.631,13898.941,-13675.636,-8701.912
1512177667,10.000,-26.800,-116.000,-79350.000,51940.000,979430.000,33000.000,-393000.000,-45000.000,-118.682,46.611,-16.291,-17.492,73.980,-50.353,13974.426,-13600.517,-8402.519
1512177667,11.500,-18.900,-119.600,-95700.000,56090.000,954590.000,33000.000,-393000.000,-45000.000,-21.862,-22.687,-7.665,-32.610,121.692,-63.783,13524.796,-13526.192,-8323.662
1512177667,24.000,-5.300,-126.000,-99060.000,61710.000,1002690.000,33000.000,-393000.000,-45000.000,101.606,22.337,6.006,-15.109,119.106,0.019,13750.778,-13300.850,-8400.459
1512177667,32.500,-9.900,-126.500,-112670.000,50660.000,1049320.000,28000.000,-380000.000,-50000.000,71.400,-52.648,88.459,-6.062,49.922,51.609,13748.703,-13750.862,-8475.670
1512177667,28.800,-12.400,-125.200,-104060.000,30940.000,1022520.000,28000.000,-380000.000,-50000.000,22.886,-152.122,116.193,-93.396,25.060,23.001,13675.354,-13375.969,-8549.858
1512177667,15.000,-33.700,-129.400,-91130.000,51270.000,979130.000,28000.000,-380000.000,-50000.000,32.113,-68.710,78.240,-142.002,18.782,8.705,13376.114,-13226.418,-8397.240
1512177667,25.400,-18.800,-133.600,-118770.000,46260.000,1005190.000,28000.000,-380000.000,-50000.000,-31.369,-39.784,-14.260,-152.938,49.404,12.540,13750.519,-13375.847,-8250.496
1512177667,9.700,-23.700,-128.000,-79470.000,57190.000,987850.000,12000.000,-382000.000,-22000.000,-80.920,41.509,-108.509,-123.979,88.960,11.787,13823.410,-13825.737,-8401.344
1512177667,-10.500,-60.500,-118.000,-89420.000,43880.000,1004640.000,12000.000,-382000.000,-22000.000,-57.630,-16.023,-165.938,-68.019,103.436,30.070,13824.844,-13525.734,-8251.213
1512177667,-2.100,-21.000,-135.800,-112490.000,51820.000,1018070.000,12000.000,-382000.000,-22000.000,-53.478,-41.666,-160.638,-29.607,85.387,53.846,14275.024,-13450.066,-8555.000
1512177667,-15.000,-21.400,-148.600,-122310.000,51270.000,1028560.000,12000.000,-382000.000,-22000.000,-112.038,-91.008,-103.026,-26.497,47.264,49.057,14199.387,-13600.182,-8479.424
1512177667,-17.200,-9.500,-154.700,-104610.000,24840.000,998900.000,12000.000,-382000.000,-22000.000,-156.053,-59.190,-17.198,-60.519,14.299,4.984,14199.921,-13450.172,-8779.350
1512177667,-27.200,-0.400,-151.300,-57620.000,26060.000,962340.000,17000.000,-394000.000,-13000.000,-140.055,-45.287,-17.988,-112.570,28.258,-53.284,14273.941,-13675.072,-8705.086
1512177667,-31.600,-1.600,-150.600,-121150.000,7810.000,986270.000,17000.000,-394000.000,-13000.000,-57.458,21.250,-110.373,-103.038,81.237,-47.506,14351.715,-13074.944,-8555.458
1512177667,-16.900,-6.000,-155.100,-140140.000,48950.000,999690.000,17000.000,-394000.000,-13000.000,10.409,38.531,-151.970,-22.885,101.119,17.576,14200.928,-13225.182,-8779.243
1512177667,-14.000,-23.200,-151.800,-145200.000,59940.000,1019350.000,17000.000,-394000.000,-13000.000,-64.917,7.227,-46.566,15.961,63.814,52.089,14274.536,-13525.063,-8855.019
1512177667,0.800,-14.500,-151.300,-122010.000,55240.000,948430.000,17000.000,-394000.000,-13000.000,-152.242,-23.993,11.763,-21.372,23.824,-1.189,14874.542,-13524.162,-8860.130
1512177667,6.300,-7.500,-147.800,-136540.000,47240.000,1002320.000,40000.000,-403000.000,1000.000,-140.644,45.560,-42.199,-51.733,35.684,-54.734,14799.759,-13449.272,-9084.450
1512177667,4.300,-31.700,-152.700,-135130.000,78310.000,1008120.000,40000.000,-403000.000,1000.000,-110.383,137.511,-62.762,-30.735,39.130,-46.279,14426.300,-13149.834,-8706.123
1512177667,-2.000,-40.500,-147.300,-130800.000,43150.000,985110.000,40000.000,-403000.000,1000.000,-147.864,102.189,-53.832,-38.878,58.473,-52.691,14728.729,-12624.382,-8558.434
1512177667,-3.100,-37.200,-151.000,-140010.000,57560.000,983400.000,40000.000,-403000.000,1000.000,-80.911,53.128,-44.508,-45.160,86.560,-60.482,15029.755,-12398.933,-8560.890
1512177667,-11.600,-30.000,-157.000,-92100.000,46510.000,982060.000,43000.000,-403000.000,-1000.000,6.099,-11.936,-22.149,-56.989,100.699,-40.568,14951.599,-13074.059,-8785.545
1512177667,-16.200,-16.000,-159.000,-32840.000,31130.000,972110.000,43000.000,-403000.000,-1000.000,25.336,-17.239,-25.085,-84.745,93.019,-0.550,14878.738,-12624.168,-8559.715
1512177667,-27.800,-20.800,-166.000,-4150.000,41630.000,975710.000,43000.000,-403000.000,-1000.000,-28.621,-62.670,-52.678,-76.646,59.034,38.584,14764.854,-12924.332,-8633.888
1512177667,-18.000,-6.500,-159.700,-105900.000,41500.000,1007750.000,43000.000,-403000.000,-1000.000,-119.519,-41.951,-66.716,-79.426,41.862,1.444,15028.496,-12661.438,-8711.006
1512177667,-12.000,-7.700,-159.500,-95150.000,81730.000,1007690.000,43000.000,-403000.000,-1000.000,-160.819,-7.800,-81.586,-78.757,33.663,-21.046,14876.998,-12961.670,-9009.865
1512177667,4.700,-0.300,-159.100,-111150.000,26000.000,1045040.000,47000.000,-403000.000,-18000.000,-123.624,71.879,-103.158,-90.668,75.660,-26.711,15139.573,-12923.767,-9199.577
1512177667,-5.700,-0.300,-154.300,-109370.000,33940.000,942140.000,47000.000,-403000.000,-18000.000,-166.557,29.651,-119.918,-70.364,81.736,-2.893,15289.688,-12886.048,-9313.332
1512177667,-3.500,-4.500,-154.600,-87220.000,44310.000,927670.000,47000.000,-403000.000,-18000.000,-89.029,-90.492,-76.039,-72.597,86.561,-12.355,15251.282,-13073.601,-9425.599
1512177667,2.000,-3.300,-151.400,-125670.000,31980.000,1020940.000,47000.000,-403000.000,-18000.000,-41.221,-86.099,-97.716,-101.101,60.873,26.795,15100.967,-13111.336,-9724.350
1512177667,-1.300,-38.300,-144.700,-86490.000,66830.000,1056580.000,38000.000,-398000.000,-10000.000,-154.593,39.248,-101.588,-102.207,26.985,27.184,15252.938,-12661.103,-9837.913
1512177667,4.700,-20.600,-149.100,-87520.000,43210.000,985600.000,38000.000,-398000.000,-10000.000,-225.478,135.801,-97.484,-129.197,31.474,-73.958,15364.372,-12923.431,-9613.984
1512177667,14.800,-0.900,-157.800,-85630.000,33510.000,985290.000,38000.000,-398000.000,-10000.000,-24.251,-1.515,-185.661,-80.662,100.347,-77.048,15403.648,-12548.378,-9426.636
1512177667,25.700,13.600,-161.300,-86980.000,67750.000,1049440.000,38000.000,-398000.000,-10000.000,46.363,-226.873,-147.577,-48.084,76.213,15.047,15328.292,-12623.497,-9463.539
1512177667,25.800,2.800,-168.200,-47120.000,34000.000,1077700.000,38000.000,-398000.000,-10000.000,5.192,-150.046,-135.645,-81.246,32.389,41.672,15480.072,-12210.762,-9614.609
1512177667,29.700,1.100,-175.100,-76780.000,13920.000,1057860.000,17000.000,-391000.000,-23000.000,-98.234,-29.041,-96.212,-87.982,24.007,4.552,15592.758,-12173.095,-9578.056
1512177668,45.000,30.600,-177.800,-99120.000,52550.000,1032040.000,17000.000,-391000.000,-23000.000,-69.662,43.735,-144.584,-63.777,57.889,-26.732,15779.831,-12247.810,-9767.189
1512177668,34.400,22.800,-177.100,-110410.000,76420.000,973390.000,17000.000,-391000.000,-23000.000,-61.341,-8.617,-135.053,-18.111,82.778,-14.068,15930.206,-12172.585,-9693.428
1512177668,28.100,25.200,-169.600,-191470.000,64450.000,1009220.000,17000.000,-391000.000,-23000.000,-21.680,-62.060,-85.623,-5.270,79.677,-11.123,15928.406,-12547.585,-9918.587
1512177668,13.400,-4.500,-161.500,-160400.000,62010.000,934330.000,17000.000,-391000.000,-23000.000,30.906,-114.400,-44.532,-42.461,58.880,-11.575,16380.585,-12096.916,-9622.215
1512177668,-12.400,-18.000,-155.300,-136290.000,50900.000,1015320.000,29000.000,-396000.000,-15000.000,52.994,-74.886,-24.888,-79.717,37.129,1.964,15781.509,-11872.810,-9767.006
1512177668,-3.200,-21.400,-163.100,-191470.000,36010.000,1001280.000,29000.000,-396000.000,-15000.000,16.871,-41.815,-30.626,-110.598,21.069,9.166,16157.120,-11722.237,-9920.128
1512177668,8.900,-2.300,-151.800,-216550.000,60000.000,1043880.000,29000.000,-396000.000,-15000.000,-35.873,-14.058,-63.276,-124.062,28.018,2.653,15781.219,-11947.807,-9692.039
1512177668,9.600,1.900,-188.800,-178280.000,117550.000,993410.000,29000.000,-396000.000,-15000.000,-49.922,5.249,-115.650,-96.728,41.460,-1.177,16079.193,-12397.362,-9694.801
1512177668,-14.900,-19.600,-200.400,-188230.000,51330.000,1092530.000,17000.000,-387000.000,20000.000,-84.885,-21.481,-130.108,-59.171,46.078,-13.152,15705.505,-12097.923,-9766.487
1512177668,2.800,-14.800,-210.800,-204350.000,64210.000,976260.000,17000.000,-387000.000,20000.000,-83.664,-53.502,-140.862,-49.166,35.203,-38.698,15857.376,-11647.697,-10067.543
1512177668,3.700,-15.400,-218.400,-118160.000,79410.000,934940.000,17000.000,-387000.000,20000.000,-19.576,-100.386,-150.757,-62.990,73.388,-55.776,16007.950,-11497.475,-10293.739
1512177668,-7.700,-18.100,-221.300,-190490.000,42970.000,992490.000,17000.000,-387000.000,20000.000,139.472,-109.728,-163.409,-50.328,83.903,9.307,15707.458,-11572.914,-10591.225
1512177668,-11.100,-6.900,-226.600,-159120.000,57310.000,1019230.000,17000.000,-387000.000,20000.000,133.449,-140.797,-123.095,-22.502,65.288,94.382,15706.635,-11722.923,-10891.304
1512177668,-15.300,-10.800,-229.600,-190920.000,36070.000,973450.000,26000.000,-386000.000,-8000.000,34.190,-174.202,-53.224,-43.206,21.147,104.091,15332.687,-11498.482,-10812.996
1512177668,-5.500,-4.300,-238.100,-128230.000,57920.000,960390.000,26000.000,-386000.000,-8000.000,-52.210,-133.883,16.023,-111.118,2.469,49.068,15783.585,-11272.804,-11041.725
1512177668,-10.700,-10.000,-240.500,-175960.000,35460.000,1051390.000,26000.000,-386000.000,-8000.000,-88.672,-6.730,-28.835,-155.443,10.366,4.126,15709.290,-11122.917,-10966.026
1512177668,1.700,-25.000,-242.500,-185180.000,59750.000,941220.000,26000.000,-386000.000,-8000.000,-101.914,72.491,-126.828,-119.886,32.548,3.764,15782.196,-11572.807,-11116.859
1512177668,-1.600,-29.000,-241.500,-180050.000,35340.000,941040.000,26000.000,-386000.000,-8000.000,-139.878,60.730,-153.007,-59.059,57.032,5.524,15782.043,-11572.807,-11416.862
1512177668,-7.700,-23.600,-245.700,-129210.000,35220.000,994690.000,17000.000,-384000.000,3000.000,-131.705,9.440,-132.807,-24.116,40.065,-11.449,15629.868,-12023.033,-11715.797
1512177668,2.700,-12.300,-251.100,-126710.000,47420.000,1024480.000,17000.000,-384000.000,3000.000,-144.261,-51.566,-86.298,-58.037,21.900,-67.828,16232.239,-11497.139,-11720.650
1512177668,-7.600,-18.500,-252.600,-98140.000,39550.000,990720.000,17000.000,-384000.000,3000.000,-46.676,-79.117,-122.291,-112.316,19.100,-109.981,16082.687,-11422.356,-11494.347
1512177668,-7.200,-17.600,-250.300,-91190.000,41560.000,990230.000,17000.000,-384000.000,3000.000,67.259,-108.739,-180.443,-107.593,51.322,-54.774,15931.854,-11572.578,-11793.129
1512177668,-19.200,-8.700,-255.100,-97840.000,6960.000,1041260.000,22000.000,-403000.000,-8000.000,116.311,-170.611,-184.212,-89.561,55.640,29.593,16006.104,-11722.466,-11943.840
1512177668,-21.600,-8.700,-253.500,-185790.000,56520.000,1076480.000,22000.000,-403000.000,-8000.000,39.080,-199.624,-156.647,-101.311,28.300,67.840,15929.672,-12022.591,-12093.346
1512177668,-20.900,-8.300,-252.100,-221190.000,16170.000,1098140.000,22000.000,-403000.000,-8000.000,-101.921,-91.999,-134.865,-141.087,-13.597,43.591,15926.086,-12772.591,-12543.678
1512177668,-19.200,-12.400,-247.900,-160100.000,63720.000,1041990.000,22000.000,-403000.000,-8000.000,-180.326,17.950,-159.073,-181.034,-23.193,-19.811,16078.064,-12322.365,-12619.759
1512177668,-4.500,-8.000,-241.300,-213990.000,43700.000,989810.000,22000.000,-403000.000,-8000.000,-150.578,84.808,-181.327,-128.556,12.847,-56.444,16451.919,-12584.297,-12548.058
1512177668,-13.800,-6.400,-239.000,-213070.000,66040.000,981020.000,3000.000,-398000.000,-13000.000,-4.218,-72.005,-175.488,-53.926,61.240,-34.049,16337.364,-12996.971,-12959.793
1512177668,-14.600,-12.400,-245.300,-111270.000,31250.000,952760.000,3000.000,-398000.000,-13000.000,-25.273,-90.290,-127.884,-38.279,24.814,-14.151,16297.089,-13597.031,-13109.749
1512177668,-25.000,-17.800,-242.500,-155400.000,8120.000,1012880.000,3000.000,-398000.000,-13000.000,29.641,-73.118,-128.096,-63.890,38.101,-42.067,16709.618,-13596.413,-13038.262
1512177668,-27.600,-18.900,-242.500,-161500.000,50170.000,923340.000,3000.000,-398000.000,-13000.000,104.915,-148.824,-138.995,-36.565,59.691,31.875,16145.958,-13859.764,-12996.102
1512177668,-42.900,-20.900,-249.000,-135990.000,18620.000,982420.000,0.000,-405000.000,-13000.000,96.533,-178.850,-84.318,-104.262,41.665,71.579,16296.280,-13822.029,-12697.357
1512177668,-30.600,-16.600,-248.200,-145260.000,22220.000,979680.000,0.000,-405000.000,-13000.000,-54.379,-71.152,-107.986,-181.554,7.324,52.484,16069.779,-14197.372,-12320.618
1512177668,-23.700,-4.500,-241.800,-190920.000,54440.000,992550.000,0.000,-405000.000,-13000.000,-93.028,-5.768,-249.570,-134.309,58.664,13.894,16219.368,-14309.646,-12134.445
1512177668,-33.000,-2.300,-246.300,-127080.000,16850.000,983090.000,0.000,-405000.000,-13000.000,-55.512,-118.499,-203.046,-56.702,58.574,6.797,16672.081,-13746.467,-11763.023
1512177668,-44.600,-1.300,-250.600,-116270.000,25150.000,1071230.000,0.000,-405000.000,-13000.000,4.648,-77.953,-131.672,-46.924,30.121,14.500,16710.015,-13633.912,-11913.284
1512177668,-29.300,-4.300,-246.900,-173770.000,50230.000,1034060.000,-15000.000,-403000.000,1000.000,-69.028,-73.811,-124.731,-43.959,23.041,-9.532,16898.025,-13558.632,-11577.340
1512177668,-39.100,-2.700,-249.700,-165470.000,19530.000,1042420.000,-15000.000,-403000.000,1000.000,-52.553,-79.131,-121.845,-54.341,42.096,-22.821,16863.976,-12808.685,-11426.674
1512177669,-44.500,-0.700,-246.700,-157710.000,36320.000,946530.000,-15000.000,-403000.000,1000.000,9.264,-101.406,-154.609,-97.038,40.309,-21.456,16825.638,-12996.239,-11426.445
1512177669,-41.900,12.700,-247.800,-225520.000,61400.000,1004030.000,-15000.000,-403000.000,1000.000,62.219,-130.203,-134.752,-87.954,35.130,23.012,16750.488,-13071.358,-11050.835
1512177669,-30.500,41.100,-253.500,-144530.000,24780.000,1040590.000,-15000.000,-403000.000,1000.000,13.616,-153.848,-97.158,-89.185,14.581,44.199,16673.386,-13371.468,-12550.331
1512177669,-23.200,64.300,-249.900,-151790.000,-6590.000,1021910.000,-12000.000,-396000.000,1000.000,-68.341,-111.238,-103.530,-100.426,-11.115,6.938,16597.702,-13521.584,-12549.767
1512177669,-60.100,27.600,-246.300,-144040.000,17700.000,936220.000,-12000.000,-396000.000,1000.000,-72.709,-150.647,-163.428,-91.303,-12.792,-30.401,16824.814,-13071.236,-12401.482
1512177669,-38.100,53.100,-252.300,-85450.000,-7140.000,1013430.000,-12000.000,-396000.000,1000.000,-46.849,-223.205,-183.561,-73.340,13.164,-29.654,16523.453,-13371.696,-12399.071
1512177669,-50.100,35.300,-256.200,-80200.000,18680.000,1069270.000,-12000.000,-396000.000,1000.000,-10.810,-276.579,-173.630,-67.784,45.326,-18.481,16376.114,-12771.919,-12472.511
1512177669,-8.900,56.300,-248.600,-136470.000,18740.000,1106750.000,-3000.000,-398000.000,-13000.000,-0.589,-252.049,-145.678,-73.290,48.544,11.872,16299.545,-13072.029,-12922.005
1512177669,-21.300,21.800,-239.300,-175350.000,-5430.000,991880.000,-3000.000,-398000.000,-13000.000,-31.025,-168.856,-106.387,-76.516,19.857,21.966,16151.749,-12622.246,-12545.525
1512177669,-14.000,18.200,-236.600,-143250.000,9580.000,1007870.000,-3000.000,-398000.000,-13000.000,-65.041,-165.693,-112.200,-105.498,-52.967,15.873,16151.672,-12622.246,-12695.534
1512177669,0.100,13.200,-231.000,-174870.000,19290.000,1004940.000,-3000.000,-398000.000,-13000.000,-169.730,-129.433,-161.561,-157.087,-55.184,-20.154,16229.340,-12022.133,-12770.897
1512177669,-20.800,-17.300,-241.100,-173710.000,-2320.000,1027590.000,-3000.000,-398000.000,-13000.000,-171.923,-72.708,-220.030,-130.813,33.514,-45.153,15929.306,-12022.591,-12843.346
1512177669,-16.900,-19.700,-240.200,-143490.000,-980.000,1003910.000,-22000.000,-407000.000,-1000.000,-107.347,-83.216,-257.508,-44.470,89.477,-2.345,16006.287,-11572.472,-12918.770
1512177669,-7.100,-5.200,-236.600,-158630.000,2260.000,1002080.000,-22000.000,-407000.000,-1000.000,-126.436,-129.291,-201.445,12.671,104.662,36.234,15781.479,-11497.810,-13216.820
1512177669,-7.700,4.300,-238.000,-96070.000,-17820.000,971250.000,-22000.000,-407000.000,-1000.000,-100.944,-220.177,-135.295,3.159,76.668,22.246,16306.900,-11422.020,-13071.251
1512177669,-18.500,-3.200,-239.200,-132320.000,10010.000,1034180.000,-22000.000,-407000.000,-1000.000,-61.352,-213.693,-144.295,-58.940,36.131,-10.296,16082.535,-11272.362,-13144.264
1512177669,-19.000,-10.900,-236.400,-143980.000,-19530.000,976930.000,-22000.000,-407000.000,-1000.000,-36.215,-114.246,-176.631,-113.842,-8.075,-30.815,15556.488,-11498.146,-13214.912
1512177669,-9.700,-15.400,-232.600,-159120.000,21300.000,971250.000,-28000.000,-405000.000,3000.000,1.307,-43.672,-186.505,-151.233,-32.944,-35.933,15555.664,-11648.140,-13514.977
1512177669,-20.200,-12.800,-236.000,-100340.000,24050.000,976930.000,-28000.000,-405000.000,3000.000,56.421,-71.392,-167.677,-182.716,-28.548,-19.747,15407.761,-11198.357,-13363.503
1512177669,-17.300,8.700,-236.400,-137270.000,-5800.000,1013310.000,-28000.000,-405000.000,3000.000,92.361,-110.770,-216.335,-196.883,11.404,25.559,15335.571,-10598.473,-13137.581
1512177669,-9.200,12.900,-235.800,-76600.000,15320.000,1035340.000,-28000.000,-405000.000,3000.000,75.064,-149.146,-267.888,-191.660,32.810,72.914,15109.695,-10748.817,-13510.735
1512177669,-5.700,9.100,-233.300,-136290.000,-16780.000,1015440.000,-42000.000,-401000.000,-3000.000,-4.625,-166.328,-285.094,-179.790,20.803,100.316,15110.382,-10598.808,-13510.674
1512177669,9.300,24.500,-228.200,-171810.000,23380.000,961120.000,-42000.000,-401000.000,-3000.000,-147.633,-140.931,-274.285,-192.363,-6.663,78.694,14811.462,-10374.260,-13358.025
1512177669,15.600,10.000,-224.100,-132870.000,41630.000,965390.000,-42000.000,-401000.000,-3000.000,-275.282,-96.232,-288.771,-198.965,-19.763,19.513,15036.682,-10298.927,-13584.892
1512177669,8.000,1.100,-223.400,-176330.000,20940.000,952580.000,-42000.000,-401000.000,-3000.000,-265.421,-77.898,-368.518,-174.613,1.392,-40.272,15188.416,-9923.698,-13510.994
1512177669,-16.800,8.900,-226.400,-215940.000,23320.000,1003360.000,-42000.000,-401000.000,-3000.000,-159.386,-72.341,-398.947,-105.862,32.519,-37.328,15265.411,-9473.579,-13586.418
1512177669,-10.000,20.800,-230.200,-157650.000,-16420.000,980220.000,-43000.000,-407000.000,-5000.000,-32.451,-167.452,-278.572,-41.811,52.741,14.917,15266.304,-9248.581,-13811.318
1512177669,3.200,17.600,-232.600,-93630.000,-46390.000,985840.000,-43000.000,-407000.000,-5000.000,30.886,-147.327,-142.728,-93.743,2.302,42.900,14554.924,-8987.144,-13917.640
1512177669,6.500,17.000,-230.500,-149540.000,32470.000,996280.000,-43000.000,-407000.000,-5000.000,5.263,-70.404,-168.950,-136.614,15.779,65.037,14519.561,-8537.194,-13692.123
1512177669,3.500,4.300,-227.400,-132080.000,-49620.000,1034420.000,-43000.000,-407000.000,-5000.000,-67.778,-46.420,-198.707,-171.422,3.112,75.274,14633.736,-8162.026,-13730.408
1512177669,24.200,10.400,-224.500,-176030.000,3300.000,940250.000,-43000.000,-407000.000,-5000.000,-143.168,-30.888,-281.301,-154.954,-0.657,28.176,14407.997,-8312.370,-13841.065
1512177669,16.500,0.500,-213.500,-208370.000,-11230.000,957030.000,-50000.000,-414000.000,-1000.000,-54.947,-61.286,-234.286,-117.993,18.147,17.038,14598.221,-7712.082,-13804.870
1512177669,25.700,-1.900,-206.300,-104060.000,29360.000,1056520.000,-50000.000,-414000.000,-1000.000,-61.935,-80.659,-167.294,-135.172,-17.403,-3.963,14485.649,-7712.250,-13953.918
1512177669,27.300,-4.700,-200.700,-132870.000,42540.000,980770.000,-50000.000,-414000.000,-1000.000,-91.018,-36.820,-211.805,-115.358,-6.795,-38.833,14896.698,-8011.635,-14145.058
1512177669,20.000,-20.900,-203.100,-110410.000,10990.000,1001040.000,-50000.000,-414000.000,-1000.000,-34.445,-66.694,-184.970,-57.822,4.576,-61.585,15012.665,-7223.953,-14295.647
1512177669,22.600,-22.400,-202.000,-134090.000,41810.000,990970.000,-59000.000,-394000.000,-3000.000,64.743,-74.141,-123.326,-85.299,-9.575,-59.522,14860.626,-7674.195,-14332.085
1512177669,20.000,-6.100,-198.100,-82700.000,36320.000,1011230.000,-59000.000,-394000.000,-3000.000,44.503,-137.657,-159.553,-137.809,13.624,-18.544,14900.619,-7111.626,-14407.142
1512177669,21.800,-13.000,-198.000,-126160.000,50350.000,968200.000,-59000.000,-394000.000,-3000.000,92.866,-171.058,-250.119,-143.988,37.813,46.651,14637.520,-7224.518,-14592.461
1512177670,10.300,-31.600,-192.900,-103820.000,27040.000,1067200.000,-59000.000,-394000.000,-3000.000,-4.573,-111.976,-220.941,-131.457,-38.055,88.995,14752.396,-6699.348,-14555.672
1512177670,14.900,-31.400,-194.100,-94300.000,34480.000,942500.000,-59000.000,-394000.000,-3000.000,-129.443,-90.820,-210.948,-148.403,-61.606,39.140,14750.076,-7224.358,-14480.919
1512177670,11.200,-6.900,-186.800,-132570.000,15810.000,982120.000,-75000.000,-410000.000,1000.000,-180.208,-26.766,-232.784,-149.281,-22.515,-33.869,14603.226,-6549.568,-14254.326
1512177670,10.900,4.300,-185.100,-140080.000,18430.000,934140.000,-75000.000,-410000.000,1000.000,-69.877,-67.120,-266.504,-108.935,37.335,-55.665,15052.505,-6698.906,-14333.229
1512177670,2.300,9.500,-184.800,-94300.000,25820.000,991270.000,-75000.000,-410000.000,1000.000,59.064,-136.357,-267.010,-54.342,64.919,-7.108,14978.119,-6549.004,-14482.521
1512177670,8.800,16.600,-182.800,-69580.000,-3850.000,979060.000,-75000.000,-410000.000,1000.000,108.085,-223.997,-205.841,-40.904,41.770,39.458,15053.116,-6548.897,-14483.162
1512177670,1.500,0.900,-181.400,-71170.000,50960.000,1000430.000,-75000.000,-410000.000,1000.000,102.429,-261.428,-187.930,-79.487,20.548,53.074,14829.010,-6324.242,-14706.139
1512177670,11.100,-0.700,-169.400,-124690.000,60850.000,988650.000,-65000.000,-421000.000,-11000.000,44.097,-195.263,-203.472,-115.794,7.578,65.859,14452.957,-6549.797,-14778.053
1512177670,22.100,1.600,-164.200,-147280.000,19780.000,1056520.000,-65000.000,-421000.000,-11000.000,-31.213,-140.851,-222.491,-122.947,3.379,63.347,14605.331,-6024.574,-14779.091
1512177670,4.900,-8.100,-159.100,-179630.000,73910.000,1008000.000,-65000.000,-421000.000,-11000.000,-74.646,-119.529,-239.041,-127.337,-6.441,39.532,14754.990,-6099.342,-14780.388
1512177670,-4.300,1.700,-158.700,-101620.000,19170.000,1015440.000,-65000.000,-421000.000,-11000.000,-78.693,-101.347,-250.761,-122.463,-14.680,3.387,14755.173,-6024.345,-15080.360
1512177670,-3.500,-14.900,-151.000,-144230.000,29910.000,999270.000,-68000.000,-417000.000,1000.000,-62.325,-113.025,-274.016,-114.049,-13.601,-23.405,14605.484,-5949.577,-15154.045
1512177670,0.500,-5.100,-147.900,-129760.000,83860.000,878110.000,-68000.000,-417000.000,1000.000,-48.567,-123.697,-268.524,-97.072,9.554,-43.773,14532.425,-5499.687,-15303.200
1512177670,-24.600,-19.000,-146.600,-86490.000,37600.000,1056210.000,-68000.000,-417000.000,1000.000,62.325,-207.909,-274.676,-73.113,22.821,-39.727,14830.811,-5874.229,-15155.922
1512177670,-21.200,-28.100,-139.900,-107790.000,71960.000,996580.000,-68000.000,-417000.000,1000.000,152.816,-293.359,-206.500,-41.057,36.327,5.586,14831.757,-5649.223,-15305.824
1512177670,-37.600,-40.200,-133.400,-93080.000,41020.000,1099000.000,-68000.000,-417000.000,1000.000,203.023,-337.192,-150.491,-44.558,23.205,52.808,14982.727,-5424.004,-15381.996
1512177670,-10.300,-29.000,-128.500,-89900.000,49990.000,1037290.000,-80000.000,-419000.000,-6000.000,177.113,-289.205,-128.312,-64.420,1.399,89.082,14606.262,-5724.571,-15603.951
1512177670,5.200,-28.800,-122.000,-87040.000,17940.000,868040.000,-80000.000,-419000.000,-6000.000,70.541,-153.711,-122.985,-88.245,-36.524,100.522,14603.500,-6324.577,-15754.234
1512177670,34.800,-59.900,-129.000,-120000.000,146910.000,1053410.000,-80000.000,-419000.000,-6000.000,-77.483,22.314,-124.519,-112.615,-68.594,59.616,14905.518,-5874.123,-15756.569
1512177670,-0.900,-51.100,-89.700,-77880.000,-22640.000,954830.000,-80000.000,-419000.000,-6000.000,-203.878,153.553,-146.148,-114.169,-74.410,-29.719,14832.657,-5424.232,-15530.724
1512177670,-5.900,-39.100,-101.500,-19590.000,95640.000,973510.000,-80000.000,-419000.000,-6000.000,-199.083,133.331,-179.196,-89.176,-33.580,-102.398,15059.082,-5123.894,-15382.500
1512177670,-20.600,-13.200,-104.700,5980.000,-2380.000,1024480.000,-79000.000,-424000.000,-11000.000,-43.275,-53.332,-198.912,-49.982,32.857,-126.396,15057.693,-5423.897,-15457.634
1512177670,-10.700,9.600,-110.400,61280.000,31130.000,955510.000,-79000.000,-424000.000,-11000.000,154.799,-236.764,-194.547,-37.288,50.946,-90.352,14981.979,-5574.013,-15532.066
1512177670,-44.200,-61.000,-81.000,80510.000,-8180.000,1102970.000,-79000.000,-424000.000,-11000.000,261.923,-375.524,-168.962,-65.867,29.513,-12.152,14607.574,-5424.568,-15678.810
1512177670,-31.700,7.500,-30.800,48580.000,-44190.000,1113220.000,-79000.000,-424000.000,-11000.000,240.628,-401.186,-171.490,-114.308,-1.178,54.825,14533.936,-5124.672,-15678.032
1512177670,-32.900,44.300,-72.200,-26250.000,27100.000,964360.000,-84000.000,-437000.000,-10000.000,119.664,-325.466,-201.762,-172.070,-38.592,92.473,14458.176,-5274.788,-15827.461
1512177670,-17.200,13.000,-81.600,-41080.000,-50290.000,929380.000,-84000.000,-437000.000,-10000.000,-54.916,-140.796,-272.943,-223.286,-52.415,85.735,14310.524,-4750.008,-15863.449
1512177670,-25.400,-30.100,-58.500,13180.000,31250.000,1060790.000,-84000.000,-437000.000,-10000.000,-176.500,-62.288,-362.379,-162.650,-4.880,70.529,14496.842,-5012.230,-15865.158
1512177670,-21.600,-0.100,-35.800,47420.000,52310.000,937500.000,-84000.000,-437000.000,-10000.000,-183.212,-92.308,-312.477,-90.210,-8.354,-10.974,14835.953,-4636.726,-16017.853
1512177670,-7.700,32.400,-33.000,-29910.000,56400.000,905880.000,-84000.000,-437000.000,-10000.000,-35.913,-79.501,-194.099,-58.769,-17.738,-34.364,14686.440,-4524.444,-16054.032
1512177670,-11.600,38.700,-29.800,32900.000,69090.000,1090640.000,-82000.000,-403000.000,-11000.000,14.279,-106.714,-168.415,-53.866,13.141,-12.693,14762.978,-4186.836,-16017.006
1512177670,-25.000,53.800,-26.000,21420.000,56640.000,1022770.000,-82000.000,-403000.000,-11000.000,60.790,-158.429,-179.114,-25.971,35.895,48.678,14687.027,-4336.952,-16578.942
1512177670,-28.600,29.200,-16.500,30580.000,33750.000,1034420.000,-82000.000,-403000.000,-11000.000,37.931,-92.898,-115.254,-82.236,-20.691,57.207,14876.450,-3924.163,-16430.343
1512177670,-30.500,30.600,-8.100,-21550.000,37660.000,1044560.000,-82000.000,-403000.000,-11000.000,-56.511,16.962,-103.981,-116.251,-39.281,25.448,14576.469,-3924.614,-16390.289
1512177670,-21.600,33.400,-0.100,-31430.000,22640.000,1052490.000,-82000.000,-403000.000,-11000.000,-38.718,-27.784,-150.784,-97.308,18.731,-17.791,14953.293,-3511.543,-16468.292
1512177670,-20.900,27.000,12.300,-2080.000,20200.000,970890.000,-84000.000,-412000.000,-3000.000,-15.134,-55.375,-224.630,-65.070,41.194,-2.256,14766.541,-3324.325,-16654.099
1512177670,-26.100,21.700,22.200,23620.000,38510.000,961670.000,-84000.000,-412000.000,-3000.000,37.570,-73.457,-221.263,-50.255,20.979,31.633,15030.434,-3023.934,-16581.199
1512177670,-19.200,10.400,31.300,27770.000,36010.000,992370.000,-84000.000,-412000.000,-3000.000,27.410,-89.158,-123.389,-110.767,-74.034,48.925,15066.879,-3211.380,-16994.103
1512177671,-12.300,8.100,37.300,-3910.000,37350.000,979490.000,-84000.000,-412000.000,-3000.000,-94.840,71.381,-104.347,-170.227,-57.029,-8.577,14842.148,-3174.217,-16804.680
1512177671,-9.700,-2.000,38.100,28260.000,1590.000,1004940.000,-96000.000,-410000.000,1000.000,-115.270,130.201,-155.609,-133.588,14.405,-33.372,15143.677,-2798.759,-17107.048
1512177671,-27.300,-39.800,47.500,-53650.000,33080.000,912600.000,-96000.000,-410000.000,1000.000,-51.670,95.137,-199.583,-73.043,64.722,-9.663,15068.008,-2948.875,-17106.483
1512177671,-37.700,-41.300,57.000,-37480.000,-30880.000,1074160.000,-96000.000,-410000.000,1000.000,0.587,-0.909,-205.556,-5.977,84.186,29.739,15219.391,-2648.643,-17032.616
1512177671,-28.500,7.700,73.800,11470.000,140870.000,931700.000,-96000.000,-410000.000,1000.000,-2.401,-58.695,-156.763,13.895,64.227,41.716,15067.886,-2948.875,-17331.490
1512177671,-12.100,29.400,59.300,-4390.000,-48400.000,1105290.000,-96000.000,-410000.000,1000.000,24.069,-49.191,-80.656,-14.142,-5.217,24.603,15068.909,-2723.869,-17331.383
1512177671,4.900,31.700,52.300,-41560.000,103330.000,884400.000,-84000.000,-401000.000,-10000.000,20.884,-57.739,-81.798,-88.846,-69.857,-9.698,15069.427,-2573.875,-17631.310
1512177671,-29.700,-19.200,73.900,-7390.000,11720.000,918270.000,-84000.000,-401000.000,-10000.000,-5.715,-9.580,-147.045,-143.719,-75.365,-36.099,15069.809,-2498.878,-17556.282
1512177671,6.400,26.100,76.400,-10740.000,43760.000,1016600.000,-84000.000,-401000.000,-10000.000,31.964,-0.809,-233.887,-124.396,-29.161,-16.527,14846.085,-2199.211,-17704.216
1512177671,-3.100,31.300,86.700,19350.000,96620.000,903440.000,-84000.000,-401000.000,-10000.000,54.416,-56.305,-240.149,-67.621,22.552,35.557,14922.424,-1899.101,-17704.720
1512177671,8.100,27.800,83.100,-31680.000,-33510.000,1002010.000,-84000.000,-401000.000,-10000.000,82.036,-180.305,-176.219,-22.473,37.061,76.114,14845.627,-2274.208,-17929.253
1512177671,-1.500,-32.000,94.000,-10620.000,82150.000,924010.000,-70000.000,-405000.000,-10000.000,79.809,-347.070,-113.934,-11.672,36.187,104.727,14921.936,-1974.098,-18004.753
1512177671,1.600,-32.500,107.900,-5130.000,-14590.000,979130.000,-70000.000,-405000.000,-10000.000,-48.088,-323.890,-49.610,-70.399,6.931,74.515,14997.879,-1748.985,-18155.281
1512177671,8.700,0.800,119.000,20940.000,77700.000,987980.000,-70000.000,-405000.000,-10000.000,-173.529,-160.624,-63.654,-178.885,0.397,-0.246,14621.613,-2049.538,-18002.235
1512177671,-4.000,0.700,116.200,45590.000,31490.000,998960.000,-70000.000,-405000.000,-10000.000,-164.791,25.396,-131.104,-233.789,20.316,-66.135,15147.537,-1823.753,-18156.593
1512177671,7.200,2.100,127.300,24660.000,-43520.000,994930.000,-84000.000,-405000.000,-3000.000,-51.445,19.455,-281.931,-146.227,43.626,-24.516,15523.636,-1598.198,-18009.682
1512177671,5.900,5.200,109.300,58900.000,58110.000,968020.000,-84000.000,-405000.000,-3000.000,-116.376,-37.241,-290.531,-10.690,60.548,24.051,15529.938,-473.183,-15534.172
1512177671,3.100,-5.200,111.100,58530.000,-20690.000,1009160.000,-84000.000,-405000.000,-3000.000,-109.039,-191.179,-225.931,42.189,79.862,-3.289,15904.037,-622.627,-15987.419
1512177671,4.000,7.700,119.400,47300.000,27650.000,1037350.000,-84000.000,-405000.000,-3000.000,22.691,-254.181,-136.827,53.698,65.701,-25.859,15603.699,-623.070,-16659.874
1512177671,7.200,34.600,122.200,62440.000,61650.000,1030270.000,-84000.000,-405000.000,-3000.000,60.580,-209.448,-40.176,48.655,12.679,-15.081,15529.404,-473.183,-16584.160
1512177671,-9.900,39.700,132.200,116580.000,37170.000,1024410.000,-68000.000,-410000.000,1000.000,-39.473,-101.830,20.582,20.809,-32.199,-41.542,15829.666,-397.728,-16736.687
1512177671,-3.900,47.900,141.400,107300.000,7140.000,1066710.000,-68000.000,-410000.000,1000.000,-60.025,-85.749,-25.502,-29.322,-27.697,-97.463,15755.051,-322.838,-16661.003
1512177671,-22.400,30.500,153.000,90450.000,71590.000,1002690.000,-68000.000,-410000.000,1000.000,12.909,-89.730,-117.206,-47.084,7.914,-111.742,15380.234,-248.405,-16957.787
1512177671,-29.200,-9.500,161.100,105100.000,310.000,957400.000,-68000.000,-410000.000,1000.000,136.158,-77.712,-155.888,-57.871,80.330,-35.945,15529.678,-398.186,-16734.138
1512177671,-24.600,-14.900,167.400,32780.000,39250.000,979490.000,-86000.000,-410000.000,1000.000,115.855,-102.314,-154.135,-53.710,80.445,43.155,15605.576,-173.073,-16959.663
1512177671,-12.900,-14.400,176.200,14530.000,45040.000,959110.000,-86000.000,-410000.000,1000.000,79.395,-172.895,-145.317,-55.205,52.170,64.933,15530.014,-323.189,-16734.093
1512177671,-2.700,7.300,172.600,72690.000,26250.000,1084900.000,-86000.000,-410000.000,1000.000,-1.092,-144.841,-79.224,-86.672,4.830,48.671,15305.397,-211.021,-16957.138
1512177671,-8.800,-1.700,177.200,-23250.000,33630.000,899170.000,-86000.000,-410000.000,1000.000,-44.700,-63.590,-145.667,-142.656,51.576,-26.042,15607.070,164.436,-16997.009
1512177671,-7.100,-22.000,178.800,-23680.000,16050.000,995360.000,-86000.000,-410000.000,1000.000,-44.936,-36.788,-194.616,-48.151,51.106,3.549,15458.473,501.709,-17220.581
1512177671,-10.800,-28.400,180.600,10990.000,21610.000,961240.000,-73000.000,-391000.000,-6000.000,-67.935,-80.219,-127.406,7.834,33.534,-47.267,15571.899,726.875,-17408.935
1512177671,-9.100,-15.200,180.200,9950.000,25700.000,986020.000,-73000.000,-391000.000,-6000.000,18.854,-158.602,-125.354,-21.283,60.782,-108.838,15760.581,989.669,-17410.400
1512177671,10.800,11.300,180.700,28200.000,10500.000,1034730.000,-73000.000,-391000.000,-6000.000,239.812,-200.292,-209.182,36.693,62.994,86.000,15460.785,1064.217,-17670.311
1512177671,9.300,-2.100,185.600,83130.000,32290.000,951170.000,-73000.000,-391000.000,-6000.000,-136.839,13.459,-17.208,-44.506,-35.933,49.525,15386.871,1326.600,-17857.056
1512177671,7.600,-5.200,194.500,41990.000,25150.000,954650.000,-73000.000,-391000.000,-6000.000,-170.884,175.704,19.110,-78.769,14.441,-97.313,15651.657,1814.499,-17671.562
1512177671,2.800,-9.100,199.600,89970.000,5250.000,971070.000,-66000.000,-405000.000,-10000.000,29.093,82.156,-55.607,46.755,67.818,-70.581,15688.293,1627.060,-17709.465
1512177671,3.900,-19.300,209.600,103090.000,39610.000,956420.000,-66000.000,-405000.000,-10000.000,-81.291,-30.705,-58.667,107.624,95.847,-112.146,16063.934,1777.626,-17787.583
1512177671,0.700,-4.400,210.900,97470.000,-1650.000,1059450.000,-66000.000,-405000.000,-10000.000,66.591,-76.849,-107.322,182.041,93.517,-74.259,15876.472,1814.835,-18048.470
1512177671,2.300,5.900,215.600,106080.000,54140.000,1028750.000,-66000.000,-405000.000,-10000.000,145.589,-178.036,74.698,109.169,48.242,-35.407,15388.741,1776.611,-18156.845
1512177672,3.700,-11.900,221.200,62870.000,22160.000,988340.000,-61000.000,-407000.000,-1000.000,162.355,-97.464,129.060,-4.228,51.737,-51.742,14711.716,1325.584,-18151.314
1512177672,7.900,-13.400,222.000,115910.000,1950.000,1045230.000,-61000.000,-407000.000,-1000.000,189.327,21.172,114.937,-3.898,24.550,5.837,14863.739,1775.810,-18152.382
1512177672,10.900,-7.600,228.100,69030.000,25270.000,979980.000,-61000.000,-407000.000,-1000.000,89.643,55.004,213.819,-20.991,-7.946,28.878,15088.745,1776.161,-18154.289
1512177672,7.300,16.000,228.600,91920.000,32100.000,1014830.000,-61000.000,-407000.000,-1000.000,-32.240,11.117,169.262,-84.534,3.425,-23.043,14488.068,1625.252,-18149.254
1512177672,17.200,32.900,231.000,71350.000,32350.000,1099550.000,-61000.000,-407000.000,-1000.000,-96.484,167.306,-0.632,-58.636,47.325,-58.113,14862.396,1475.822,-18152.519
1512177672,24.600,26.400,236.000,77330.000,46450.000,1031800.000,-57000.000,-389000.000,5000.000,-167.789,208.993,-70.815,41.862,69.827,-66.630,14938.034,1625.923,-18228.096
1512177672,27.000,16.200,241.800,135860.000,3660.000,995850.000,-57000.000,-389000.000,5000.000,-204.345,120.377,-120.690,71.393,109.491,-130.881,14712.387,1475.594,-18151.237
1512177672,29.200,12.700,242.100,90450.000,30520.000,930850.000,-57000.000,-389000.000,5000.000,-25.438,33.171,-178.101,118.560,124.407,-144.192,15087.769,1551.155,-18079.399
1512177672,26.400,25.200,237.700,37410.000,-23070.000,1019960.000,-57000.000,-389000.000,5000.000,127.135,-88.472,-127.276,167.747,112.392,-79.521,15086.945,1401.146,-18379.478
1512177672,26.200,12.300,245.900,31860.000,-5740.000,1026000.000,-57000.000,-389000.000,5000.000,196.397,-202.913,-1.943,147.565,88.941,-28.463,14936.569,1325.935,-18453.224
1512177672,34.500,5.500,250.500,64210.000,-6230.000,952820.000,-49000.000,-394000.000,-10000.000,253.649,-261.731,79.706,88.079,62.851,7.137,14784.576,875.694,-18377.159
1512177672,27.300,1.900,256.100,42110.000,21360.000,1016480.000,-49000.000,-394000.000,-10000.000,199.157,-135.926,157.173,27.557,33.652,39.098,14484.879,950.249,-18449.577
1512177672,19.200,-9.200,254.700,81600.000,5980.000,948300.000,-49000.000,-394000.000,-10000.000,38.405,25.141,152.209,-39.987,10.751,31.281,14408.371,650.139,-18749.077
1512177672,26.500,-7.100,251.800,38510.000,37410.000,998470.000,-49000.000,-394000.000,-10000.000,-85.732,131.960,56.969,-68.693,3.285,-0.368,14633.163,575.478,-18526.024
1512177672,14.200,-23.700,258.600,18920.000,15870.000,1062930.000,-29000.000,-396000.000,1000.000,-142.366,110.750,-65.457,-63.929,58.360,-57.522,14632.477,425.468,-18526.085
1512177672,5.200,-39.800,260.600,-9400.000,18620.000,1033810.000,-29000.000,-396000.000,1000.000,-34.088,114.448,-231.246,8.484,128.437,-66.400,14554.962,-99.648,-18825.691
1512177672,10.900,-24.000,267.200,-20940.000,14470.000,1062440.000,-29000.000,-396000.000,1000.000,64.637,170.091,-202.970,131.779,98.326,22.689,14631.805,275.475,-18526.161
1512177672,17.800,-17.700,272.000,-17940.000,26980.000,1056880.000,-29000.000,-396000.000,1000.000,-76.452,96.687,74.037,151.995,33.465,22.604,14480.499,-24.757,-18450.020
1512177672,31.000,-4.100,276.300,71470.000,-3540.000,942500.000,-29000.000,-396000.000,1000.000,-144.830,19.410,209.235,24.822,30.392,-114.025,14406.769,275.139,-18599.251
1512177672,18.000,-11.200,281.900,91000.000,32650.000,982730.000,-29000.000,-389000.000,-1000.000,95.924,-6.817,153.999,-27.078,11.599,-145.977,14556.549,200.356,-18375.557
1512177672,12.500,-39.100,291.600,120120.000,8180.000,991210.000,-29000.000,-389000.000,-1000.000,141.597,-79.146,30.744,-8.368,65.014,-86.469,14555.161,-99.648,-18450.691
1512177672,22.800,-59.400,298.100,154600.000,44070.000,1054750.000,-29000.000,-389000.000,-1000.000,133.246,-1.037,-40.530,84.493,57.142,9.547,14405.457,-24.864,-18524.391
1512177672,19.800,-16.800,299.500,148190.000,9520.000,934690.000,-29000.000,-389000.000,-1000.000,-67.752,-94.211,-74.683,154.170,78.577,32.694,14628.281,-474.541,-18826.515
1512177672,2.300,-18.500,283.200,156130.000,7630.000,893430.000,-29000.000,-389000.000,-1000.000,-226.301,-23.927,-89.530,193.425,78.107,-17.419,14554.291,-249.641,-18825.768
1512177672,12.700,-25.000,299.500,99120.000,16110.000,943300.000,-29000.000,-396000.000,-22000.000,-277.423,-30.406,-92.424,181.539,94.613,-101.278,14703.247,-474.419,-18902.138
1512177672,11.700,-35.000,298.800,94790.000,25090.000,1031800.000,-29000.000,-396000.000,-22000.000,-90.611,83.004,-37.084,154.651,85.916,-123.743,14704.819,-174.416,-18452.003
1512177672,14.500,-32.100,300.800,96680.000,27470.000,1080380.000,-29000.000,-396000.000,-22000.000,166.618,45.667,136.016,94.326,82.010,-40.673,14438.346,-924.820,-19650.116
1512177672,1.500,-29.400,299.700,64090.000,34120.000,1036130.000,-29000.000,-396000.000,-22000.000,48.302,43.222,199.322,70.853,64.195,47.054,14474.610,-1187.272,-19763.054
1512177672,-7.600,-50.700,297.100,186460.000,51210.000,981380.000,-17000.000,-384000.000,13000.000,-39.598,56.445,197.028,27.272,57.081,-45.348,14437.255,-1187.325,-19462.738
1512177672,-16.900,-59.100,298.800,163880.000,2750.000,937260.000,-17000.000,-384000.000,13000.000,-17.331,34.506,235.653,-38.686,-7.295,-98.880,14436.615,-1374.824,-19050.324
1512177672,-30.200,-55.100,285.500,141170.000,-4700.000,937560.000,-17000.000,-384000.000,13000.000,-51.340,98.656,-90.831,-13.952,67.076,-93.224,14247.650,-1675.102,-19273.880
1512177672,-6.100,2.400,286.600,117310.000,-26790.000,1014770.000,-17000.000,-384000.000,13000.000,-83.612,42.496,-76.037,166.210,113.534,-18.251,14508.880,-1937.211,-19463.722
1512177672,5.600,3.700,285.100,148990.000,23620.000,985470.000,-17000.000,-384000.000,13000.000,-175.510,120.582,70.554,222.649,59.056,-71.534,15070.854,-2048.874,-19506.057
1512177672,-9.900,-10.500,286.200,180110.000,-6040.000,1055180.000,-3000.000,-394000.000,-16000.000,-45.953,266.725,269.092,147.964,33.067,-173.600,14960.511,-1636.543,-18904.915
1512177672,-0.400,12.100,288.600,176150.000,23740.000,1006900.000,-3000.000,-394000.000,-16000.000,195.727,150.576,315.368,55.503,103.450,-124.140,15069.595,-2423.874,-18643.738
1512177672,-15.400,-6.500,284.700,141480.000,-6840.000,992610.000,-3000.000,-394000.000,-16000.000,249.113,-18.372,172.701,91.553,116.789,12.752,14730.041,-2874.382,-18716.072
1512177672,-12.500,-4.500,293.300,144350.000,52310.000,1003910.000,-3000.000,-394000.000,-16000.000,29.793,-3.658,123.199,76.441,43.688,24.561,14429.734,-2949.829,-18638.557
1512177672,-2.000,-5.100,309.600,135620.000,-22280.000,1042240.000,-1000.000,-403000.000,-5000.000,9.971,133.551,136.183,-18.937,41.051,-47.374,14316.689,-3099.998,-18375.168
1512177673,-2.700,-2.700,300.900,162110.000,2930.000,900820.000,-1000.000,-403000.000,-5000.000,31.159,167.339,81.172,18.757,72.277,-4.656,14393.265,-2799.889,-17925.667
1512177673,-9.500,-29.600,301.700,129760.000,17270.000,851680.000,-1000.000,-403000.000,-5000.000,-36.833,122.406,65.107,68.345,102.200,2.776,14392.593,-2949.898,-17925.743
1512177673,12.900,-64.700,298.800,169130.000,-34850.000,1051880.000,-1000.000,-403000.000,-5000.000,-64.032,62.618,31.460,124.841,104.296,-12.238,14392.593,-2949.898,-17925.743
1512177673,23.300,-66.400,295.300,203370.000,6960.000,876340.000,-1000.000,-403000.000,-5000.000,-36.798,-14.307,56.103,153.904,101.358,-21.888,14542.221,-3024.666,-18002.052
1512177673,31.700,2.900,306.500,151120.000,32710.000,957580.000,7000.000,-384000.000,-6000.000,41.218,-11.086,109.483,153.760,90.245,-29.065,14541.809,-3099.663,-18152.077
1512177673,24.900,25.000,306.900,119570.000,49440.000,1052550.000,7000.000,-384000.000,-6000.000,83.947,64.695,172.195,140.498,50.219,-9.292,14616.577,-3174.553,-17927.757
1512177673,11.700,31.000,301.300,108400.000,25020.000,1083980.000,7000.000,-384000.000,-6000.000,-3.924,171.318,205.409,117.636,20.200,-10.881,14615.265,-3474.556,-17852.898
1512177673,1.100,8.000,314.700,131590.000,60300.000,1080260.000,7000.000,-384000.000,-6000.000,-111.345,252.355,193.471,95.585,54.694,-51.757,14616.913,-3099.556,-17927.727
1512177673,-10.400,-2.900,326.000,47850.000,68660.000,1060120.000,7000.000,-384000.000,-6000.000,-55.372,259.982,161.261,110.640,102.128,-79.005,14767.746,-2949.333,-17628.929
1512177673,16.600,0.400,345.400,146730.000,97290.000,1051390.000,19000.000,-403000.000,-28000.000,20.393,235.543,155.879,155.688,124.481,-53.620,14690.750,-3399.437,-17553.505
1512177673,-20.400,15.400,332.000,154170.000,38880.000,1105770.000,19000.000,-403000.000,-28000.000,40.327,200.159,238.130,186.879,88.269,-27.703,14689.697,-3624.443,-17628.609
1512177673,1.300,-1.300,344.100,141970.000,96860.000,976070.000,19000.000,-403000.000,-28000.000,-7.947,158.268,319.373,151.794,53.529,-53.735,14614.853,-3624.550,-17327.965
1512177673,10.000,-28.400,352.300,89540.000,71410.000,1049740.000,19000.000,-403000.000,-28000.000,-10.104,236.235,324.945,106.597,16.043,-96.580,14465.012,-3624.779,-17026.695
1512177673,1.700,-46.600,351.000,75560.000,60240.000,1069760.000,19000.000,-393000.000,-42000.000,-12.704,236.295,287.591,81.259,33.387,-119.113,14466.354,-3324.776,-17026.558
1512177673,-3.100,-52.200,356.600,97600.000,120120.000,984920.000,19000.000,-393000.000,-42000.000,34.978,223.646,240.266,79.134,66.593,-112.772,14840.302,-3549.217,-17104.851
1512177673,6.900,-34.100,366.700,30270.000,29720.000,1076600.000,19000.000,-393000.000,-42000.000,62.300,140.457,195.598,112.324,106.137,-80.069,14612.564,-4149.559,-17178.215
1512177673,26.000,-32.400,361.800,178410.000,130130.000,1019650.000,19000.000,-393000.000,-42000.000,82.002,58.305,160.418,136.831,102.101,-36.687,14462.265,-4224.785,-17101.982
1512177673,-3.700,-53.300,375.800,182430.000,40950.000,961610.000,19000.000,-393000.000,-42000.000,47.882,25.138,158.740,134.987,82.683,-18.614,14387.375,-4224.892,-16876.335
1512177673,34.200,5.200,380.600,162230.000,156860.000,1077210.000,17000.000,-391000.000,-27000.000,28.141,52.813,193.731,125.310,53.555,-17.843,14385.910,-4524.895,-17101.479
1512177673,17.300,24.100,400.900,75620.000,29910.000,900150.000,17000.000,-391000.000,-27000.000,-17.320,128.497,239.177,118.042,24.040,-23.690,14613.693,-3924.553,-16953.102
1512177673,56.700,60.900,429.300,70620.000,72450.000,947330.000,17000.000,-391000.000,-27000.000,-82.530,182.852,253.348,123.385,32.778,-43.800,14011.032,-4525.459,-16873.283
1512177673,13.400,-28.000,367.500,284550.000,53470.000,981930.000,17000.000,-391000.000,-27000.000,-107.620,222.387,224.335,124.965,54.393,-81.987,14385.696,-4599.892,-16876.518
1512177673,10.000,-40.600,392.400,384460.000,205510.000,1027280.000,17000.000,-391000.000,-27000.000,-103.416,222.515,163.632,141.749,95.249,-109.584,14385.345,-4674.904,-16876.549
1512177673,-14.600,-20.100,376.800,367740.000,151860.000,1079100.000,0.000,-419000.000,-98000.000,15.893,176.763,167.336,180.950,118.430,-89.056,14385.208,-4749.901,-16501.579
1512177673,-21.700,-4.400,413.200,189760.000,155400.000,1059510.000,0.000,-419000.000,-98000.000,97.163,65.103,242.745,172.177,78.059,-23.958,14425.026,-4224.838,-16576.653
1512177673,-20.400,0.800,427.800,203490.000,153690.000,1006530.000,0.000,-419000.000,-98000.000,94.118,41.557,265.008,57.911,53.695,13.582,14085.747,-4637.848,-16423.973
1512177673,-12.900,13.600,432.600,227110.000,126530.000,990780.000,0.000,-419000.000,-98000.000,-7.414,173.475,190.439,-8.389,52.081,21.999,14047.295,-4900.405,-15973.785
1512177673,-40.900,-3.200,440.500,279050.000,133540.000,946350.000,29000.000,-438000.000,-93000.000,-109.332,220.492,102.242,44.242,55.055,-12.883,14159.042,-5087.739,-15787.323
1512177673,-55.800,-36.500,444.200,305540.000,114500.000,1044190.000,29000.000,-438000.000,-93000.000,-124.474,239.198,83.964,118.940,26.638,-90.841,14309.433,-5012.512,-15676.071
1512177673,-10.400,44.600,448.300,224370.000,130550.000,1032170.000,29000.000,-438000.000,-93000.000,59.148,62.549,156.369,162.391,56.238,-83.726,14685.012,-4899.452,-15529.206
1512177673,-22.000,25.200,448.100,236390.000,128230.000,1127690.000,29000.000,-438000.000,-93000.000,146.445,-10.688,257.056,136.966,61.796,10.859,14421.226,-5162.346,-15752.098
1512177673,-11.300,64.200,447.800,141360.000,140320.000,1105470.000,29000.000,-438000.000,-93000.000,-33.383,155.166,244.901,84.915,50.867,42.233,14194.497,-5575.188,-15487.869
1512177673,-33.000,77.500,444.500,176940.000,130250.000,1000550.000,28000.000,-419000.000,-98000.000,-212.766,358.519,174.780,137.332,39.659,-33.223,14907.516,-5461.617,-15456.375
1512177673,-22.900,49.400,441.400,114500.000,147090.000,994750.000,28000.000,-419000.000,-98000.000,-79.571,219.799,203.944,219.422,69.992,-94.986,15131.004,-5798.782,-15458.443
1512177673,-24.200,47.300,451.300,224120.000,136660.000,917600.000,28000.000,-419000.000,-98000.000,84.951,193.072,343.224,226.463,62.443,-54.325,15092.606,-6023.835,-15233.223
1512177673,-29.600,52.600,457.500,199280.000,124210.000,934080.000,28000.000,-419000.000,-98000.000,46.896,289.054,393.111,114.033,23.069,-58.750,15129.501,-6173.782,-15083.618
1512177673,-18.100,48.500,458.700,195920.000,118350.000,881900.000,17000.000,-416000.000,-101000.000,62.303,335.661,333.797,53.568,29.875,-52.014,15053.413,-6473.892,-14558.121
1512177674,2.700,36.400,457.900,86850.000,153560.000,1083980.000,17000.000,-416000.000,-101000.000,-48.386,372.891,323.791,56.324,25.691,-25.543,14978.195,-6549.004,-14332.512
1512177674,-22.100,37.300,465.900,257260.000,89720.000,1013180.000,17000.000,-416000.000,-101000.000,-141.172,427.350,265.073,31.426,14.689,-117.384,15050.110,-7223.900,-14408.470
1512177674,-26.900,16.800,474.800,250920.000,141660.000,987300.000,17000.000,-416000.000,-101000.000,-65.698,387.106,146.626,52.407,86.511,-145.632,15503.601,-6473.228,-14186.943
1512177674,-8.100,26.800,480.700,229980.000,97900.000,930480.000,17000.000,-416000.000,-101000.000,132.082,292.419,108.655,122.169,111.390,-60.816,15651.276,-6997.993,-14113.457
1512177674,49.100,25.200,480.600,209660.000,151730.000,931460.000,45000.000,-405000.000,-94000.000,198.781,67.098,125.895,157.336,95.373,16.999,15427.261,-6773.338,-14186.440
1512177674,24.500,24.900,479.100,155400.000,155330.000,1001280.000,45000.000,-405000.000,-94000.000,190.573,-3.502,167.104,146.211,68.355,55.267,15276.123,-6998.558,-14410.271
1512177674,-19.400,24.500,484.000,315000.000,91430.000,852600.000,45000.000,-405000.000,-94000.000,110.423,185.154,317.982,141.299,-8.446,85.216,15349.884,-7298.454,-14186.043
1512177674,-7.200,49.100,495.500,237120.000,157780.000,989990.000,45000.000,-405000.000,-94000.000,-102.026,304.293,407.000,117.370,-18.556,17.178,15573.502,-7598.122,-14263.100
1512177674,-3.200,76.800,497.500,200200.000,115480.000,1009700.000,45000.000,-405000.000,-94000.000,-175.602,476.264,351.094,109.122,56.053,-88.641,15648.163,-7673.012,-14263.771
1512177674,17.300,63.400,494.500,142090.000,164180.000,1081420.000,38000.000,-391000.000,-121000.000,-48.724,504.359,286.935,159.454,93.673,-108.325,15571.289,-8123.131,-13963.356
1512177674,21.200,58.900,498.400,114870.000,120850.000,956600.000,38000.000,-391000.000,-121000.000,53.762,497.056,277.734,175.483,93.545,-80.252,15418.518,-8723.351,-14112.343
1512177674,37.000,46.600,506.900,146790.000,163020.000,954960.000,38000.000,-391000.000,-121000.000,115.345,421.285,289.023,202.442,51.749,-57.995,15719.269,-8572.899,-13964.836
1512177674,29.400,27.600,512.400,122740.000,110840.000,1030030.000,38000.000,-391000.000,-121000.000,151.345,241.872,295.317,194.164,40.990,-62.935,15947.754,-7822.548,-13741.402
1512177674,35.200,33.800,499.700,197630.000,98750.000,954160.000,38000.000,-391000.000,-121000.000,211.446,242.952,335.636,167.900,35.018,-45.384,15721.039,-8197.899,-13814.659
1512177674,56.500,39.500,495.300,95890.000,155400.000,1011050.000,56000.000,-391000.000,-94000.000,253.754,37.905,346.197,132.241,83.747,-17.427,15493.698,-8723.244,-13737.999
1512177674,72.000,49.300,487.900,132690.000,74710.000,965450.000,56000.000,-391000.000,-94000.000,360.085,-65.444,293.009,117.360,124.810,56.534,15418.289,-8798.347,-13887.398
1512177674,60.200,53.300,490.800,121580.000,129090.000,957580.000,56000.000,-391000.000,-94000.000,345.511,-216.025,264.557,138.870,114.018,152.139,15116.333,-9248.802,-13735.054
1512177674,61.700,35.200,483.800,98570.000,104060.000,980410.000,56000.000,-391000.000,-94000.000,157.944,-390.403,252.705,86.311,89.284,169.609,14741.638,-9174.370,-13806.816
1512177674,36.400,67.200,493.200,104920.000,117430.000,1056640.000,66000.000,-370000.000,-88000.000,-88.384,-290.392,261.208,-14.859,75.036,103.147,14668.030,-8874.474,-13731.056
1512177674,-2.700,107.300,494.300,61890.000,104920.000,1082340.000,66000.000,-370000.000,-88000.000,-183.883,6.575,184.102,-95.359,68.362,18.464,14594.604,-8799.583,-11255.394
1512177674,1.200,119.300,493.000,17820.000,125790.000,1026670.000,66000.000,-370000.000,-88000.000,-136.674,251.538,49.186,-45.911,19.158,28.249,14594.376,-8799.583,-11705.391
1512177674,-36.500,107.300,505.500,125850.000,89840.000,996580.000,66000.000,-370000.000,-88000.000,-250.171,415.787,86.488,58.237,-25.975,45.796,14744.934,-8649.361,-11931.587
1512177674,-92.100,144.600,512.100,78490.000,114380.000,1115840.000,66000.000,-370000.000,-88000.000,-382.326,420.797,148.551,123.503,-49.730,-38.536,15116.272,-9473.808,-11860.161
1512177674,-34.500,100.000,506.300,80630.000,157170.000,1094120.000,75000.000,-364000.000,-96000.000,-458.422,314.894,168.403,154.298,-5.597,-174.234,15567.322,-9248.131,-11788.872
1512177674,20.200,94.000,500.900,37480.000,179690.000,1093380.000,75000.000,-364000.000,-96000.000,-427.549,281.953,104.772,173.824,98.553,-289.502,15944.382,-8797.569,-11716.850
1512177674,40.900,127.800,497.500,41440.000,166560.000,995540.000,75000.000,-364000.000,-96000.000,-228.614,324.246,-61.701,275.250,166.850,-315.706,16167.175,-9322.227,-11419.014
1512177674,46.200,66.800,500.800,116520.000,154540.000,941350.000,75000.000,-364000.000,-96000.000,25.413,307.454,-16.503,386.628,184.950,-193.706,16617.661,-9171.547,-11797.768
1512177674,-8.000,99.700,506.900,114930.000,146730.000,998470.000,75000.000,-364000.000,-96000.000,128.689,102.011,240.133,406.243,142.463,-118.787,16541.229,-9471.672,-11947.273
1512177674,20.200,94.300,534.400,72140.000,104310.000,1037660.000,73000.000,-342000.000,-88000.000,260.972,-61.771,517.054,172.042,81.782,-109.993,16616.646,-9434.051,-11460.396
1512177674,7.600,78.400,510.800,25450.000,168150.000,999210.000,73000.000,-342000.000,-88000.000,178.004,143.863,451.539,-67.657,56.176,-94.127,16238.495,-10147.118,-11345.024
1512177674,-30.500,78.400,504.000,1530.000,169680.000,1025020.000,73000.000,-342000.000,-88000.000,-64.528,209.820,132.170,13.777,129.745,-37.945,16123.818,-10634.788,-11306.801
1512177674,-74.300,95.600,513.700,43330.000,103820.000,994750.000,73000.000,-342000.000,-88000.000,-107.426,93.365,109.823,139.950,127.014,-101.175,16535.667,-10784.180,-11272.880
1512177674,33.600,33.400,501.900,51760.000,72450.000,942990.000,77000.000,-324000.000,-91000.000,88.729,-15.410,168.786,182.018,156.513,-86.621,17059.654,-11008.392,-11277.435
1512177674,72.700,5.300,498.000,85140.000,113770.000,856320.000,77000.000,-324000.000,-91000.000,101.767,-11.408,315.572,209.124,164.832,-6.864,17282.479,-11458.054,-11579.567
1512177674,21.600,25.200,506.700,77820.000,96560.000,989380.000,77000.000,-324000.000,-91000.000,-20.407,212.158,333.235,194.124,174.580,-1.306,17618.721,-11720.047,-11732.551
1512177674,-7.700,34.600,516.400,97290.000,96250.000,1039180.000,77000.000,-324000.000,-91000.000,-218.517,447.928,334.384,215.566,130.343,-138.364,18030.289,-11981.926,-11248.680
1512177674,38.200,49.000,514.300,69210.000,113100.000,956730.000,77000.000,-324000.000,-91000.000,-64.620,346.205,305.877,254.032,216.744,-223.469,18330.093,-12056.488,-10951.263
1512177674,41.500,29.700,508.900,62810.000,75930.000,1003050.000,80000.000,-296000.000,-71000.000,336.384,79.902,509.048,188.148,223.411,-137.304,18064.286,-12806.877,-10836.876
1512177674,28.800,60.700,506.100,55660.000,73910.000,976070.000,80000.000,-296000.000,-71000.000,230.899,69.534,537.332,80.408,126.486,-70.627,17874.527,-13332.168,-10610.527
1512177675,-10.700,74.200,517.700,-19230.000,16170.000,1149660.000,80000.000,-296000.000,-71000.000,11.709,279.983,360.587,53.132,145.473,-105.321,17947.784,-13744.560,-10386.360
1512177675,17.600,59.000,514.800,10380.000,76170.000,978210.000,80000.000,-296000.000,-71000.000,-75.986,397.563,254.187,124.596,176.053,-119.507,17573.837,-13520.119,-10308.067
1512177675,39.700,75.400,510.100,-34360.000,34480.000,1011720.000,80000.000,-296000.000,-71000.000,-62.589,307.806,277.521,198.844,186.985,-136.132,17572.266,-13895.119,-10083.244
1512177675,44.700,75.100,503.600,-27830.000,128480.000,1030640.000,80000.000,-292000.000,-77000.000,7.341,166.744,361.196,199.862,221.020,-155.123,17495.575,-14270.241,-10082.771
1512177675,31.200,75.200,518.800,-54570.000,72020.000,1051330.000,80000.000,-292000.000,-77000.000,143.553,139.148,373.730,187.710,223.953,-138.932,17870.758,-14269.676,-9710.960
1512177675,16.100,58.300,523.300,8910.000,88560.000,1062010.000,80000.000,-292000.000,-77000.000,224.209,116.807,396.148,203.931,186.536,-82.238,17945.419,-14344.566,-9711.632
1512177675,32.600,41.800,516.300,76420.000,28380.000,976990.000,80000.000,-292000.000,-77000.000,142.669,99.399,490.849,182.089,147.430,-68.915,17794.754,-14494.789,-9710.426
1512177675,90.800,17.600,509.900,99730.000,81050.000,923890.000,86000.000,-269000.000,-66000.000,68.078,106.769,489.796,129.474,138.346,-135.306,17718.063,-14869.911,-9709.969
1512177675,69.000,33.300,496.500,66770.000,103330.000,1003480.000,86000.000,-269000.000,-66000.000,89.539,256.476,423.464,116.971,161.893,-151.699,17718.094,-14869.911,-9634.972
1512177675,49.800,63.800,490.800,14950.000,79160.000,970950.000,86000.000,-269000.000,-66000.000,92.792,294.943,422.581,158.634,178.196,-129.361,17491.104,-15320.244,-9558.266
1512177675,40.200,41.900,514.900,21060.000,112370.000,999270.000,86000.000,-269000.000,-66000.000,107.476,215.764,497.139,158.975,189.103,-119.080,17188.110,-15995.705,-9481.026
1512177675,-36.100,57.100,532.000,38880.000,58780.000,1028200.000,86000.000,-269000.000,-66000.000,186.448,182.786,490.707,126.093,179.539,-103.015,17116.302,-15320.808,-9180.077
1512177675,-24.000,-2.100,531.600,-19840.000,114990.000,1035580.000,79000.000,-248000.000,-59000.000,124.636,141.038,487.535,104.281,164.024,-87.866,17489.304,-15770.241,-9108.467
1512177675,-8.300,-62.700,494.900,-52000.000,129210.000,1038510.000,79000.000,-248000.000,-59000.000,65.187,152.726,472.855,39.346,181.511,-117.668,17112.442,-16220.818,-8805.489
1512177675,-81.800,-62.500,522.200,-36070.000,86120.000,1086670.000,79000.000,-248000.000,-59000.000,105.542,247.017,357.567,51.800,184.629,-108.883,16811.752,-16371.269,-8803.017
1512177675,-143.300,-65.500,486.400,-62320.000,116760.000,1112430.000,79000.000,-248000.000,-59000.000,64.258,267.283,341.049,108.637,177.464,-62.561,16961.044,-16521.034,-8879.356
1512177675,-130.100,-126.400,487.800,-95460.000,82150.000,1077450.000,79000.000,-248000.000,-59000.000,-26.196,238.202,395.075,136.402,150.237,-65.131,17110.413,-16670.815,-8805.702
1512177675,-117.600,-155.900,495.500,-93200.000,53770.000,1088500.000,96000.000,-230000.000,-28000.000,-97.530,227.421,388.673,120.154,173.181,-122.648,17034.058,-16970.924,-8805.199
1512177675,-99.100,-146.500,489.500,-42600.000,54380.000,987850.000,96000.000,-230000.000,-28000.000,-51.791,237.219,330.736,140.875,197.336,-151.205,16736.191,-16521.370,-8577.446
1512177675,-106.100,-175.200,494.100,47550.000,32410.000,1005250.000,96000.000,-230000.000,-28000.000,66.193,271.408,417.848,175.309,200.158,-124.582,17257.446,-17345.589,-8657.295
1512177675,-83.800,-161.500,490.300,149050.000,-5430.000,898620.000,96000.000,-230000.000,-28000.000,132.628,223.356,459.152,160.166,197.874,-87.694,17257.217,-17420.601,-8432.320
1512177675,-44.600,-118.200,486.700,125370.000,-8970.000,992740.000,130000.000,-225000.000,-33000.000,126.187,223.343,462.258,137.636,220.757,-45.018,16953.995,-18096.046,-8805.077
1512177675,-19.400,-71.200,494.800,96070.000,4760.000,1003360.000,130000.000,-225000.000,-33000.000,91.537,293.720,498.248,154.900,191.537,-8.296,16955.536,-17796.043,-8429.955
1512177675,-6.800,-68.300,498.700,142400.000,-39980.000,947570.000,130000.000,-225000.000,-33000.000,-52.928,291.297,531.326,139.526,152.657,-37.389,16803.650,-18246.269,-8128.883
1512177675,19.000,-43.300,468.200,111270.000,-27530.000,1025700.000,130000.000,-225000.000,-33000.000,-100.775,355.389,494.610,123.709,193.907,-125.482,16653.259,-18321.495,-8240.150
1512177675,5.600,-3.500,484.200,129880.000,75440.000,1134030.000,130000.000,-225000.000,-33000.000,56.365,283.524,497.704,173.660,223.601,-104.968,16353.577,-18284.447,-7937.577
1512177675,3.600,60.900,490.000,127750.000,80140.000,1084590.000,91000.000,-239000.000,-47000.000,99.899,142.983,565.538,118.201,179.210,-94.511,16238.190,-18959.618,-7636.933
1512177675,-8.800,83.100,464.500,197140.000,98210.000,1171390.000,91000.000,-239000.000,-47000.000,82.774,206.502,572.974,34.660,118.887,-91.289,15561.425,-19373.139,-7443.886
1512177675,-34.000,82.800,461.300,120850.000,88130.000,1160950.000,91000.000,-239000.000,-47000.000,3.216,287.794,455.905,39.656,151.933,-96.404,14959.648,-19824.043,-6951.492
1512177675,-61.800,97.200,462.700,122800.000,65670.000,1049380.000,91000.000,-239000.000,-47000.000,-67.643,283.481,421.281,122.304,163.747,-100.163,14996.803,-19861.488,-7289.338
1512177675,-82.800,122.600,451.100,143920.000,56520.000,1002990.000,94000.000,-218000.000,-37000.000,-34.801,243.920,463.728,103.210,161.595,-135.358,14582.390,-20312.103,-7061.028
1512177675,-88.600,139.200,455.500,92350.000,240.000,954960.000,94000.000,-218000.000,-37000.000,99.805,222.672,510.380,74.607,171.727,-102.352,14131.813,-20462.784,-6869.782
1512177675,-77.900,151.000,455.400,39730.000,4150.000,917720.000,94000.000,-218000.000,-37000.000,18.982,255.750,468.282,77.651,176.853,-71.692,13754.089,-21100.845,-6566.895
1512177675,-49.000,117.200,470.600,-41560.000,10070.000,925540.000,94000.000,-218000.000,-37000.000,-40.365,299.960,480.899,110.876,166.547,-76.503,13452.568,-21438.797,-6564.499
1512177675,-54.600,98.700,448.200,19590.000,7630.000,887210.000,94000.000,-218000.000,-37000.000,-19.792,280.144,525.370,80.405,168.679,-130.416,12815.369,-21402.260,-6296.562
1512177675,-83.100,75.800,441.200,67570.000,16480.000,807370.000,100000.000,-188000.000,-35000.000,54.597,249.254,538.067,65.587,175.233,-112.241,12214.149,-21703.156,-6029.106
1512177675,-67.100,75.500,479.100,-82090.000,-79040.000,873660.000,100000.000,-188000.000,-35000.000,69.378,183.636,511.402,51.136,172.591,-103.782,11498.200,-22491.737,-5835.914
1512177676,-88.300,86.300,465.700,-14160.000,-45780.000,928100.000,100000.000,-188000.000,-35000.000,136.931,165.694,454.753,29.742,184.117,-90.497,11010.941,-22454.964,-5681.755
1512177676,-74.800,59.000,446.300,37110.000,-59020.000,956240.000,100000.000,-188000.000,-35000.000,133.229,155.070,419.479,50.431,168.482,-43.464,10636.993,-22230.522,-5603.462
1512177676,-66.000,56.900,431.600,-63660.000,-60610.000,1026730.000,100000.000,-188000.000,-35000.000,65.027,138.949,417.370,45.698,150.935,-29.182,10110.672,-22531.319,-5524.132
1512177676,-71.000,39.000,455.300,138670.000,-88870.000,1050780.000,107000.000,-181000.000,-28000.000,54.359,143.199,417.227,29.808,153.595,-42.073,10784.409,-22830.299,-5380.013
1512177676,-74.000,32.800,452.200,100040.000,-46450.000,952760.000,107000.000,-181000.000,-28000.000,88.772,204.043,466.977,46.345,137.981,-24.081,9960.342,-22606.544,-5522.896
1512177676,-67.500,16.200,457.500,18310.000,-71170.000,944400.000,107000.000,-181000.000,-28000.000,40.098,182.525,508.841,45.146,127.353,-27.571,10032.150,-23206.429,-6498.802
1512177676,-60.500,12.100,457.300,4330.000,-58350.000,1080320.000,107000.000,-181000.000,-28000.000,65.649,182.688,446.314,63.324,109.767,-22.811,9579.971,-23657.112,-6795.189
1512177676,-67.100,11.300,465.800,-430.000,-47670.000,1065490.000,105000.000,-169000.000,-47000.000,32.684,120.698,438.158,107.574,119.403,-11.482,9504.944,-23657.219,-6869.545
1512177676,-60.900,29.800,468.800,-850.000,-34060.000,996830.000,105000.000,-169000.000,-47000.000,26.602,118.464,483.904,132.688,111.310,-24.782,9129.929,-23657.784,-6866.356
1512177676,-59.800,-6.500,475.200,-28440.000,-14220.000,994570.000,105000.000,-169000.000,-47000.000,2.862,164.324,503.977,138.614,96.418,-57.879,9205.505,-23582.664,-6416.969
1512177676,-67.000,-5.100,479.100,26430.000,-100100.000,915770.000,105000.000,-169000.000,-47000.000,11.148,194.208,519.121,121.116,75.111,-90.257,8453.171,-24108.803,-6335.838
1512177676,-77.500,-21.700,473.800,4150.000,-73550.000,999690.000,105000.000,-169000.000,-47000.000,94.998,173.063,476.557,61.950,44.412,-96.059,8304.779,-23734.016,-6484.383
1512177676,-91.100,-37.300,480.600,74950.000,-65120.000,1021670.000,114000.000,-149000.000,-45000.000,114.856,224.311,502.606,25.349,56.240,-63.893,8005.798,-23509.468,-6481.728
1512177676,-66.400,-23.400,473.600,41080.000,-84840.000,1008610.000,114000.000,-149000.000,-45000.000,130.994,236.103,494.353,27.364,86.010,-24.680,7852.081,-24334.709,-6480.843
1512177676,-71.200,-23.300,469.500,14890.000,-65310.000,938660.000,114000.000,-149000.000,-45000.000,71.003,226.488,446.542,75.736,116.023,6.336,7402.496,-24260.384,-6326.988
1512177676,-70.400,-28.000,475.600,-2380.000,-103030.000,1017640.000,114000.000,-149000.000,-45000.000,2.229,256.354,416.868,121.422,101.161,10.526,7024.979,-24785.942,-6624.031
1512177676,-66.300,-31.000,474.800,-6900.000,-87220.000,958070.000,114000.000,-149000.000,-45000.000,-60.155,185.696,446.632,137.979,85.647,-37.850,7026.443,-24485.939,-6398.903
1512177676,-48.600,-12.500,477.800,-94360.000,-108640.000,1010930.000,112000.000,-141000.000,-44000.000,-21.930,209.241,457.933,105.710,95.604,-91.204,6652.527,-24261.497,-6245.613
1512177676,-62.200,-8.800,481.600,-71840.000,-46140.000,1045650.000,112000.000,-141000.000,-44000.000,131.011,233.969,493.280,89.698,82.083,-67.565,6651.215,-24561.501,-6170.753
1512177676,-65.000,-23.600,488.800,-12510.000,-78610.000,998230.000,112000.000,-141000.000,-44000.000,124.340,200.688,573.023,53.117,89.142,-23.183,6426.071,-24561.836,-6468.834
1512177676,-52.300,-36.800,487.100,31370.000,-58350.000,1026430.000,112000.000,-141000.000,-44000.000,83.604,200.603,587.360,13.009,77.733,-18.534,5972.244,-25462.517,-6015.419
1512177676,-33.000,-55.100,496.800,31920.000,-60180.000,953060.000,105000.000,-133000.000,-40000.000,43.563,208.198,494.056,-0.071,68.574,-26.184,5599.564,-24938.087,-6086.998
1512177676,-27.400,-77.500,497.100,40770.000,-50960.000,951600.000,105000.000,-133000.000,-40000.000,-45.573,264.844,406.609,38.822,82.451,-28.922,5224.899,-24863.640,-6083.778
1512177676,0.500,-81.600,504.900,-98510.000,-38020.000,979550.000,105000.000,-133000.000,-40000.000,-48.696,248.834,402.248,92.207,74.685,-48.377,5527.298,-24338.188,-6011.086
1512177676,17.000,-106.000,518.000,-68240.000,-88750.000,1206300.000,105000.000,-133000.000,-40000.000,-6.499,193.301,426.117,108.130,68.644,-77.035,4923.508,-25164.085,-6156.364
1512177676,11.200,-131.700,522.600,146240.000,-47550.000,1109620.000,105000.000,-133000.000,-40000.000,65.093,184.759,480.429,93.132,62.463,-81.657,4773.819,-25089.317,-6230.049
1512177676,41.300,-112.100,493.000,83980.000,-43150.000,1117800.000,96000.000,-121000.000,-49000.000,66.343,301.014,572.000,3.166,31.022,-96.941,3947.960,-25315.559,-5885.650
1512177676,78.800,-74.000,472.600,121830.000,-14100.000,1125370.000,96000.000,-121000.000,-49000.000,-25.126,484.738,503.084,-67.527,17.936,-140.137,3501.099,-24641.228,-5694.008
1512177676,120.200,-24.800,451.100,146970.000,-10250.000,1164000.000,96000.000,-121000.000,-49000.000,-10.588,501.180,300.800,-94.061,63.464,-176.541,3236.740,-25091.629,-5354.485
1512177676,143.900,2.700,439.800,64330.000,12270.000,1082030.000,96000.000,-121000.000,-49000.000,74.782,333.888,158.605,-73.865,64.073,-152.475,3273.430,-25279.076,-5279.892
1512177676,140.900,43.700,428.200,142270.000,-38760.000,991150.000,93000.000,-114000.000,-59000.000,163.275,151.505,84.093,-109.744,58.831,-102.944,3197.830,-25429.192,-5129.325
1512177676,112.100,39.800,428.000,116520.000,-5980.000,978150.000,93000.000,-114000.000,-59000.000,263.670,52.346,67.612,-105.876,67.985,0.476,3159.500,-25616.737,-5091.591
1512177676,108.700,24.400,429.300,117740.000,5680.000,966000.000,93000.000,-114000.000,-59000.000,130.247,2.992,75.636,-47.328,29.454,110.354,3833.740,-25803.230,-4947.418
1512177676,104.300,67.900,429.300,34480.000,-14530.000,1024290.000,93000.000,-114000.000,-59000.000,-153.067,92.437,-0.116,103.340,43.255,118.701,4207.504,-26027.664,-5400.711
1512177676,79.500,64.400,438.100,96860.000,-38760.000,890500.000,93000.000,-114000.000,-59000.000,-174.768,143.713,251.336,229.817,55.046,62.026,5066.803,-26663.872,-6083.321
1512177676,49.500,62.600,444.100,92710.000,-56210.000,868470.000,70000.000,-102000.000,-47000.000,-67.763,345.947,431.089,282.447,36.230,33.786,5293.770,-26213.539,-6197.540
1512177676,34.600,48.300,451.400,93440.000,-54690.000,924070.000,70000.000,-102000.000,-47000.000,-228.809,765.137,617.843,294.770,-28.723,-77.730,5441.780,-26663.322,-6124.016
1512177676,6.000,24.000,462.700,116760.000,-70310.000,930790.000,70000.000,-102000.000,-47000.000,-220.312,1171.708,833.659,243.297,39.335,-215.827,4655.311,-26476.998,-5742.233
1512177677,-2.500,43.700,452.300,57560.000,-37170.000,946110.000,70000.000,-102000.000,-47000.000,-70.656,1104.315,999.766,176.635,134.156,-257.463,3944.458,-26140.572,-5473.518
1512177677,-1.100,54.200,451.300,-20020.000,-92100.000,1042480.000,70000.000,-102000.000,-47000.000,112.557,847.034,1060.156,133.543,208.970,-279.277,3193.176,-26441.689,-5317.284
1512177677,-13.000,65.000,429.400,-1710.000,-98630.000,977660.000,61000.000,-93000.000,-22000.000,423.731,563.381,1053.016,99.670,269.386,-228.622,2292.053,-26743.050,-4859.795
1512177677,-30.000,40.900,426.800,44620.000,-92220.000,913880.000,61000.000,-93000.000,-22000.000,639.624,373.533,1075.742,77.083,240.891,-125.871,1617.874,-26594.063,-4553.978
1512177677,-23.000,37.400,422.600,44370.000,-82340.000,1002440.000,61000.000,-93000.000,-22000.000,630.998,174.966,1006.695,40.154,184.177,-42.494,643.097,-26595.512,-4095.695
1512177677,-11.900,39.000,420.200,-47910.000,-96800.000,1036250.000,61000.000,-93000.000,-22000.000,540.856,102.384,910.259,0.072,147.312,11.483,43.213,-26596.413,-3865.593
1512177677,-6.900,33.800,420.400,-73000.000,-61340.000,1094480.000,70000.000,-81000.000,-47000.000,435.988,-18.259,799.585,-46.229,121.348,23.938,-782.578,-26822.655,-3408.684
1512177677,-11.500,29.400,423.800,-32530.000,-105770.000,1003850.000,70000.000,-81000.000,-47000.000,359.760,-83.343,699.107,-86.517,95.274,10.015,-1532.578,-26823.784,-3402.306
1512177677,-12.500,13.400,427.000,-18430.000,-85630.000,957820.000,70000.000,-81000.000,-47000.000,348.318,-117.385,614.600,-95.979,62.304,-4.511,-2206.909,-26674.782,-3396.507
1512177677,-12.500,9.300,429.000,-17880.000,-96190.000,988650.000,70000.000,-81000.000,-47000.000,410.355,-235.687,533.007,-79.361,58.229,3.490,-2660.172,-27425.468,-3168.022
1512177677,-10.700,2.100,429.200,30640.000,-102780.000,1014710.000,70000.000,-81000.000,-47000.000,466.810,-300.636,467.501,-51.141,47.219,48.550,-2581.421,-26675.346,-2418.327
1512177677,-2.900,-2.700,425.600,79040.000,-128050.000,975460.000,63000.000,-66000.000,-47000.000,436.609,-346.531,421.060,-24.157,30.572,90.180,-2957.169,-26825.920,-2565.208
1512177677,2.000,11.900,423.700,56460.000,-123600.000,1016720.000,63000.000,-66000.000,-47000.000,368.813,-323.080,396.709,-26.528,-1.199,96.762,-3707.397,-26902.046,-2333.870
1512177677,10.800,20.000,417.100,57310.000,-135380.000,969600.000,63000.000,-66000.000,-47000.000,270.275,-246.257,363.566,-49.577,-25.341,76.957,-3406.906,-26826.591,-2036.385
1512177677,2.400,19.700,419.400,25150.000,-89840.000,1006100.000,63000.000,-66000.000,-47000.000,212.431,-112.736,322.684,-63.379,-66.530,65.584,-3706.314,-26677.040,-2183.769
1512177677,14.200,16.100,417.300,12210.000,-108950.000,1041140.000,63000.000,-66000.000,-47000.000,108.641,22.833,287.536,-72.298,-66.252,50.309,-3858.154,-27127.266,-1807.701
1512177677,27.800,33.400,414.700,-69700.000,-85390.000,976560.000,56000.000,-56000.000,-50000.000,45.012,150.010,209.236,-39.914,-56.941,29.000,-3858.826,-27277.275,-1807.762
1512177677,25.800,33.600,406.900,2440.000,-113710.000,1038880.000,56000.000,-56000.000,-50000.000,-40.132,214.108,138.931,11.663,-11.586,2.820,-3857.590,-26977.272,-2032.631
1512177677,15.300,25.800,406.000,-11410.000,-114620.000,1036190.000,56000.000,-56000.000,-50000.000,-75.390,247.286,80.969,75.223,28.220,-10.865,-3708.603,-27202.049,-2034.004
1512177677,19.800,18.800,407.500,-49380.000,-98940.000,1026000.000,56000.000,-56000.000,-50000.000,-104.663,238.764,45.335,145.353,54.886,-19.954,-3482.956,-27051.704,-2110.847
1512177677,19.600,11.700,402.500,-14040.000,-135130.000,940060.000,38000.000,-59000.000,-50000.000,-105.149,251.528,76.292,191.105,60.988,-33.406,-3559.006,-27276.817,-2185.310
1512177677,16.600,-5.600,397.600,9950.000,-91610.000,969910.000,38000.000,-59000.000,-50000.000,-74.882,268.452,180.193,212.700,38.407,-49.386,-3631.271,-26676.918,-2109.398
1512177677,7.100,-20.400,406.500,18070.000,-151860.000,1054500.000,38000.000,-59000.000,-50000.000,1.002,222.413,296.270,184.770,33.963,-79.896,-3484.055,-27276.711,-2260.948
1512177677,27.400,3.300,382.800,-91370.000,-86550.000,1038390.000,38000.000,-59000.000,-50000.000,174.834,199.993,419.169,132.101,33.343,-64.807,-3484.009,-27276.711,-2185.951
1512177677,1.600,-11.600,385.900,-60420.000,-82950.000,1012570.000,38000.000,-59000.000,-50000.000,265.195,239.496,501.639,77.288,24.225,-18.717,-3858.185,-27127.266,-1882.698
1512177677,7.100,-6.900,381.100,-27650.000,-140260.000,1011900.000,28000.000,-42000.000,-50000.000,267.018,270.438,522.028,35.833,23.741,21.315,-4083.557,-27202.599,-1955.818
1512177677,-5.300,-22.900,376.600,48890.000,-99980.000,938720.000,28000.000,-42000.000,-50000.000,171.078,336.106,460.101,30.988,20.597,63.705,-5095.780,-27166.626,-1722.198
1512177677,-12.900,-4.700,368.600,41630.000,-141050.000,1054260.000,28000.000,-42000.000,-50000.000,-15.279,415.548,387.318,42.530,-0.619,0.175,-5432.274,-26979.630,-1381.745
1512177677,6.100,14.500,369.100,27040.000,-120420.000,957090.000,28000.000,-42000.000,-50000.000,70.890,348.962,362.214,71.862,18.105,-67.677,-5508.583,-27242.241,-1643.723
1512177677,2.800,25.400,361.100,24600.000,-143860.000,958130.000,5000.000,-40000.000,-62000.000,181.049,180.950,332.845,62.421,26.832,-20.212,-5656.540,-26829.971,-1267.273
1512177677,6.400,16.900,367.100,-1890.000,-132390.000,1034910.000,5000.000,-40000.000,-62000.000,166.662,122.777,296.718,32.383,28.133,21.948,-5994.530,-26942.971,-1226.944
1512177677,21.400,29.000,360.500,-31800.000,-105470.000,1040160.000,5000.000,-40000.000,-62000.000,28.299,278.474,323.508,31.975,-8.824,17.307,-6294.700,-26980.919,-1224.418
1512177677,15.400,30.600,360.200,-46260.000,-107060.000,1002930.000,5000.000,-40000.000,-62000.000,-28.039,433.689,386.130,33.080,-10.264,-75.937,-6444.550,-26943.649,-1260.620
1512177677,16.100,36.200,350.200,-23500.000,-93810.000,981380.000,5000.000,-40000.000,-62000.000,34.811,410.879,355.512,60.282,44.935,-86.519,-6819.024,-26794.205,-1557.365
1512177677,6.900,30.800,348.300,-26550.000,-140320.000,980530.000,33000.000,-33000.000,-35000.000,66.828,319.674,316.748,78.977,53.516,-20.871,-7080.490,-26569.596,-1517.524
1512177677,14.200,39.000,344.300,-44130.000,-121220.000,981080.000,33000.000,-33000.000,-35000.000,-162.990,516.718,428.172,-13.316,-63.492,-80.281,-7266.174,-26194.878,-1253.265
1512177677,10.900,39.900,338.200,-50600.000,-98750.000,1005000.000,33000.000,-33000.000,-35000.000,-153.572,550.229,505.181,-73.102,-55.410,-178.224,-7752.365,-25895.607,-1323.983
1512177677,18.600,43.000,333.700,-48100.000,-108950.000,966060.000,33000.000,-33000.000,-35000.000,-6.584,317.786,404.693,4.705,38.740,-114.693,-8351.280,-25596.512,-1843.742
1512177678,5.600,39.900,330.500,-48220.000,-100220.000,1013730.000,33000.000,-33000.000,-35000.000,-103.565,237.318,237.236,121.051,50.355,-12.797,-8050.507,-25408.562,-1996.208
1512177678,11.500,43.300,326.600,-41320.000,-127870.000,990840.000,17000.000,-31000.000,-54000.000,-271.396,212.569,199.540,185.006,65.198,-5.454,-8126.297,-25558.662,-2220.634
1512177678,13.200,42.700,328.400,-68050.000,-110720.000,1002260.000,17000.000,-31000.000,-54000.000,-265.996,178.278,258.131,207.752,74.398,-37.547,-8426.071,-25484.123,-2443.062
1512177678,4.500,37.000,324.400,-8540.000,-137760.000,1020750.000,17000.000,-31000.000,-54000.000,-167.119,191.087,339.563,193.546,87.215,-51.311,-8349.426,-25109.001,-2518.517
1512177678,1.300,26.900,326.100,-4330.000,-135860.000,971980.000,17000.000,-31000.000,-54000.000,-26.533,247.769,415.356,177.441,94.695,-27.559,-8800.171,-25259.682,-2664.757
1512177678,-8.400,26.200,323.000,27890.000,-84960.000,1008670.000,0.000,-10000.000,-50000.000,31.656,353.415,511.443,166.049,100.152,11.687,-9398.788,-24960.579,-2584.526
1512177678,-4.700,18.500,318.600,20630.000,-126770.000,1011720.000,0.000,-10000.000,-50000.000,17.579,440.824,593.630,162.127,103.304,37.681,-9622.894,-24735.924,-2807.503
1512177678,19.400,44.500,316.500,-25940.000,-132020.000,1035460.000,0.000,-10000.000,-50000.000,11.125,438.544,661.757,141.274,120.661,29.620,-10146.240,-24361.702,-2877.876
1512177678,4.900,28.000,314.800,-13790.000,-107850.000,1011600.000,0.000,-10000.000,-50000.000,60.332,415.011,714.623,110.579,143.418,9.558,-10594.894,-24062.370,-2873.909
1512177678,10.000,12.900,318.200,-21120.000,-117680.000,1039000.000,0.000,-10000.000,-50000.000,155.987,404.444,731.964,81.811,136.987,6.069,-11116.028,-23238.152,-2569.069
1512177678,15.000,1.900,315.300,4210.000,-100400.000,983640.000,7000.000,-21000.000,-37000.000,188.069,341.485,722.615,47.398,109.544,14.635,-11715.652,-23164.055,-2488.930
1512177678,6.000,-3.100,311.700,-28320.000,-114870.000,955690.000,7000.000,-21000.000,-37000.000,187.223,229.363,704.091,15.398,72.648,-1.184,-12165.955,-23239.723,-2410.149
1512177678,6.400,18.600,303.100,-17520.000,-148860.000,951660.000,7000.000,-21000.000,-37000.000,216.030,102.432,631.573,-24.793,56.950,-23.025,-12615.997,-23240.395,-2481.316
1512177678,-2.800,21.800,281.800,-49320.000,-81910.000,1011960.000,7000.000,-21000.000,-37000.000,272.816,41.800,546.901,-36.506,35.145,-15.821,-13138.412,-22716.194,-2026.619
1512177678,6.000,20.200,298.700,0.000,-204040.000,1028140.000,7000.000,-21000.000,-37000.000,266.186,-45.569,427.101,-17.531,24.627,13.043,-13588.043,-22641.869,-1947.746
1512177678,11.200,35.200,294.900,-17330.000,-141970.000,1025150.000,1000.000,-15000.000,-49000.000,277.987,-81.726,356.789,4.297,5.696,60.252,-13812.469,-22567.192,-1495.811
1512177678,-3.700,17.600,290.700,2990.000,-159480.000,990660.000,1000.000,-15000.000,-49000.000,192.240,-121.306,318.096,8.139,-21.056,78.665,-13886.505,-22342.308,-1570.061
1512177678,11.900,21.800,288.000,-6710.000,-151120.000,1022160.000,1000.000,-15000.000,-49000.000,88.191,-35.966,296.630,-8.914,-55.085,69.092,-14112.518,-22567.650,-1568.260
1512177678,12.900,35.200,285.600,-15440.000,-124210.000,1009950.000,1000.000,-15000.000,-49000.000,-18.633,142.346,254.128,-22.011,-79.025,37.671,-14412.857,-22643.105,-1565.742
1512177678,12.700,29.000,284.200,-19350.000,-161990.000,1046690.000,1000.000,-15000.000,-49000.000,-74.368,300.432,215.493,-2.480,-78.286,9.126,-14335.419,-22117.989,-1416.130
1512177678,22.000,22.100,282.700,-64510.000,-143190.000,997740.000,-14000.000,-3000.000,-60000.000,-99.711,392.275,204.782,38.923,-46.704,-8.281,-14409.134,-21818.092,-1565.361
1512177678,10.900,16.800,279.600,-53040.000,-131840.000,987550.000,-14000.000,-3000.000,-60000.000,-101.600,377.351,189.780,76.753,-12.303,-8.127,-14709.885,-21968.544,-1712.883
1512177678,7.200,23.600,272.200,-79590.000,-141660.000,993230.000,-14000.000,-3000.000,-60000.000,-90.372,288.653,215.218,114.013,1.093,-9.768,-14633.835,-21743.431,-1638.420
1512177678,-1.100,32.600,247.700,-46940.000,-140810.000,991210.000,-14000.000,-3000.000,-60000.000,-67.799,204.201,264.289,101.454,3.063,-39.990,-14860.229,-22043.770,-1711.632
1512177678,-13.600,22.400,242.300,-36680.000,-145140.000,1030820.000,-24000.000,-10000.000,-47000.000,-1.092,173.277,290.735,65.404,-2.091,-60.993,-14932.907,-21518.883,-1785.759
1512177678,-8.300,19.300,242.200,-59880.000,-153560.000,990660.000,-24000.000,-10000.000,-47000.000,50.936,141.290,302.039,52.554,-10.295,-38.015,-15157.822,-21519.218,-1633.842
1512177678,-6.400,26.900,239.300,-118290.000,-138920.000,992000.000,-24000.000,-10000.000,-47000.000,76.201,84.144,318.195,57.490,-7.691,2.476,-15494.316,-21294.724,-1630.874
1512177678,-2.500,26.600,233.200,-94360.000,-139040.000,988770.000,-24000.000,-10000.000,-47000.000,105.116,54.236,341.431,88.096,-25.458,27.227,-15643.890,-21219.940,-1442.062
1512177678,-3.200,22.600,232.200,-104610.000,-144900.000,1060550.000,-24000.000,-10000.000,-47000.000,68.454,109.671,369.344,103.872,-38.199,29.640,-16132.362,-21445.678,-1363.021
1512177678,-7.500,8.800,227.600,-58040.000,-178710.000,983090.000,-17000.000,10000.000,-44000.000,54.078,178.412,436.001,82.990,-52.521,11.031,-16655.602,-21071.465,-1208.389
1512177678,-16.100,-16.000,221.400,-52000.000,-179630.000,948180.000,-17000.000,10000.000,-44000.000,103.854,166.233,423.356,57.883,-23.308,3.647,-17291.809,-20809.913,-977.852
1512177678,0.100,-8.800,195.300,-102970.000,-167300.000,972840.000,-17000.000,10000.000,-44000.000,80.507,144.377,383.498,50.972,-29.609,45.783,-17816.116,-20623.207,-1273.308
1512177678,-13.300,-42.700,190.900,-74520.000,-169920.000,907840.000,-17000.000,10000.000,-44000.000,-7.359,192.445,316.296,29.804,-36.860,8.898,-18602.737,-20436.882,-1191.521
1512177678,9.900,-22.500,196.900,-109680.000,-204280.000,959960.000,-14000.000,-3000.000,-37000.000,30.464,202.051,350.460,17.703,-42.053,5.335,-18864.372,-20249.779,-1151.695
1512177678,25.600,-20.100,173.500,-118040.000,-152590.000,949340.000,-14000.000,-3000.000,-37000.000,23.695,200.520,308.245,1.989,-41.886,11.760,-19088.684,-20100.113,-1112.228
1512177678,36.500,-19.700,174.300,-86120.000,-194210.000,975830.000,-14000.000,-3000.000,-37000.000,19.586,209.673,266.640,50.703,-21.296,17.926,-19163.986,-20137.726,-1374.100
1512177678,37.400,-34.400,168.400,-132450.000,-128970.000,1012570.000,-14000.000,-3000.000,-37000.000,22.277,212.349,265.089,94.379,-19.848,38.991,-19503.228,-20513.237,-1483.909
1512177678,44.300,-22.100,163.100,-57980.000,-104740.000,1048710.000,-14000.000,-3000.000,-37000.000,13.939,211.165,318.268,115.415,-20.611,13.958,-19800.094,-19801.178,-1631.035
1512177679,37.300,-18.000,157.400,-60490.000,-119200.000,1116820.000,-36000.000,8000.000,-42000.000,75.362,205.272,375.106,140.837,-10.521,22.711,-20024.887,-19726.524,-1891.579
1512177679,16.800,4.900,153.800,-46450.000,-114500.000,1025330.000,-36000.000,8000.000,-42000.000,111.720,182.784,432.056,136.935,-8.757,23.829,-19950.607,-19876.396,-1967.293
1512177679,58.600,33.600,148.300,-85940.000,-130000.000,1066350.000,-36000.000,8000.000,-42000.000,118.958,205.195,446.095,120.427,-23.016,26.428,-20324.448,-19651.970,-1663.994
1512177679,10.400,35.400,146.100,-58230.000,-108830.000,970280.000,-36000.000,8000.000,-42000.000,112.041,234.093,415.183,82.175,-26.215,38.331,-20696.777,-19052.528,-1735.527
1512177679,26.400,54.900,133.300,-105470.000,-130190.000,1037840.000,-36000.000,8000.000,-42000.000,68.780,288.550,390.224,71.479,-30.052,52.857,-20772.079,-19127.632,-1659.935
1512177679,20.000,48.100,126.100,-77210.000,-139400.000,1042240.000,-54000.000,8000.000,-38000.000,6.373,273.557,359.417,58.442,-19.352,57.839,-21371.552,-18978.539,-1954.765
1512177679,22.900,50.700,114.900,-123780.000,-135310.000,1032590.000,-54000.000,8000.000,-38000.000,-44.553,285.263,345.930,58.845,-22.136,58.244,-21371.887,-19053.535,-1954.796
1512177679,-4.700,45.000,106.300,-98210.000,-131290.000,984190.000,-54000.000,8000.000,-38000.000,-46.268,262.878,319.174,44.659,-22.003,20.423,-21594.498,-18528.862,-1877.632
1512177679,-30.400,52.600,82.000,-80930.000,-127260.000,959720.000,-54000.000,8000.000,-38000.000,-23.753,224.478,309.773,38.408,-13.509,-2.698,-21742.462,-18079.094,-1876.152
1512177679,-23.000,42.700,113.300,-114560.000,-119080.000,1021790.000,-38000.000,7000.000,-30000.000,42.548,207.516,296.818,51.045,-16.828,10.543,-21969.788,-18604.439,-1799.492
1512177679,2.800,36.100,117.400,-147340.000,-111450.000,974430.000,-38000.000,7000.000,-30000.000,30.734,161.558,299.684,62.149,-34.094,25.427,-22117.508,-18079.659,-1947.975
1512177679,-4.300,20.900,108.800,-122190.000,-142580.000,1041930.000,-38000.000,7000.000,-30000.000,2.026,131.611,292.764,54.822,-37.082,15.411,-21891.571,-17854.317,-2099.770
1512177679,24.200,25.600,99.200,-144350.000,-106570.000,984500.000,-38000.000,7000.000,-30000.000,13.921,139.129,283.370,54.052,-32.304,-0.057,-22642.853,-18155.449,-1943.550
1512177679,1.300,4.700,95.200,-149960.000,-105900.000,1005920.000,-38000.000,7000.000,-30000.000,15.086,172.255,279.238,62.045,-33.594,-0.492,-22415.894,-17705.101,-2095.238
1512177679,-53.300,-23.600,93.100,-109190.000,-124450.000,1000000.000,-35000.000,24000.000,-23000.000,2.214,180.770,284.412,63.051,-41.962,3.123,-22265.778,-17704.872,-1871.513
1512177679,-43.000,-17.600,87.600,-93140.000,-162350.000,951720.000,-35000.000,24000.000,-23000.000,2.575,171.201,261.996,60.405,-28.345,-10.157,-22415.482,-17630.104,-1945.213
1512177679,-12.300,-2.800,75.900,-61890.000,-147580.000,909910.000,-35000.000,24000.000,-23000.000,46.475,136.043,248.651,62.921,-18.243,-7.264,-22489.502,-17405.205,-2019.478
1512177679,2.800,6.300,83.500,-133670.000,-147400.000,942810.000,-35000.000,24000.000,-23000.000,64.175,115.726,273.356,60.757,-13.606,12.416,-22713.196,-17105.553,-2092.415
1512177679,43.000,40.900,64.600,-101140.000,-110050.000,951290.000,-35000.000,14000.000,-20000.000,62.271,103.998,258.361,48.721,-40.219,27.248,-22638.840,-17255.440,-2018.120
1512177679,-25.400,-18.000,81.600,-76350.000,-162170.000,863340.000,-35000.000,14000.000,-20000.000,-1.631,110.319,255.326,47.778,-35.390,25.170,-22637.634,-16955.437,-2317.986
1512177679,-9.500,-19.000,82.600,-98390.000,-158870.000,996340.000,-35000.000,14000.000,-20000.000,-1.603,150.909,255.467,54.626,-44.082,10.334,-22713.196,-17105.553,-2092.415
1512177679,1.200,-4.300,83.400,-94420.000,-111630.000,1054570.000,-35000.000,14000.000,-20000.000,-7.952,145.571,253.229,79.744,-32.925,3.352,-23311.279,-16656.441,-2312.111
1512177679,14.200,-0.700,77.500,-94240.000,-165530.000,992000.000,-35000.000,14000.000,-20000.000,35.362,134.906,276.204,97.470,-32.414,11.250,-23161.179,-16656.227,-2088.387
1512177679,22.500,2.300,71.800,-13730.000,-133480.000,1007020.000,-40000.000,12000.000,-22000.000,46.743,93.221,294.344,87.807,-25.858,12.940,-23158.737,-16131.218,-1938.148
1512177679,26.200,-6.700,71.500,-87280.000,-122380.000,1020870.000,-40000.000,12000.000,-22000.000,93.198,116.868,258.856,82.485,-38.667,30.195,-23236.847,-16806.328,-2087.822
1512177679,32.000,-8.900,73.000,-125490.000,-138490.000,992860.000,-40000.000,12000.000,-22000.000,28.707,137.064,259.591,75.595,-49.450,40.935,-23572.006,-16281.838,-2122.207
1512177679,40.200,4.800,61.300,-106200.000,-134280.000,1051090.000,-40000.000,12000.000,-22000.000,-7.183,138.651,237.755,67.550,-42.685,20.758,-23908.158,-15982.338,-2119.202
1512177679,35.400,2.000,60.300,-110530.000,-132810.000,1025270.000,-40000.000,12000.000,-22000.000,53.224,64.469,255.962,54.563,-60.087,31.363,-24096.237,-16095.116,-2267.655
1512177679,38.000,0.300,55.800,-19040.000,-141780.000,962770.000,-31000.000,17000.000,-3000.000,8.977,96.979,258.099,54.308,-76.039,35.267,-24168.892,-15570.229,-2304.283
1512177679,47.700,19.400,55.300,-73550.000,-128170.000,951050.000,-31000.000,17000.000,-3000.000,-10.939,154.133,240.420,87.339,-70.245,1.963,-24431.839,-15645.622,-2527.084
1512177679,47.800,21.400,50.100,-61280.000,-142030.000,1001160.000,-31000.000,17000.000,-3000.000,20.019,90.630,234.250,131.236,-52.636,8.356,-24468.666,-15495.682,-2526.695
1512177679,43.700,20.200,60.200,-105220.000,-165040.000,1005490.000,-31000.000,17000.000,-3000.000,76.388,30.294,272.171,85.466,-59.449,16.907,-24729.668,-15158.569,-2561.813
1512177679,45.800,17.600,42.100,-112610.000,-99610.000,1052920.000,-40000.000,19000.000,-25000.000,58.829,57.034,238.960,31.044,-62.452,59.050,-24991.310,-14971.467,-2521.995
1512177679,34.500,3.300,43.700,-138000.000,-113710.000,1001340.000,-40000.000,19000.000,-25000.000,1.307,39.991,170.907,41.827,-47.740,79.734,-24766.365,-14971.130,-2636.406
1512177679,39.400,2.000,36.000,-144230.000,-123110.000,980410.000,-40000.000,19000.000,-25000.000,-19.109,50.619,180.774,34.589,-75.913,42.775,-24766.045,-14896.126,-2673.874
1512177679,39.100,20.400,32.200,-123410.000,-126770.000,1009090.000,-40000.000,19000.000,-25000.000,-11.300,184.122,198.942,6.925,-111.711,-5.980,-24840.950,-14858.742,-2823.212
1512177679,24.000,26.000,25.400,-86300.000,-143620.000,924440.000,-40000.000,19000.000,-25000.000,60.228,68.416,154.267,66.113,-48.665,1.329,-24878.448,-14821.297,-3160.369
1512177680,24.100,24.000,24.600,-114500.000,-101990.000,987610.000,-42000.000,24000.000,-10000.000,136.334,-97.571,153.192,70.654,-44.227,37.998,-24654.053,-14933.464,-3349.831
1512177680,13.200,9.300,18.200,-132810.000,-117250.000,997310.000,-42000.000,24000.000,-10000.000,128.144,-146.674,130.517,50.110,-52.561,61.371,-24279.007,-14932.899,-3278.023
1512177680,-3.300,2.300,16.500,-139040.000,-87890.000,960690.000,-42000.000,24000.000,-10000.000,93.277,-111.444,113.076,29.406,-47.740,71.309,-24731.033,-15383.568,-3274.406
1512177680,-1.300,-0.900,15.700,-146970.000,-110470.000,945070.000,-42000.000,24000.000,-10000.000,43.431,-43.130,100.866,15.801,-56.324,90.103,-24957.092,-15608.910,-3347.603
1512177680,-3.100,-4.400,20.900,-120060.000,-94120.000,1000430.000,-50000.000,8000.000,-15000.000,-21.196,-3.659,78.747,3.491,-62.479,96.808,-24952.057,-14483.910,-3422.081
1512177680,-12.300,7.200,32.200,-119380.000,-119510.000,987850.000,-50000.000,8000.000,-15000.000,-50.878,34.764,69.920,-26.437,-75.166,82.904,-24880.096,-15158.806,-3423.027
1512177680,-7.700,12.900,17.700,-170170.000,-129820.000,1057500.000,-50000.000,8000.000,-15000.000,-13.765,27.449,17.130,-26.658,-75.040,86.586,-24953.415,-14783.913,-3422.218
1512177680,-12.500,15.800,10.000,-159000.000,-115540.000,1044370.000,-50000.000,8000.000,-15000.000,5.728,-20.545,-3.007,-5.337,-66.651,110.703,-24728.867,-14858.574,-3649.162
1512177680,-2.000,-1.300,10.100,-82280.000,-120000.000,880250.000,-50000.000,8000.000,-15000.000,23.577,-97.454,9.776,38.661,-55.254,143.502,-25178.268,-14709.251,-3795.265
1512177680,-12.500,-10.300,3.300,-91670.000,-137020.000,951480.000,-47000.000,15000.000,-15000.000,-16.752,-161.709,60.139,62.711,-68.131,163.953,-24953.003,-14633.904,-3947.151
1512177680,-21.000,3.100,1.100,-113710.000,-100220.000,1027890.000,-47000.000,15000.000,-15000.000,-84.859,-177.948,116.662,35.727,-81.926,136.468,-24877.853,-14633.797,-3647.789
1512177680,-21.800,-0.700,-2.300,-95400.000,-151430.000,1001770.000,-47000.000,15000.000,-15000.000,-104.832,-67.930,105.030,-6.043,-111.206,85.235,-24727.142,-14483.574,-3573.982
1512177680,-17.000,-1.100,-15.800,-137570.000,-107180.000,1005250.000,-47000.000,15000.000,-15000.000,-132.017,121.144,81.840,-49.069,-134.151,49.126,-24727.921,-14633.568,-3799.065
1512177680,7.700,26.900,-22.900,-167850.000,-94970.000,977910.000,-47000.000,15000.000,-15000.000,-154.339,338.068,23.637,-53.886,-138.187,11.910,-24727.707,-14558.571,-4024.025
1512177680,-4.500,6.400,-9.200,-208250.000,-144590.000,1038510.000,-68000.000,33000.000,-18000.000,-201.620,506.841,-9.506,-12.008,-122.331,-3.630,-24801.727,-14333.687,-4098.274
1512177680,10.000,11.700,-19.800,-200620.000,-78430.000,954350.000,-68000.000,33000.000,-18000.000,-250.819,578.303,2.818,45.943,-98.349,-12.709,-24652.664,-14483.452,-4624.626
1512177680,0.900,5.500,-8.900,-195860.000,-110600.000,1013980.000,-68000.000,33000.000,-18000.000,-245.775,529.144,17.645,112.148,-75.456,-31.766,-24051.392,-14182.564,-4779.579
1512177680,3.500,-9.200,-12.800,-150090.000,-105900.000,971190.000,-68000.000,33000.000,-18000.000,-167.089,359.286,86.422,158.443,-60.760,-56.245,-23828.339,-14557.228,-5306.664
1512177680,4.400,-15.200,-27.300,-143550.000,-69950.000,977660.000,-66000.000,24000.000,-16000.000,-69.811,206.472,191.773,174.218,-47.090,-76.849,-24276.352,-14107.903,-5377.632
1512177680,-7.100,-19.700,-29.600,-73300.000,-109860.000,993960.000,-66000.000,24000.000,-16000.000,45.988,113.556,277.350,159.615,-25.193,-70.424,-24428.116,-14483.116,-5526.527
1512177680,-6.300,-37.700,-29.400,-46450.000,-67930.000,974240.000,-66000.000,24000.000,-16000.000,164.978,39.988,298.005,126.396,-33.289,-51.217,-24050.339,-13882.545,-5379.448
1512177680,-7.600,-8.900,-23.200,-196590.000,-107790.000,988340.000,-66000.000,24000.000,-16000.000,223.606,-7.983,296.558,83.359,-51.225,-8.984,-24722.824,-13358.559,-5073.463
1512177680,17.300,-20.000,-12.900,-92290.000,-145450.000,1020940.000,-66000.000,24000.000,-16000.000,235.807,-11.118,266.871,40.757,-58.528,29.821,-24572.189,-13208.336,-5149.666
1512177680,4.500,-6.500,-22.800,-156130.000,-71470.000,1045040.000,-50000.000,44000.000,-11000.000,238.519,-14.247,231.720,2.621,-70.947,56.160,-24948.120,-13433.907,-4996.590
1512177680,11.300,-4.800,-20.600,-148380.000,-104430.000,926210.000,-50000.000,44000.000,-11000.000,224.211,6.099,195.338,-33.641,-94.426,77.300,-25170.731,-12909.233,-4919.426
1512177680,1.500,-15.000,-24.100,-104860.000,-139280.000,1076540.000,-50000.000,44000.000,-11000.000,151.296,66.945,159.313,-50.739,-100.744,96.746,-25393.631,-12459.572,-4767.311
1512177680,28.000,-8.700,-20.000,-95890.000,-45350.000,998900.000,-50000.000,44000.000,-11000.000,18.554,160.262,132.663,-68.185,-104.070,86.172,-25581.443,-12534.851,-4728.249
1512177680,35.700,-23.000,-15.000,-129460.000,-102840.000,886720.000,-50000.000,44000.000,-11000.000,-92.609,225.340,89.169,-67.097,-74.229,27.175,-25917.351,-12160.355,-4912.712
1512177680,28.000,-26.500,-18.600,-134400.000,-97110.000,995540.000,-68000.000,37000.000,-5000.000,-119.345,171.133,-70.250,-11.674,-6.770,16.238,-25804.794,-12122.681,-5138.649
1512177680,23.000,-14.100,-23.000,-142880.000,-70740.000,934810.000,-68000.000,37000.000,-5000.000,-89.925,-15.129,-117.912,36.807,4.079,36.226,-25731.217,-12422.577,-5289.429
1512177680,27.800,-31.400,-19.600,-90330.000,-42720.000,890560.000,-68000.000,37000.000,-5000.000,15.470,-148.560,-83.267,-9.609,-42.273,68.661,-25732.178,-12647.583,-5177.024
1512177680,28.200,-20.000,-23.300,-139280.000,-29240.000,1044490.000,-68000.000,37000.000,-5000.000,-39.711,-94.610,-128.120,-4.158,-38.169,136.695,-25731.666,-12535.073,-5176.979
1512177680,37.400,-36.200,-14.400,-93510.000,77760.000,967770.000,-72000.000,19000.000,-5000.000,-137.015,-5.418,-203.312,35.457,-16.293,141.947,-25205.246,-12234.283,-5031.303
1512177680,58.600,-19.300,-28.100,-148620.000,46630.000,956360.000,-72000.000,19000.000,-5000.000,-160.412,169.124,-165.731,55.613,-73.208,93.189,-24831.520,-12496.231,-5222.107
1512177680,29.600,-37.000,-20.800,-105290.000,16050.000,1015500.000,-72000.000,19000.000,-5000.000,-147.230,325.757,45.020,60.699,-141.981,-27.209,-24721.268,-12946.068,-5673.279
1512177680,20.900,-31.000,-21.300,-122190.000,-6290.000,1013310.000,-72000.000,19000.000,-5000.000,48.541,89.106,218.135,90.650,-64.837,-54.698,-24533.547,-12870.781,-5899.826
1512177680,23.000,-20.500,-31.000,-88380.000,-63780.000,975040.000,-72000.000,19000.000,-5000.000,163.440,-121.162,221.732,52.642,-24.113,25.252,-25094.955,-12646.621,-5744.950
1512177680,-7.100,-50.300,-53.000,-32350.000,-38820.000,984310.000,-63000.000,28000.000,-6000.000,-18.690,11.341,56.447,-9.406,-65.097,61.075,-25206.215,-12421.791,-5293.884
1512177681,-6.700,-30.800,-35.600,-14220.000,-10560.000,963440.000,-63000.000,28000.000,-6000.000,-102.011,132.014,7.686,-33.194,-100.228,43.679,-25542.572,-12159.798,-5365.898
1512177681,12.900,-12.000,-19.200,-67260.000,7020.000,1014770.000,-63000.000,28000.000,-6000.000,-68.386,68.991,34.607,-27.752,-75.161,35.409,-25393.097,-12234.566,-5742.210
1512177681,7.900,0.900,-18.600,-87400.000,16300.000,1011110.000,-63000.000,28000.000,-6000.000,-23.934,-17.495,49.875,-2.822,-37.187,45.706,-25618.744,-12384.911,-5665.367
1512177681,-7.700,-9.100,-14.900,-123050.000,-56340.000,986270.000,-54000.000,26000.000,-11000.000,-6.312,-68.798,77.668,9.676,-34.985,59.036,-25842.545,-12085.243,-5963.310
1512177681,4.100,1.300,-11.900,-176090.000,-15930.000,1023130.000,-54000.000,26000.000,-11000.000,-20.369,-60.297,90.288,6.137,-59.256,51.631,-25766.342,-11860.130,-5588.844
1512177681,9.100,3.600,-12.000,-207090.000,19780.000,987980.000,-54000.000,26000.000,-11000.000,-36.300,-30.408,88.029,9.747,-65.318,25.711,-25839.996,-11560.234,-5588.066
1512177681,-0.300,-19.600,-18.800,-109620.000,29540.000,1037290.000,-54000.000,26000.000,-11000.000,-6.659,1.657,102.429,31.695,-60.486,3.484,-25839.920,-11560.234,-5438.072
1512177681,-14.100,-20.500,-17.200,-134950.000,-33450.000,1009160.000,-54000.000,26000.000,-11000.000,15.386,24.079,124.147,28.678,-73.655,-8.160,-25840.256,-11635.231,-5438.103
1512177681,-9.600,-18.900,-23.400,-191590.000,46810.000,1013850.000,-65000.000,12000.000,-1000.000,48.296,-32.496,129.758,28.128,-61.427,-13.325,-26065.659,-11710.579,-5586.220
1512177681,-21.400,-15.200,-19.400,-153260.000,14830.000,969480.000,-65000.000,12000.000,-1000.000,128.080,-141.340,134.799,22.110,-30.799,9.291,-26138.535,-11260.689,-5360.374
1512177681,-17.600,-12.100,-18.100,-122740.000,8120.000,985780.000,-65000.000,12000.000,-1000.000,205.645,-240.588,145.171,3.612,-21.073,52.848,-26437.820,-11111.137,-5282.768
1512177681,-21.700,-24.500,-13.800,-105290.000,40340.000,962770.000,-65000.000,12000.000,-1000.000,199.584,-246.964,124.807,-23.929,-37.797,96.290,-26362.625,-11111.031,-4908.409
1512177681,-30.100,-32.500,-8.400,-156430.000,-6960.000,1078250.000,-65000.000,12000.000,-1000.000,127.692,-165.829,92.064,-50.266,-62.348,123.389,-26588.974,-11411.369,-4906.624
1512177681,-16.200,-32.200,-6.900,-144410.000,21970.000,987180.000,-61000.000,29000.000,1000.000,14.480,-54.814,46.038,-63.575,-74.409,133.086,-26736.099,-10811.592,-4530.083
1512177681,-21.300,-30.500,-7.600,-98630.000,-8910.000,987550.000,-61000.000,29000.000,1000.000,-113.677,94.619,2.056,-51.010,-75.910,107.579,-26885.452,-10661.812,-4603.737
1512177681,-16.800,-8.400,-8.400,-127080.000,61650.000,1056580.000,-61000.000,29000.000,1000.000,-188.679,173.631,-34.999,-19.271,-60.340,59.334,-26509.628,-10436.241,-4981.819
1512177681,-9.700,1.100,-4.700,-89840.000,22340.000,1029600.000,-61000.000,29000.000,1000.000,-167.072,139.519,-53.993,21.590,-21.450,14.209,-26585.297,-10586.357,-4981.239
1512177681,-24.000,-14.200,0.300,-119450.000,39060.000,1057370.000,-66000.000,17000.000,0.000,-31.791,20.085,-53.516,51.946,9.330,12.032,-26885.010,-10511.803,-5053.658
1512177681,-18.400,-36.400,4.900,-92100.000,51570.000,927610.000,-66000.000,17000.000,0.000,69.093,-34.409,31.974,48.854,-21.374,32.496,-26960.724,-10661.919,-5128.090
1512177681,1.100,4.400,4.700,-130190.000,48830.000,961120.000,-66000.000,17000.000,0.000,94.681,-86.834,93.994,-20.946,-81.150,23.592,-27263.763,-11337.379,-5125.862
1512177681,-15.300,-0.700,8.400,-61160.000,22340.000,1038760.000,-66000.000,17000.000,0.000,64.756,-18.528,102.328,-79.350,-88.452,12.378,-26958.801,-10286.919,-4677.910
1512177681,-23.000,-21.800,11.600,-87280.000,28440.000,955440.000,-66000.000,17000.000,0.000,67.360,39.206,75.913,-77.863,-79.584,19.081,-27034.485,-10437.035,-4677.345
1512177681,-24.800,-6.700,16.000,-173770.000,10990.000,1021970.000,-45000.000,14000.000,3000.000,22.656,31.675,72.044,-53.203,-69.725,33.196,-27110.901,-10737.144,-4826.851
1512177681,-25.000,-13.000,18.900,-87710.000,76110.000,1063170.000,-45000.000,14000.000,3000.000,-28.363,-0.434,60.529,-44.633,-55.331,13.503,-27410.873,-10737.602,-4749.306
1512177681,-22.900,-31.400,15.800,-110290.000,24350.000,1022220.000,-45000.000,14000.000,3000.000,-5.772,-24.809,-17.048,-29.195,-47.827,0.812,-27558.807,-10287.819,-4672.813
1512177681,-18.600,-10.000,13.700,-98330.000,41990.000,993900.000,-45000.000,14000.000,3000.000,16.640,-41.733,-83.943,-0.439,-26.191,18.792,-27032.425,-9987.022,-4602.150
1512177681,-14.000,-9.500,18.900,-92350.000,5980.000,1040160.000,-45000.000,14000.000,3000.000,39.458,-50.793,-78.850,28.949,-41.687,60.661,-27069.260,-9837.090,-4639.259
1512177681,-12.500,-19.400,26.000,-81600.000,19840.000,1008240.000,-42000.000,7000.000,-10000.000,21.881,-51.135,82.404,-24.404,-88.530,35.676,-27108.261,-10174.636,-4601.600
1512177681,0.400,-17.800,33.700,-47240.000,57130.000,935850.000,-42000.000,7000.000,-10000.000,126.909,-54.777,112.695,-47.837,-50.856,21.840,-26956.093,-9724.411,-4302.673
1512177681,-9.300,-15.200,35.400,-34120.000,8850.000,989620.000,-42000.000,7000.000,-10000.000,117.297,-94.657,14.872,-48.401,-15.940,64.521,-26955.765,-9649.414,-4340.126
1512177681,-0.500,-32.800,45.700,23740.000,73970.000,985050.000,-42000.000,7000.000,-10000.000,1.456,-49.864,-36.754,-24.441,-58.282,96.965,-27033.432,-10212.037,-4602.257
1512177681,1.600,-14.900,47.700,3480.000,24050.000,995060.000,-42000.000,0.000,-10000.000,-18.623,8.806,-12.322,-76.183,-57.952,24.495,-27069.237,-9837.082,-4601.769
1512177681,-2.500,-31.800,54.200,16540.000,59940.000,997990.000,-42000.000,0.000,-10000.000,-9.802,3.514,-30.335,-32.728,-24.448,55.974,-27067.985,-9537.078,-4789.116
1512177681,-7.500,-34.000,58.200,-1650.000,13920.000,943420.000,-42000.000,0.000,-10000.000,-42.093,27.522,-42.980,1.764,-34.300,56.376,-26880.615,-9574.302,-4715.729
1512177681,-6.700,-35.400,63.800,3850.000,39180.000,967040.000,-42000.000,0.000,-10000.000,-88.175,77.499,39.148,-4.776,-72.611,-16.344,-26805.694,-9574.189,-4866.371
