unixtime,rx,ry,rz,ax,ay,az,mx,my,mz,apprx,appry,apprz,appax,appay,appaz,appmx,appmy,appmz
1512176768,-6.100,16.200,-9.600,-21420.000,52190.000,1052800.000,-45000.000,384000.000,-27000.000,-364.220,628.685,-0.453,-49.239,68.173,-25.012,-17907.307,7812.454,9864.563
1512176768,-8.000,6.500,-10.000,-54810.000,8910.000,1033080.000,-45000.000,384000.000,-27000.000,-308.606,648.151,-74.200,18.528,110.645,-10.215,-17983.356,7587.326,9790.100
1512176768,-4.400,7.300,-11.200,-37900.000,10560.000,1046080.000,-54000.000,396000.000,-35000.000,-276.565,558.609,-147.609,79.473,105.946,-12.616,-17533.237,7663.010,9336.304
1512176768,-20.900,-18.900,-1.200,-62560.000,51450.000,1010010.000,-54000.000,396000.000,-35000.000,-194.127,339.821,-179.155,120.232,73.761,-30.910,-17084.553,7438.675,8732.376
1512176768,-19.000,-30.400,-4.100,-2010.000,-8360.000,969600.000,-54000.000,396000.000,-35000.000,-42.225,99.536,-93.573,108.296,31.441,-62.114,-17385.670,7213.226,8509.827
1512176768,-21.700,-2.500,3.500,23800.000,39790.000,949950.000,-54000.000,396000.000,-35000.000,166.777,-69.277,89.033,43.542,-40.837,-88.997,-17610.081,7362.900,8361.801
1512176768,-19.800,-12.100,2.400,-44130.000,10310.000,976870.000,-54000.000,396000.000,-35000.000,380.295,-205.887,192.926,-8.384,-90.705,-75.301,-17537.251,6912.994,8060.974
1512176768,-13.000,-20.800,-0.300,-490.000,19650.000,993590.000,-45000.000,384000.000,-33000.000,556.629,-340.271,224.864,-19.675,-107.653,-8.001,-17459.019,7588.120,8435.638
1512176768,-12.800,-13.000,3.500,-20020.000,45840.000,1016240.000,-45000.000,384000.000,-33000.000,577.729,-444.945,232.264,-8.500,-73.036,65.521,-17607.868,7812.897,8737.015
1512176768,-15.000,-14.900,2.700,-36680.000,23500.000,1070560.000,-45000.000,384000.000,-33000.000,474.655,-466.421,211.509,7.209,-25.778,123.832,-17681.507,8112.793,8737.793
1512176768,1.700,8.800,4.400,-36620.000,41140.000,1024110.000,-45000.000,384000.000,-33000.000,386.332,-487.768,136.599,34.957,13.250,158.545,-17756.092,8187.668,8888.458
1512176768,-8.400,-6.900,8.000,-16910.000,57500.000,1027160.000,-24000.000,373000.000,-37000.000,203.967,-465.503,76.464,9.571,24.983,165.836,-17753.178,8787.674,9338.730
1512176768,-12.500,-16.200,9.900,20320.000,23620.000,964050.000,-24000.000,373000.000,-37000.000,-51.741,-313.138,75.422,-61.286,24.807,135.679,-17978.031,8787.338,9640.640
1512176768,-4.800,-26.800,14.100,9340.000,29480.000,940860.000,-24000.000,373000.000,-37000.000,-308.760,-12.464,161.230,-144.588,57.639,70.452,-16995.975,9988.815,12932.907
1512176768,7.200,-28.400,16.600,-46690.000,-6840.000,998110.000,-24000.000,373000.000,-37000.000,-365.572,258.709,193.332,-197.399,37.717,6.534,-16996.265,9988.815,12332.901
1512176768,20.800,-7.700,22.200,-12820.000,54870.000,996830.000,-24000.000,373000.000,-37000.000,-301.856,349.947,18.672,-139.005,23.939,-11.842,-17448.414,9538.132,12111.526
1512176768,10.000,6.300,21.000,-33450.000,-5800.000,990230.000,-40000.000,393000.000,-35000.000,-316.747,322.539,-178.861,-28.531,15.943,1.117,-17523.746,9538.025,11437.164
1512176768,9.600,-9.200,20.400,-35280.000,23010.000,954650.000,-40000.000,393000.000,-35000.000,-368.908,230.740,-252.428,50.313,21.526,-5.605,-17525.593,9163.025,11136.993
1512176768,0.700,8.300,18.400,-11840.000,1100.000,930110.000,-40000.000,393000.000,-35000.000,-339.389,74.805,-239.749,85.108,27.339,-36.927,-17001.377,9013.809,10907.455
1512176768,-8.300,-9.600,20.400,-22460.000,-17330.000,1033200.000,-40000.000,393000.000,-35000.000,-238.910,-41.559,-197.121,77.976,48.790,-63.104,-17302.341,8788.361,10984.894
1512176768,-13.200,-15.000,20.400,-6350.000,9700.000,934020.000,-52000.000,373000.000,-37000.000,-81.656,-40.442,-101.027,62.607,54.765,-54.172,-16777.088,8864.151,10830.475
1512176768,-8.700,-8.400,17.000,40340.000,-8790.000,1000550.000,-52000.000,373000.000,-37000.000,32.776,6.393,73.497,19.380,28.000,-36.669,-16477.268,8789.597,11127.884
1512176768,-7.100,22.500,13.600,-8180.000,-5680.000,978030.000,-52000.000,373000.000,-37000.000,75.071,1.886,223.341,-41.866,-18.843,-24.406,-17001.789,8938.812,10757.431
1512176768,-9.700,6.800,22.500,-37110.000,45290.000,1063480.000,-52000.000,373000.000,-37000.000,27.622,-29.095,190.566,-88.259,-9.441,-18.171,-16552.570,8714.478,11203.491
1512176768,-14.900,2.400,24.600,240.000,12270.000,1016910.000,-52000.000,373000.000,-37000.000,-60.678,9.559,19.384,-65.438,40.072,1.504,-16739.231,8939.201,10867.698
1512176768,-17.800,-11.900,27.800,-19590.000,610.000,958440.000,-42000.000,373000.000,-40000.000,-105.195,59.508,-155.388,11.504,91.092,9.245,-16515.056,8789.535,10565.712
1512176768,-9.900,-16.500,33.800,-55540.000,30400.000,979800.000,-42000.000,373000.000,-40000.000,-86.770,2.708,-47.114,20.438,27.273,12.280,-16514.240,8939.537,10828.277
1512176768,-10.800,-9.600,33.400,-25450.000,29420.000,930540.000,-42000.000,373000.000,-40000.000,-71.546,-8.107,30.890,-47.709,34.118,-12.474,-16363.811,9052.261,10677.063
1512176768,-6.900,-2.400,37.800,27710.000,33390.000,999820.000,-42000.000,373000.000,-40000.000,-65.028,76.897,-4.432,-33.580,45.772,4.306,-16289.150,8977.371,10676.392
1512176768,-14.800,-10.100,34.200,2200.000,12630.000,967900.000,-42000.000,373000.000,-40000.000,-126.683,62.465,-48.552,26.069,56.017,-5.252,-16513.950,9052.032,10415.840
1512176768,-3.900,-8.000,35.400,17820.000,53650.000,985720.000,-36000.000,382000.000,-52000.000,-74.263,1.091,-29.881,11.233,47.282,-48.135,-16326.092,9127.311,10451.782
1512176768,3.300,-10.900,32.800,430.000,20750.000,997440.000,-36000.000,382000.000,-52000.000,24.579,-40.450,-13.669,-15.853,55.502,-14.385,-16440.540,8714.645,10265.046
1512176768,-2.000,-5.500,35.600,54020.000,11960.000,960880.000,-36000.000,382000.000,-52000.000,-5.172,-37.812,-19.421,-42.696,58.305,33.919,-16325.527,9277.321,10226.845
1512176768,-5.500,-12.900,38.000,25880.000,48830.000,1005370.000,-36000.000,382000.000,-52000.000,-127.130,84.846,-19.695,-54.364,39.609,6.958,-16287.709,9352.379,10189.065
1512176768,-4.000,2.100,39.300,29660.000,20450.000,955810.000,-50000.000,379000.000,-45000.000,-145.025,100.330,-33.228,-1.704,43.446,-49.677,-16213.115,9277.489,10038.391
1512176768,-3.700,4.900,37.800,610.000,3660.000,966490.000,-50000.000,379000.000,-45000.000,-19.859,18.802,-31.164,0.950,59.114,-62.441,-16213.871,9127.487,9888.328
1512176768,-10.000,-12.100,40.300,2380.000,20140.000,947810.000,-50000.000,379000.000,-45000.000,7.842,18.842,-30.229,-5.959,60.929,-41.645,-16289.974,8902.367,9701.347
1512176769,0.700,-13.200,43.800,-3970.000,-3660.000,1053890.000,-50000.000,379000.000,-45000.000,46.284,-16.875,-36.194,18.884,96.217,-14.296,-16327.641,8864.822,9701.660
1512176769,-0.500,-19.800,50.100,-5250.000,35100.000,960210.000,-50000.000,379000.000,-45000.000,88.832,-41.386,-31.398,34.012,80.684,21.114,-16553.394,8714.478,9553.497
1512176769,-1.500,-16.100,56.600,-18740.000,-180.000,955810.000,-42000.000,373000.000,-57000.000,64.966,-58.562,-7.285,24.662,63.624,40.706,-16326.328,9164.825,9626.801
1512176769,5.900,-14.200,56.300,-32470.000,25210.000,951170.000,-42000.000,373000.000,-57000.000,-4.945,-40.584,31.210,-28.433,13.452,22.621,-16552.418,8939.484,9478.607
1512176769,10.400,-18.200,61.800,-41690.000,30400.000,1014770.000,-42000.000,373000.000,-57000.000,-126.934,56.497,-1.136,-60.060,23.285,-22.934,-16177.418,8940.048,9475.418
1512176769,-0.100,-35.800,58.900,-24720.000,16300.000,1041560.000,-42000.000,373000.000,-57000.000,-144.623,124.884,-23.540,-56.522,43.543,-46.841,-16477.802,8864.594,9402.939
1512176769,3.100,-26.600,62.600,13060.000,50480.000,1001650.000,-63000.000,380000.000,-60000.000,-94.476,114.282,-27.116,-31.377,74.722,-58.881,-16775.852,9314.148,9255.692
1512176769,2.300,-5.300,60.900,1220.000,21180.000,1092650.000,-63000.000,380000.000,-60000.000,-12.828,47.065,-3.780,-13.494,81.166,-42.825,-16325.581,9389.816,9101.898
1512176769,-1.500,-6.500,66.200,-39180.000,24170.000,1075810.000,-63000.000,380000.000,-60000.000,36.586,-35.054,-29.999,-1.448,102.029,-26.111,-16325.993,9314.819,8951.874
1512176769,2.000,4.900,68.800,-27890.000,47910.000,1046140.000,-63000.000,380000.000,-60000.000,50.541,-58.522,-37.342,-14.481,81.252,-0.444,-16326.710,9164.825,8876.801
1512176769,-11.100,-4.000,73.200,-19470.000,24480.000,989810.000,-63000.000,380000.000,-60000.000,-16.197,-37.209,-61.687,-23.506,79.131,10.035,-16702.015,9089.249,8954.956
1512176769,-7.700,-26.500,71.800,12020.000,48460.000,1028260.000,-59000.000,370000.000,-57000.000,-75.838,-24.477,-64.639,-26.713,50.333,0.620,-16327.122,9089.813,8726.761
1512176769,8.800,-29.400,80.700,-28690.000,47240.000,1054320.000,-59000.000,370000.000,-57000.000,-97.875,-15.922,-85.182,-21.625,76.171,-13.520,-16477.497,9014.587,8653.015
1512176769,40.900,9.100,83.100,-21300.000,41500.000,1012390.000,-59000.000,370000.000,-57000.000,-33.313,-33.912,-122.689,-2.084,72.559,-7.395,-16403.812,8714.706,8727.234
1512176769,-17.400,-15.300,88.200,-4270.000,16850.000,921870.000,-59000.000,370000.000,-57000.000,-1.889,-37.136,-89.198,-5.821,58.448,6.158,-16254.932,8489.929,8500.854
1512176769,2.300,6.800,83.200,-1400.000,18680.000,974850.000,-59000.000,370000.000,-57000.000,-33.435,8.542,16.044,-31.205,23.839,-5.146,-16332.142,8039.810,8126.282
1512176769,3.100,23.400,88.900,-31490.000,34300.000,1013370.000,-52000.000,373000.000,-54000.000,-89.270,41.520,42.002,-56.822,33.660,-39.967,-16032.032,8040.268,8348.740
1512176769,18.500,38.200,88.800,-50780.000,35710.000,1112670.000,-52000.000,373000.000,-54000.000,-117.317,93.897,-0.868,-59.499,66.620,-72.581,-16333.042,7814.804,8351.181
1512176769,1.600,32.400,86.700,4640.000,14220.000,1024720.000,-52000.000,373000.000,-54000.000,-75.503,128.298,-77.963,-23.662,72.899,-76.186,-16333.454,7739.807,8201.141
1512176769,-25.300,12.500,89.500,6840.000,-14100.000,957890.000,-52000.000,373000.000,-54000.000,-30.482,57.900,-96.746,26.611,82.995,-68.756,-16483.799,7664.581,8202.377
1512176769,-37.400,15.400,94.000,2500.000,-20320.000,975160.000,-54000.000,379000.000,-42000.000,22.523,-59.540,-83.591,53.616,82.474,-67.936,-16862.812,6764.008,8280.167
1512176769,-38.600,6.500,101.600,23070.000,47060.000,934020.000,-54000.000,379000.000,-42000.000,80.486,-166.340,-47.942,38.495,65.778,-65.198,-16562.016,6914.459,8502.670
1512176769,-25.400,8.000,102.300,40160.000,21120.000,976010.000,-54000.000,379000.000,-42000.000,129.682,-225.122,3.735,-4.651,48.467,-54.106,-16787.769,6764.130,8354.523
1512176769,-11.700,13.800,102.300,46260.000,1530.000,966980.000,-54000.000,379000.000,-42000.000,150.572,-235.821,29.587,-24.883,44.544,-40.056,-16338.825,6464.798,8950.562
1512176769,-28.600,-16.200,102.100,60360.000,-4760.000,914120.000,-54000.000,379000.000,-42000.000,114.573,-150.400,18.701,-41.935,32.099,-24.349,-16410.786,7139.694,8951.508
1512176769,-12.100,-12.300,107.500,6770.000,-4700.000,982480.000,-68000.000,375000.000,-45000.000,55.220,-81.023,1.026,-44.863,43.594,-14.515,-16711.765,6914.246,9028.961
1512176769,-1.500,-15.000,113.700,-17520.000,-27530.000,1015320.000,-68000.000,375000.000,-45000.000,37.948,-12.591,-47.493,-24.870,81.053,3.001,-16752.392,6201.683,9178.940
1512176769,-10.300,-23.400,112.300,-50960.000,9770.000,941350.000,-68000.000,375000.000,-45000.000,-10.955,7.645,-54.527,32.891,58.362,28.717,-16863.407,6501.511,9442.528
1512176769,-11.700,-12.000,118.400,7450.000,34240.000,932370.000,-68000.000,375000.000,-45000.000,-132.860,50.011,35.003,-5.049,38.344,-50.438,-16788.143,6539.123,9629.410
1512176769,-8.100,-2.300,115.800,-60.000,51150.000,1019900.000,-68000.000,375000.000,-45000.000,-9.698,70.561,1.678,1.491,69.900,-86.221,-16675.724,6501.793,9815.941
1512176769,-6.400,0.500,119.300,-14160.000,24170.000,1046630.000,-79000.000,389000.000,-32000.000,111.623,-118.205,-59.585,65.427,73.509,-7.803,-16451.115,6389.633,10038.971
1512176769,-1.100,7.700,121.300,-21480.000,50170.000,1014590.000,-79000.000,389000.000,-32000.000,-15.428,-50.255,52.346,-31.535,38.437,-30.698,-16637.699,6576.851,10190.651
1512176769,-7.900,-26.600,126.000,61650.000,43150.000,1022160.000,-79000.000,389000.000,-32000.000,-13.212,105.894,-41.958,-17.111,60.770,-38.315,-16601.246,6351.898,10115.227
1512176769,24.100,-9.100,126.100,7630.000,2080.000,1047790.000,-79000.000,389000.000,-32000.000,28.550,-3.031,-26.273,23.343,79.328,-19.191,-16674.733,6689.293,10116.021
1512176769,12.000,-10.100,128.100,13670.000,10620.000,967220.000,-57000.000,382000.000,-25000.000,34.081,-35.701,24.865,-8.290,36.076,-1.334,-16713.368,6426.735,10191.223
1512176769,4.400,-17.400,139.500,13370.000,23560.000,980160.000,-57000.000,382000.000,-25000.000,-83.381,77.376,9.696,-25.318,41.554,-63.494,-16527.730,6014.518,10189.438
1512176769,7.300,-21.700,138.100,10680.000,-8910.000,979490.000,-57000.000,382000.000,-25000.000,-4.564,37.027,-52.733,40.395,62.911,-78.897,-16413.929,6277.183,10413.597
1512176769,39.700,-0.800,140.700,35100.000,15320.000,1018550.000,-57000.000,382000.000,-25000.000,124.069,-125.169,-38.640,68.397,76.380,-18.280,-16526.547,6239.517,10527.039
1512176770,17.800,-0.700,140.900,65610.000,-8910.000,1001590.000,-57000.000,382000.000,-25000.000,86.552,-102.412,39.785,38.035,39.351,21.990,-16638.371,6389.343,10528.061
1512176770,4.100,-5.100,138.200,125370.000,12940.000,1006960.000,-66000.000,384000.000,-37000.000,-3.521,-19.306,75.012,-4.182,23.049,-1.494,-16638.554,6314.346,10828.033
1512176770,-11.500,-2.800,136.500,114930.000,-8000.000,981690.000,-66000.000,384000.000,-37000.000,-59.036,73.655,20.164,-21.266,53.625,-28.896,-16339.085,6239.792,10450.439
1512176770,-24.600,-18.400,142.700,90760.000,21610.000,1004760.000,-66000.000,384000.000,-37000.000,-16.782,130.408,-18.471,7.047,61.184,-26.156,-16414.646,6089.691,10676.010
1512176770,-11.500,-11.500,143.500,112550.000,20940.000,1005740.000,-66000.000,384000.000,-37000.000,-2.251,97.273,4.012,30.204,71.904,-12.812,-16639.790,6089.340,10377.930
1512176770,-20.800,-7.500,147.700,81670.000,38090.000,986760.000,-77000.000,380000.000,-37000.000,4.474,13.881,44.328,24.498,56.511,-14.742,-16564.045,6239.456,10527.359
1512176770,3.100,19.200,144.600,96440.000,12150.000,1045590.000,-77000.000,380000.000,-37000.000,-22.668,-5.448,72.649,-9.206,52.447,-27.004,-16415.394,5939.682,10525.940
1512176770,-5.200,18.000,144.300,76480.000,30520.000,982120.000,-77000.000,380000.000,-37000.000,-52.388,53.271,68.161,-35.036,49.807,-45.925,-16111.988,6690.140,10598.740
1512176770,4.700,25.200,149.500,58590.000,8000.000,991090.000,-77000.000,380000.000,-37000.000,-54.453,102.538,2.208,-31.698,58.894,-60.391,-16263.371,6389.908,10524.872
1512176770,23.400,25.400,150.700,43270.000,35770.000,1045960.000,-77000.000,380000.000,-37000.000,-34.466,106.933,-46.528,14.942,52.429,-56.999,-16189.121,6240.021,10374.176
1512176770,26.500,56.700,149.700,15690.000,30400.000,1094790.000,-63000.000,391000.000,-40000.000,-45.410,35.325,-32.008,47.830,48.982,-61.628,-16189.426,6165.024,10449.127
1512176770,7.300,69.100,145.400,18370.000,43090.000,1095090.000,-63000.000,391000.000,-40000.000,-19.323,-20.246,-0.909,46.985,55.553,-74.671,-16189.838,6090.027,10299.103
1512176770,-14.500,83.200,147.400,54690.000,-17210.000,1008240.000,-63000.000,391000.000,-40000.000,67.887,-67.131,9.788,38.553,61.039,-61.123,-15889.423,6165.466,10446.579
1512176770,-26.100,55.400,155.400,-8850.000,44070.000,985960.000,-63000.000,391000.000,-40000.000,98.673,-75.648,16.598,39.447,86.535,-17.761,-16112.354,6615.143,10523.712
1512176770,-19.000,27.400,159.000,-44310.000,-16420.000,947880.000,-63000.000,391000.000,-40000.000,108.176,-52.147,23.213,52.739,58.040,24.610,-16113.483,6390.137,10298.599
1512176770,-6.700,8.000,155.100,-48830.000,6960.000,943180.000,-94000.000,391000.000,-57000.000,15.144,-8.659,107.302,42.634,30.807,31.916,-16040.134,6015.244,10372.787
1512176770,-18.200,-14.400,158.600,-550.000,-24660.000,924930.000,-94000.000,391000.000,-57000.000,-175.246,80.699,150.698,-34.683,-15.964,-68.998,-16188.740,6315.018,10449.203
1512176770,-10.500,-19.600,161.100,18740.000,1770.000,999080.000,-94000.000,391000.000,-57000.000,-177.570,157.699,100.824,-60.364,25.864,-147.648,-15813.404,6390.594,10446.045
1512176770,-1.700,-11.100,161.300,-13310.000,9520.000,966610.000,-94000.000,391000.000,-57000.000,-14.789,130.395,-9.914,-17.390,104.563,-144.022,-16037.693,6540.253,10523.041
1512176770,-1.300,-1.900,151.100,29240.000,26790.000,1052250.000,-86000.000,389000.000,-28000.000,163.303,22.925,-83.397,49.151,109.749,-76.493,-15964.161,6240.356,10297.256
1512176770,-7.600,21.800,140.600,47490.000,33690.000,996700.000,-86000.000,389000.000,-28000.000,176.881,-144.777,-74.188,78.789,98.840,-2.725,-16112.843,6540.146,10223.663
1512176770,-20.900,4.400,143.100,40040.000,7930.000,1011410.000,-86000.000,389000.000,-28000.000,115.852,-199.378,-61.406,61.184,93.213,33.063,-16113.102,6465.134,10373.642
1512176770,-29.800,-21.700,145.700,42420.000,-610.000,974910.000,-86000.000,389000.000,-28000.000,97.199,-171.696,-27.464,16.439,58.942,42.891,-16338.078,6464.798,10450.546
1512176770,-31.000,-36.100,154.600,11840.000,23070.000,977840.000,-86000.000,389000.000,-28000.000,10.341,-70.423,7.875,-31.726,32.245,33.913,-16487.965,6464.569,10676.834
1512176770,40.700,0.400,159.100,-4640.000,7320.000,1088440.000,-94000.000,380000.000,-44000.000,-63.054,59.665,69.096,-45.777,12.380,9.615,-16487.278,6614.578,10676.895
1512176770,56.700,18.200,165.100,-12210.000,46450.000,1034730.000,-94000.000,380000.000,-44000.000,-128.263,143.925,84.436,-28.343,15.032,-38.463,-16263.676,6314.911,10599.838
1512176770,-1.500,-27.000,167.400,17880.000,3780.000,996770.000,-94000.000,380000.000,-44000.000,-103.731,149.429,18.712,17.979,75.512,-84.320,-16414.212,6202.186,10526.069
1512176770,-4.100,-15.200,166.400,86060.000,-17210.000,986020.000,-94000.000,380000.000,-44000.000,111.358,-40.204,-72.111,93.885,103.221,-23.060,-16338.124,6464.798,10338.051
1512176770,-12.900,-6.800,161.700,68420.000,23500.000,990970.000,-94000.000,380000.000,-44000.000,56.429,-97.686,56.421,53.365,44.728,0.341,-16412.640,6577.186,10301.246
1512176770,-11.900,4.700,162.700,96070.000,-23320.000,1034360.000,-96000.000,386000.000,-42000.000,24.318,40.629,38.312,0.813,42.291,-37.352,-16450.047,6577.133,10489.059
1512176770,-39.000,-28.600,165.500,102660.000,20510.000,962400.000,-96000.000,386000.000,-42000.000,52.900,54.599,19.054,59.159,60.152,-26.259,-16224.819,6652.474,10262.184
1512176770,-41.800,-35.200,165.800,43950.000,29420.000,944520.000,-96000.000,386000.000,-42000.000,55.672,-6.392,74.318,30.724,57.452,-28.844,-16337.490,6614.807,10263.123
1512176770,2.900,-11.900,166.600,63230.000,-5190.000,1061460.000,-96000.000,386000.000,-42000.000,48.641,31.565,49.827,-10.800,46.756,-26.402,-16676.960,6164.291,10378.273
1512176770,39.900,11.600,167.600,105410.000,82280.000,1005550.000,-98000.000,394000.000,-37000.000,-32.649,100.430,5.181,2.758,41.503,-46.801,-16599.316,6764.411,10265.419
1512176770,-3.100,-3.500,171.500,52310.000,1400.000,994750.000,-98000.000,394000.000,-37000.000,-7.948,122.855,27.472,25.750,43.301,-82.084,-16561.794,6764.465,10302.597
1512176770,-4.400,22.900,164.600,73850.000,13610.000,1036440.000,-98000.000,394000.000,-37000.000,52.358,100.993,53.853,48.917,41.717,-73.966,-16563.145,6501.961,9964.974
1512176770,-11.600,16.200,169.400,74460.000,40650.000,1031310.000,-98000.000,394000.000,-37000.000,87.606,82.961,16.456,61.579,47.967,-62.200,-16485.486,7102.073,9889.618
1512176770,-14.200,-4.800,168.400,55480.000,-7750.000,1018860.000,-98000.000,394000.000,-37000.000,45.095,146.403,44.312,48.227,20.931,-76.660,-16597.698,7176.910,9778.114
1512176771,-4.900,-16.200,174.200,45040.000,69760.000,1018800.000,-105000.000,380000.000,-40000.000,17.645,129.300,26.796,39.675,77.497,-97.662,-16711.903,6839.233,9403.915
1512176771,-5.600,-10.300,167.900,52670.000,19710.000,1074890.000,-105000.000,380000.000,-40000.000,132.047,114.695,-57.944,47.381,92.021,-50.820,-16636.234,6989.349,9403.336
1512176771,0.100,11.300,162.200,61040.000,43700.000,1058410.000,-105000.000,380000.000,-40000.000,208.886,10.018,-3.894,68.008,80.320,-7.452,-16560.261,7214.462,9327.805
1512176771,-4.400,27.600,166.300,47000.000,50480.000,1079900.000,-105000.000,380000.000,-40000.000,138.604,-24.384,54.669,59.358,63.259,15.131,-16558.826,7514.465,9477.951
1512176771,-13.200,27.800,163.900,89110.000,30270.000,1051940.000,-105000.000,380000.000,-40000.000,109.351,7.554,84.204,27.172,40.641,10.518,-16634.769,7289.352,9628.479
1512176771,-29.400,31.000,166.200,71110.000,34910.000,960210.000,-117000.000,393000.000,-45000.000,59.820,110.089,55.062,13.462,30.578,-26.472,-16785.069,7289.124,9029.770
1512176771,-57.500,-7.700,174.300,41990.000,-6410.000,931340.000,-117000.000,393000.000,-45000.000,4.220,199.829,4.462,26.633,9.425,-45.126,-16785.709,7139.130,9104.691
1512176771,-6.000,-2.100,178.600,50480.000,-22340.000,1003780.000,-117000.000,393000.000,-45000.000,28.663,183.958,-57.073,65.528,32.641,-81.819,-16484.806,7364.578,8877.243
1512176771,2.300,-0.800,184.700,41080.000,35950.000,948790.000,-117000.000,393000.000,-45000.000,121.405,134.032,-123.062,85.670,41.680,-91.862,-16561.008,7139.465,8502.777
1512176771,-5.600,-2.500,187.900,12390.000,6590.000,995610.000,-133000.000,398000.000,-40000.000,217.372,95.732,-126.068,92.765,57.045,-84.274,-16787.281,6839.127,8654.556
1512176771,-3.300,8.100,179.400,48580.000,-7450.000,950260.000,-133000.000,398000.000,-40000.000,234.662,105.268,-75.682,83.663,71.094,-61.864,-16787.891,6764.130,8129.517
1512176771,-7.300,18.500,180.700,39370.000,10380.000,951230.000,-133000.000,398000.000,-40000.000,230.980,126.569,-44.743,81.403,62.428,-49.124,-17012.623,6838.791,7981.461
1512176771,-18.100,16.500,179.900,38090.000,-550.000,942990.000,-133000.000,398000.000,-40000.000,203.806,102.967,-14.303,76.120,52.457,-27.510,-16638.187,6689.346,8203.201
1512176771,-13.200,23.000,180.200,29970.000,11470.000,987550.000,-133000.000,398000.000,-40000.000,171.151,43.021,23.392,39.086,52.907,-49.140,-16787.586,6839.127,8054.565
1512176771,0.400,27.300,178.200,57250.000,-14220.000,981080.000,-135000.000,396000.000,-38000.000,331.970,95.586,35.500,-25.636,40.474,-56.932,-16787.922,6764.130,8054.520
1512176771,-27.400,4.900,184.300,24110.000,-42180.000,962340.000,-135000.000,396000.000,-38000.000,572.827,80.049,-26.096,-11.383,61.939,-63.663,-16938.740,6613.892,7755.722
1512176771,-11.100,5.500,191.900,37840.000,-1890.000,981870.000,-135000.000,396000.000,-38000.000,565.523,87.787,-164.763,22.192,74.982,3.671,-17015.476,6238.785,7681.198
1512176771,5.500,9.100,193.100,30150.000,-6900.000,1065190.000,-135000.000,396000.000,-38000.000,452.608,96.170,-169.568,41.675,46.797,41.603,-17017.567,5788.788,7530.991
1512176771,-8.800,10.500,190.700,37720.000,-30460.000,1002750.000,-117000.000,389000.000,-38000.000,303.019,96.972,-148.277,43.307,36.129,26.901,-17092.243,5863.663,7531.662
1512176771,-10.300,14.000,186.400,59810.000,-7870.000,996580.000,-117000.000,389000.000,-38000.000,208.141,73.328,-149.735,10.613,37.664,-17.990,-17392.979,5713.211,7384.140
1512176771,-10.800,4.100,187.400,34850.000,-41140.000,985290.000,-117000.000,389000.000,-38000.000,247.965,95.865,-171.466,-8.695,35.460,-37.432,-17245.014,5263.443,7382.660
1512176771,-8.500,-3.100,188.400,24230.000,-4640.000,1007810.000,-117000.000,389000.000,-38000.000,346.230,117.401,-181.693,3.882,34.845,-27.887,-17775.181,4287.643,5811.676
1512176771,-8.300,-4.000,189.200,40950.000,-6230.000,1043950.000,-117000.000,389000.000,-38000.000,369.538,125.962,-172.799,31.504,12.500,-13.903,-17399.250,4513.214,5658.585
1512176771,-15.400,14.400,182.700,40220.000,-37600.000,1018800.000,-122000.000,401000.000,-33000.000,292.476,128.882,-89.688,55.716,-1.031,-1.727,-17476.048,4138.092,5434.067
1512176771,-15.800,29.700,182.000,35890.000,-14100.000,1008120.000,-122000.000,401000.000,-33000.000,117.914,68.581,20.577,110.515,4.638,-1.861,-17476.048,4138.092,5434.067
1512176771,-2.800,36.900,183.100,63660.000,-22340.000,1074710.000,-122000.000,401000.000,-33000.000,-70.034,-50.427,99.529,142.396,36.951,-34.626,-17627.094,3912.872,5360.229
1512176771,11.500,43.800,186.300,54500.000,-33080.000,1006650.000,-122000.000,401000.000,-33000.000,-74.781,-30.264,161.893,127.517,75.198,-94.317,-17513.492,4138.039,5546.883
1512176771,3.700,31.400,185.500,32960.000,-20390.000,972230.000,-122000.000,401000.000,-33000.000,-37.349,70.144,191.568,133.639,33.406,-83.574,-17362.766,4288.269,5658.157
1512176771,14.600,22.600,192.900,20450.000,-36130.000,964170.000,-135000.000,386000.000,-45000.000,-2.206,-73.528,219.295,90.974,24.100,-54.656,-17286.274,4588.379,5920.174
1512176771,19.000,5.300,195.300,52490.000,-53770.000,971980.000,-135000.000,386000.000,-45000.000,116.270,-29.792,342.163,36.201,30.347,-19.560,-17621.517,5037.872,6410.744
1512176771,7.600,-7.900,200.900,45780.000,-23250.000,964050.000,-135000.000,386000.000,-45000.000,-34.994,56.505,339.204,-22.537,-4.390,-30.401,-17356.403,5600.776,6558.777
1512176771,0.500,-0.400,193.900,44190.000,-45410.000,987850.000,-135000.000,386000.000,-45000.000,-152.928,190.265,127.414,-2.079,31.769,-72.276,-17280.697,5750.885,6633.202
1512176771,-7.100,6.100,193.600,22830.000,-12510.000,1016780.000,-142000.000,386000.000,-28000.000,-63.373,152.740,-4.143,106.599,57.885,-74.654,-17317.943,5825.836,6446.060
1512176771,-9.500,15.400,186.400,44070.000,14950.000,1004330.000,-142000.000,386000.000,-28000.000,-37.642,56.947,111.563,140.879,35.498,-69.556,-17467.892,5863.105,6222.343
1512176771,-4.100,-13.200,184.700,32780.000,-19840.000,1009950.000,-142000.000,386000.000,-28000.000,69.916,-29.737,275.927,62.209,28.757,-68.753,-17615.940,6275.391,6411.316
1512176771,8.500,-12.500,184.700,-240.000,-25760.000,1008180.000,-142000.000,386000.000,-28000.000,71.093,11.935,271.292,9.193,19.145,-31.890,-17840.404,6387.550,6488.281
1512176771,14.200,-2.700,185.400,-21180.000,-18070.000,983520.000,-142000.000,386000.000,-28000.000,-100.988,184.498,112.688,33.703,31.285,-27.388,-17499.790,7063.057,6635.719
1512176771,22.800,0.800,189.400,10740.000,-13310.000,992250.000,-140000.000,405000.000,-40000.000,-233.184,259.531,148.878,77.803,37.813,-91.555,-17762.715,6987.663,6450.425
1512176772,24.100,-14.800,194.800,42600.000,-35030.000,998720.000,-140000.000,405000.000,-40000.000,-115.313,160.792,204.077,60.615,73.467,-138.896,-17460.819,7438.110,6185.577
1512176772,32.400,-11.600,196.900,42600.000,-36680.000,1009700.000,-140000.000,405000.000,-40000.000,82.080,88.613,125.667,69.906,90.559,-111.798,-17909.519,7737.442,6114.532
1512176772,28.900,-15.800,196.500,60490.000,-23380.000,981200.000,-140000.000,405000.000,-40000.000,206.227,-21.021,26.877,104.554,92.492,-39.855,-17609.882,7662.903,6036.957
1512176772,23.200,-8.500,193.100,72690.000,-50290.000,977600.000,-140000.000,405000.000,-40000.000,222.755,-98.902,-9.400,119.782,81.634,11.734,-17759.998,7662.674,5813.232
1512176772,19.700,6.800,190.800,82400.000,-22160.000,956360.000,-151000.000,391000.000,-37000.000,158.915,-127.953,46.074,119.510,53.636,41.602,-18135.792,7437.103,6266.312
1512176772,3.300,4.700,188.700,66960.000,-24230.000,942260.000,-151000.000,391000.000,-37000.000,104.544,-168.750,109.109,66.341,53.877,29.123,-18284.519,7736.877,6117.722
1512176772,1.100,4.000,186.700,100160.000,-27100.000,989140.000,-151000.000,391000.000,-37000.000,134.731,-125.005,154.469,0.241,39.426,18.889,-18211.094,7361.984,6341.919
1512176772,-3.200,-3.600,188.000,70560.000,-39860.000,992000.000,-151000.000,391000.000,-37000.000,158.521,-41.743,203.077,-63.972,19.078,25.477,-18132.267,8187.103,6566.666
1512176772,10.900,9.100,194.700,20940.000,14890.000,1020630.000,-144000.000,384000.000,-27000.000,113.573,10.506,216.468,-101.151,2.537,30.994,-18131.962,8262.115,6491.699
1512176772,16.800,16.900,194.400,32290.000,-25270.000,1076660.000,-144000.000,384000.000,-27000.000,-1.637,48.901,158.431,-101.359,-4.156,20.331,-18056.507,8337.219,6716.095
1512176772,8.000,23.300,194.000,42360.000,-16360.000,997860.000,-144000.000,384000.000,-27000.000,-137.485,104.434,59.645,-57.974,35.059,-10.731,-17980.869,8487.335,6640.518
1512176772,-10.000,10.900,191.200,60790.000,-49680.000,1019100.000,-144000.000,384000.000,-27000.000,-186.733,187.901,-52.714,1.227,47.448,-40.296,-17905.918,8487.457,6564.896
1512176772,-7.200,0.000,195.500,7320.000,-44490.000,982360.000,-144000.000,384000.000,-27000.000,-183.398,260.676,-122.775,81.117,54.637,-54.537,-18056.889,8262.222,6641.052
1512176772,-0.500,-4.100,194.500,21240.000,-12330.000,984560.000,-151000.000,391000.000,-47000.000,-222.703,293.751,-128.555,148.278,47.451,-56.662,-17757.069,8262.680,6263.504
1512176772,6.900,-5.700,192.800,39610.000,-33140.000,1021850.000,-151000.000,391000.000,-47000.000,-213.914,282.986,-80.494,186.084,44.193,-73.219,-17608.418,7962.891,6262.100
1512176772,12.000,-4.800,194.500,37480.000,-8540.000,1027950.000,-151000.000,391000.000,-47000.000,-157.679,223.096,-3.133,193.261,55.033,-90.243,-17684.925,7662.781,5962.585
1512176772,-0.800,-14.900,195.600,37660.000,-12270.000,970520.000,-151000.000,391000.000,-47000.000,-35.856,138.687,104.947,160.239,40.559,-91.987,-17760.380,7587.662,5738.190
1512176772,-0.100,-4.300,192.800,9830.000,-28630.000,968570.000,-151000.000,391000.000,-47000.000,96.362,70.279,229.221,99.427,45.871,-74.687,-17834.248,7812.561,5963.928
1512176772,-4.900,-11.700,193.500,12390.000,11230.000,989560.000,-165000.000,394000.000,-33000.000,206.864,42.506,314.945,31.671,27.293,-38.702,-17831.547,8412.567,5964.218
1512176772,-14.500,2.900,192.000,17760.000,-16720.000,1084840.000,-165000.000,394000.000,-33000.000,212.630,46.712,353.421,-22.914,10.361,-4.361,-17456.806,8338.120,6110.992
1512176772,-21.400,11.300,191.200,39730.000,-25150.000,1000370.000,-165000.000,394000.000,-33000.000,105.590,105.369,317.960,-57.755,0.925,5.536,-17829.929,8787.567,5814.392
1512176772,-23.800,12.900,193.100,36010.000,550.000,1014530.000,-165000.000,394000.000,-33000.000,-25.742,245.318,207.805,-41.792,13.482,-6.520,-18129.978,8787.109,5741.928
1512176772,-25.300,1.300,197.200,15630.000,-19780.000,1052000.000,-145000.000,375000.000,-55000.000,-107.036,313.772,98.126,36.670,38.056,-29.544,-17678.364,9162.796,5588.287
1512176772,-26.800,-12.400,195.900,27950.000,-3780.000,990360.000,-145000.000,375000.000,-55000.000,-149.910,276.419,45.136,119.174,47.771,-49.833,-17528.065,9238.022,5512.039
1512176772,-19.700,-27.600,198.300,34120.000,-36990.000,1022400.000,-145000.000,375000.000,-55000.000,-147.624,188.860,32.074,167.017,44.962,-78.039,-17827.793,9312.561,5364.639
1512176772,-14.000,-31.000,201.900,31190.000,-42540.000,969540.000,-145000.000,375000.000,-55000.000,-83.254,100.229,67.879,177.597,50.479,-106.230,-17678.928,9087.784,5138.260
1512176772,-4.400,-20.500,202.100,36680.000,-10990.000,987550.000,-145000.000,375000.000,-55000.000,77.614,61.818,169.218,117.772,39.749,-113.904,-17641.010,9162.850,5287.971
1512176772,-6.400,-21.000,202.300,63230.000,-36740.000,1013430.000,-170000.000,396000.000,-38000.000,197.703,16.307,318.981,2.796,15.346,-53.825,-17863.819,9650.016,5290.116
1512176772,-16.500,-20.600,200.400,99550.000,-26430.000,956670.000,-170000.000,396000.000,-38000.000,84.058,95.415,200.345,-46.989,47.024,-29.463,-17862.491,9950.012,5252.754
1512176772,-30.400,-4.900,196.400,77510.000,-4700.000,975340.000,-170000.000,396000.000,-38000.000,-63.255,214.643,24.325,46.913,52.108,-35.748,-17748.761,10250.191,4989.441
1512176772,-27.700,15.400,189.400,75620.000,-21060.000,1035640.000,-170000.000,396000.000,-38000.000,-72.701,190.013,45.955,109.257,39.052,-86.844,-17673.732,10287.796,4726.311
1512176772,-19.400,26.800,187.800,67140.000,-24290.000,1110720.000,-170000.000,396000.000,-38000.000,53.000,84.132,207.848,69.288,30.283,-96.633,-17746.876,10700.195,4727.142
1512176772,-23.700,15.700,191.700,53280.000,-36130.000,1023010.000,-172000.000,391000.000,-33000.000,131.167,23.884,216.769,24.930,38.330,-57.204,-17709.172,10737.747,4801.842
1512176772,-52.500,-0.800,195.200,44920.000,-23320.000,965090.000,-172000.000,391000.000,-33000.000,65.325,134.552,109.593,59.226,60.426,-16.956,-17408.100,11000.694,4574.409
1512176772,-36.400,16.900,192.800,56950.000,-53650.000,986450.000,-172000.000,391000.000,-33000.000,-38.104,145.137,79.349,111.046,41.094,-31.229,-17596.500,10812.912,4463.417
1512176772,-11.100,14.000,203.100,25150.000,-38570.000,1020390.000,-172000.000,391000.000,-33000.000,58.582,21.753,157.610,84.985,60.865,-51.377,-17597.302,10625.419,4538.330
1512176772,17.800,21.600,204.300,26610.000,-21360.000,995670.000,-173000.000,382000.000,-52000.000,196.366,-43.820,203.085,22.697,42.081,7.119,-17556.950,11225.479,4838.295
1512176772,2.800,20.600,201.900,46020.000,-9700.000,1005370.000,-173000.000,382000.000,-52000.000,54.578,19.045,174.066,-4.428,30.081,33.552,-17631.298,11375.359,4801.498
1512176773,-11.900,5.300,197.900,64270.000,-49190.000,1032840.000,-173000.000,382000.000,-52000.000,-33.233,105.634,72.885,50.775,38.479,10.224,-17518.726,11413.025,4613.052
1512176773,-6.900,1.700,197.300,36620.000,-54690.000,1008360.000,-173000.000,382000.000,-52000.000,-29.309,107.865,29.242,109.431,39.171,-6.920,-17668.156,11562.805,4389.404
1512176773,-11.500,-1.300,195.600,40100.000,-48460.000,976140.000,-173000.000,382000.000,-52000.000,-9.955,88.559,82.758,149.855,27.579,-22.184,-17293.690,11413.361,4686.142
1512176773,-12.100,-6.900,199.900,31980.000,-42850.000,1025820.000,-188000.000,371000.000,-38000.000,0.401,91.616,166.071,148.612,15.284,-43.913,-17443.119,11563.141,4462.479
1512176773,-5.500,3.500,194.900,54990.000,-65250.000,1023740.000,-188000.000,371000.000,-38000.000,44.426,92.661,211.487,129.829,4.909,-65.649,-17292.667,11638.367,4686.249
1512176773,-15.000,9.600,196.500,71720.000,-39490.000,970400.000,-188000.000,371000.000,-38000.000,104.775,75.613,235.755,88.551,6.451,-63.262,-17518.467,11488.037,4463.089
1512176773,-24.100,5.300,192.400,57620.000,-68790.000,961670.000,-188000.000,371000.000,-38000.000,149.194,56.414,256.588,49.793,6.123,-50.963,-17593.006,11562.912,4688.766
1512176773,-11.300,13.200,187.800,42050.000,-43760.000,1018250.000,-188000.000,371000.000,-38000.000,123.680,53.178,251.942,12.226,19.199,-37.740,-17665.730,12087.814,4539.642
1512176773,-19.000,4.400,192.800,50660.000,-30270.000,1034060.000,-188000.000,375000.000,-45000.000,100.352,66.102,180.222,-7.172,20.671,-22.902,-17590.046,12237.930,4539.078
1512176773,-17.700,-8.800,187.200,41200.000,-67080.000,1010380.000,-188000.000,375000.000,-45000.000,74.840,84.362,112.758,2.506,22.191,-11.677,-17665.760,12087.814,4464.645
1512176773,-21.600,-10.300,189.100,50110.000,-44190.000,966490.000,-188000.000,375000.000,-45000.000,23.977,96.065,93.935,19.868,10.406,-10.784,-17590.534,12162.918,4239.044
1512176773,3.100,0.700,186.000,29970.000,-71780.000,1021480.000,-188000.000,375000.000,-45000.000,-25.246,111.990,106.071,27.532,-9.759,-34.826,-17514.713,12313.034,4538.467
1512176773,6.700,-1.500,191.100,26860.000,-38760.000,1067200.000,-198000.000,368000.000,-35000.000,-44.697,126.883,122.899,36.832,-4.148,-63.038,-17439.442,12388.153,4387.863
1512176773,9.500,-10.300,192.500,21730.000,-47360.000,1012820.000,-198000.000,368000.000,-35000.000,6.299,109.848,132.105,43.906,3.630,-75.469,-17438.099,12688.156,4388.016
1512176773,10.100,6.900,191.100,12630.000,-68660.000,1019590.000,-198000.000,368000.000,-35000.000,68.213,62.953,124.308,74.402,26.504,-56.199,-17363.178,12688.263,4237.366
1512176773,-6.400,-9.700,194.300,32900.000,-35520.000,975160.000,-198000.000,368000.000,-35000.000,149.434,-15.932,109.223,99.944,20.882,-21.223,-17662.830,12762.817,4239.960
1512176773,-3.200,-10.000,198.100,7140.000,-39790.000,1000610.000,-198000.000,368000.000,-35000.000,163.740,-59.777,144.457,103.141,3.895,3.724,-17290.577,12163.376,4161.499
1512176773,-0.700,2.400,191.900,72390.000,-42970.000,988460.000,-186000.000,356000.000,-50000.000,127.506,-47.141,209.006,89.901,-42.380,11.917,-17438.541,12613.144,4162.979
1512176773,-8.800,-1.500,192.900,88010.000,-52000.000,954100.000,-186000.000,356000.000,-50000.000,39.493,-6.759,247.316,73.640,-47.988,-3.787,-17212.833,12763.489,4236.130
1512176773,-3.600,2.100,188.700,70860.000,-80380.000,1036190.000,-186000.000,356000.000,-50000.000,8.154,43.471,210.791,70.367,-34.340,-24.908,-17587.727,12762.924,4464.310
1512176773,0.700,3.200,189.500,63170.000,-24960.000,990840.000,-186000.000,356000.000,-50000.000,20.770,87.388,158.889,91.762,5.496,-28.878,-17662.830,12762.817,4239.960
1512176773,-16.500,6.000,185.400,101380.000,-79410.000,977780.000,-203000.000,356000.000,-47000.000,72.624,87.553,118.067,123.112,20.243,-15.924,-17586.781,12987.930,4314.423
1512176773,-27.600,-7.200,184.000,98570.000,-50050.000,949580.000,-203000.000,356000.000,-47000.000,91.605,61.919,128.911,119.774,18.316,-0.388,-17285.053,13363.388,4387.039
1512176773,-10.100,-4.800,184.000,67080.000,-24410.000,1005860.000,-203000.000,356000.000,-47000.000,83.004,72.448,198.116,66.887,3.472,2.819,-17359.455,13513.275,4237.747
1512176773,0.400,3.900,182.600,87890.000,-71720.000,1017760.000,-203000.000,356000.000,-47000.000,51.249,180.713,254.534,-27.885,-8.464,-13.245,-17698.291,13212.761,4277.984
1512176773,0.700,16.900,181.400,98630.000,-52250.000,955260.000,-203000.000,356000.000,-47000.000,30.801,166.900,200.886,-41.106,22.363,-16.603,-17472.706,13363.098,4088.639
1512176773,-18.100,-2.000,190.400,70010.000,-8790.000,977170.000,-209000.000,350000.000,-49000.000,11.167,57.653,60.567,61.407,25.280,-1.213,-17321.056,13738.327,4012.535
1512176773,-8.900,-1.500,187.600,62440.000,-27470.000,1034730.000,-209000.000,350000.000,-49000.000,-22.820,39.459,52.016,119.573,-10.100,-46.084,-17358.860,13700.767,3750.336
1512176773,-7.100,1.300,192.500,36800.000,-5190.000,1012330.000,-209000.000,350000.000,-49000.000,130.497,-25.672,157.953,126.718,0.295,-20.514,-17357.372,14000.771,4012.977
1512176773,-14.500,1.700,188.600,31370.000,-45230.000,1024170.000,-209000.000,350000.000,-49000.000,123.151,37.031,315.843,11.643,-33.282,19.010,-17317.455,14525.825,4125.405
1512176773,-20.800,1.200,186.000,47120.000,-45780.000,978580.000,-209000.000,350000.000,-49000.000,-58.648,262.373,199.925,-47.656,-25.028,-7.794,-17355.221,14488.273,3938.202
1512176773,-22.400,10.900,179.100,79220.000,-79280.000,983460.000,-216000.000,354000.000,-38000.000,-62.623,178.805,48.193,82.198,36.574,-27.027,-17130.207,14526.115,3636.314
1512176773,-13.800,12.700,180.700,57920.000,-47360.000,1035770.000,-216000.000,354000.000,-38000.000,100.116,-27.790,125.524,141.591,8.644,-4.003,-17091.465,14826.172,3411.132
1512176773,-12.700,1.500,179.400,26610.000,-48340.000,988460.000,-216000.000,354000.000,-38000.000,72.891,104.352,263.644,77.078,-62.349,-23.875,-17016.148,14901.283,3373.031
1512176773,-18.400,-1.200,179.100,13550.000,-30460.000,1046570.000,-216000.000,354000.000,-38000.000,33.320,249.536,278.501,71.410,-20.045,-55.603,-16865.322,15089.012,3334.343
1512176773,-9.600,3.700,180.700,12150.000,-33630.000,1050350.000,-216000.000,354000.000,-38000.000,82.804,156.741,246.913,73.690,22.944,-60.184,-16863.163,15576.515,3259.568
1512176773,-12.900,0.300,183.200,46940.000,-35890.000,1014950.000,-202000.000,354000.000,-45000.000,102.564,76.200,208.542,21.691,7.029,-48.049,-16748.692,15989.190,3483.795
1512176774,-1.700,-7.600,188.400,17880.000,-23800.000,1004270.000,-202000.000,354000.000,-45000.000,90.462,30.933,131.985,-0.670,12.266,-20.856,-16899.479,15838.959,3260.010
1512176774,2.500,-6.700,186.000,16850.000,-57430.000,995610.000,-202000.000,354000.000,-45000.000,102.324,14.007,58.541,27.664,21.732,12.741,-16597.874,16214.417,3107.635
1512176774,3.600,8.700,185.200,7810.000,-9580.000,1050420.000,-202000.000,354000.000,-45000.000,59.943,31.060,43.059,51.570,-3.993,23.593,-16820.698,16664.078,3409.760
1512176774,-7.500,4.300,180.800,11660.000,-39670.000,1044250.000,-230000.000,354000.000,-42000.000,16.761,25.588,75.462,58.268,-25.152,3.907,-16897.877,16213.959,3110.184
1512176774,-6.300,5.300,176.400,41140.000,-44620.000,1021300.000,-230000.000,354000.000,-42000.000,9.799,41.532,110.597,41.161,-22.827,-22.440,-16747.791,16214.188,3258.911
1512176774,-9.300,-0.100,174.600,72940.000,-38510.000,1021180.000,-230000.000,354000.000,-42000.000,78.164,63.956,168.167,26.280,-14.622,-26.586,-17049.213,15913.742,3111.313
1512176774,-21.600,-0.800,175.400,45650.000,-43880.000,997620.000,-230000.000,354000.000,-42000.000,95.409,90.706,157.849,40.651,5.045,-3.596,-16596.226,16589.417,3032.806
1512176774,-14.100,6.800,173.800,68790.000,-10190.000,984190.000,-230000.000,354000.000,-42000.000,100.132,75.813,129.081,74.055,15.133,27.168,-16895.512,16738.968,3110.428
1512176774,-17.600,6.700,171.200,54810.000,-8360.000,983640.000,-235000.000,356000.000,-47000.000,27.222,96.080,91.853,87.971,17.237,31.160,-16596.287,16589.417,2882.812
1512176774,-24.600,-13.200,174.600,60490.000,-35710.000,986630.000,-235000.000,356000.000,-47000.000,-13.672,154.711,117.046,76.233,-5.022,2.558,-16821.629,16514.084,2884.689
1512176774,-10.000,-8.000,175.200,44620.000,-34610.000,985350.000,-235000.000,356000.000,-47000.000,-17.493,214.451,158.780,62.134,-25.542,-42.285,-16671.711,16514.297,2733.414
1512176774,2.300,-2.300,175.400,29420.000,-20390.000,1019350.000,-235000.000,356000.000,-47000.000,25.658,222.992,192.480,63.409,-27.705,-73.649,-16295.765,16739.868,2580.322
1512176774,0.900,2.300,174.200,21180.000,-19960.000,997310.000,-235000.000,356000.000,-47000.000,103.944,160.018,225.375,84.612,0.187,-72.694,-16295.063,16889.862,2655.396
1512176774,-6.300,-2.500,174.600,55850.000,4880.000,1012450.000,-223000.000,347000.000,-49000.000,188.916,70.392,240.154,95.267,5.104,-50.689,-16296.070,16664.871,2655.289
1512176774,-6.700,-0.800,169.800,80930.000,-15320.000,959960.000,-223000.000,347000.000,-49000.000,201.051,25.601,213.523,97.494,1.066,-31.011,-16520.802,16739.532,2507.233
1512176774,-3.200,-3.900,164.600,77640.000,-52920.000,1008000.000,-223000.000,347000.000,-49000.000,136.823,54.434,165.784,87.970,-5.812,-19.844,-16295.765,16739.868,2580.322
1512176774,-3.900,-9.700,164.600,87460.000,-610.000,951420.000,-223000.000,347000.000,-49000.000,84.895,84.302,149.148,71.658,-21.409,-20.670,-16296.223,16664.871,2355.286
1512176774,-14.500,-7.200,161.500,54690.000,-33870.000,981630.000,-214000.000,352000.000,-40000.000,63.976,72.570,124.285,42.195,1.985,-23.897,-16369.419,17039.749,2581.100
1512176774,20.600,4.300,161.100,83800.000,-12210.000,1025020.000,-214000.000,352000.000,-40000.000,160.191,48.181,106.404,27.169,9.626,-1.568,-16292.805,17414.871,2430.634
1512176774,1.600,-10.100,165.600,76050.000,5190.000,977540.000,-214000.000,352000.000,-40000.000,154.331,52.378,138.313,21.667,2.990,35.001,-16216.450,17714.981,2430.145
1512176774,9.100,2.100,168.600,52490.000,-8360.000,1008360.000,-214000.000,352000.000,-40000.000,83.405,90.655,174.732,-14.984,-23.805,36.432,-16367.512,17489.761,2356.308
1512176774,13.400,21.700,167.100,84660.000,-23250.000,1006350.000,-214000.000,352000.000,-40000.000,-4.953,141.809,170.435,-27.969,-25.838,8.933,-16292.881,17414.871,2280.640
1512176774,19.000,38.200,168.300,60910.000,-16720.000,1024050.000,-237000.000,336000.000,-66000.000,-36.795,185.691,98.697,5.751,5.340,-6.097,-16143.024,17415.100,1979.355
1512176774,35.800,54.900,170.300,47550.000,-10620.000,1053590.000,-237000.000,336000.000,-66000.000,9.692,170.886,58.809,81.313,29.401,-1.893,-15993.259,17340.317,2203.049
1512176774,17.600,40.300,171.000,10250.000,-22340.000,1013730.000,-237000.000,336000.000,-66000.000,27.313,137.743,87.733,134.097,1.287,-13.083,-15993.473,17340.317,1753.052
1512176774,13.000,16.400,169.400,4520.000,-670.000,1012820.000,-237000.000,336000.000,-66000.000,32.238,121.553,176.231,143.191,-25.299,-47.144,-15692.616,17490.768,2125.565
1512176774,3.100,13.000,158.200,32040.000,-38330.000,931150.000,-228000.000,334000.000,-40000.000,92.262,142.321,254.462,116.624,-38.606,-95.381,-15653.865,17790.833,1937.889
1512176774,10.300,25.700,161.300,-37170.000,-30030.000,995540.000,-228000.000,334000.000,-40000.000,225.315,51.369,165.459,140.416,21.320,-42.387,-15727.383,18165.718,1526.215
1512176774,0.100,18.800,153.500,52800.000,0.000,955440.000,-228000.000,334000.000,-40000.000,227.315,-49.113,200.315,103.346,0.586,41.632,-15615.948,17903.381,1750.130
1512176774,2.300,4.900,152.300,48950.000,14340.000,904790.000,-228000.000,334000.000,-40000.000,103.490,54.222,247.921,-19.289,-47.729,23.275,-15727.039,18203.216,1863.731
1512176774,-3.100,-20.500,146.900,59080.000,3170.000,940490.000,-228000.000,334000.000,-40000.000,4.754,186.691,164.863,-33.459,-16.825,-17.571,-15499.546,18766.059,1787.071
1512176774,4.500,-32.000,150.200,50960.000,26670.000,979550.000,-223000.000,336000.000,-45000.000,52.789,107.456,28.297,65.881,16.897,-16.807,-15501.140,18428.558,1636.917
1512176774,18.000,-21.700,149.700,-7630.000,20870.000,1052670.000,-223000.000,336000.000,-45000.000,43.171,25.663,57.721,88.156,-11.565,-29.870,-15390.103,18091.225,1748.306
1512176774,13.300,-25.000,150.200,37900.000,11660.000,1058170.000,-223000.000,336000.000,-45000.000,142.347,-2.078,119.295,41.510,-12.909,-14.967,-15502.270,18166.054,1749.298
1512176774,1.200,-25.600,149.000,24780.000,33020.000,1042910.000,-223000.000,336000.000,-45000.000,161.836,55.602,136.303,9.213,-39.722,14.832,-15538.608,18466.003,1374.756
1512176774,-9.200,-42.300,146.500,53960.000,5490.000,973630.000,-223000.000,336000.000,-45000.000,41.735,165.003,86.969,63.279,-32.073,-6.680,-15426.746,18353.668,1111.244
1512176774,-18.600,-39.100,142.200,41020.000,-4210.000,981990.000,-238000.000,334000.000,-47000.000,124.217,162.976,95.086,97.263,-21.889,-63.998,-15127.003,18316.620,958.679
1512176774,-26.200,-34.200,136.800,65980.000,37540.000,941650.000,-238000.000,334000.000,-47000.000,250.067,29.538,150.283,83.883,-19.770,-29.044,-15464.764,18278.618,736.534
1512176775,-24.000,-21.700,130.000,49190.000,10250.000,997560.000,-238000.000,334000.000,-47000.000,222.998,7.550,174.333,21.771,-30.081,-2.970,-15390.247,18166.229,773.346
1512176775,-1.100,5.200,119.000,13670.000,-2810.000,978820.000,-238000.000,334000.000,-47000.000,185.106,63.089,147.325,-8.111,-34.270,1.162,-15463.566,18541.107,774.155
1512176775,5.700,2.000,122.200,55050.000,16540.000,956180.000,-223000.000,343000.000,-52000.000,139.478,132.600,73.348,-15.261,-23.030,0.454,-15689.014,18465.775,551.025
1512176775,34.000,7.900,117.000,51210.000,-27830.000,1051210.000,-223000.000,343000.000,-52000.000,117.952,201.034,25.305,16.866,-23.264,2.725,-15613.636,18540.894,625.427
1512176775,40.600,1.500,124.000,6590.000,45530.000,996090.000,-223000.000,343000.000,-52000.000,104.168,189.270,19.732,38.362,-15.242,-16.193,-15614.460,18390.884,325.348
1512176775,8.300,-2.700,122.200,-7630.000,-6410.000,988160.000,-223000.000,343000.000,-52000.000,116.669,157.211,35.793,48.774,-36.292,-40.900,-15763.157,18690.659,251.770
1512176775,5.100,11.100,115.300,14220.000,15320.000,969540.000,-223000.000,343000.000,-52000.000,176.290,114.570,38.641,39.735,-34.099,-69.773,-15387.959,18766.235,-51.376
1512176775,-15.700,19.600,110.100,34120.000,23190.000,984250.000,-240000.000,322000.000,-49000.000,287.763,93.449,0.737,29.080,-26.706,-73.703,-15388.309,18691.223,-51.407
1512176775,-23.600,23.800,106.300,21120.000,2440.000,1008360.000,-240000.000,322000.000,-49000.000,456.880,64.952,-41.685,21.127,-23.980,-70.672,-15689.396,18465.775,-198.959
1512176775,-25.700,25.300,100.500,43700.000,18070.000,973140.000,-240000.000,322000.000,-49000.000,610.165,91.994,-90.538,12.388,-42.468,-59.445,-15691.639,18015.778,-649.170
1512176775,-17.300,16.600,102.400,10990.000,11840.000,1010740.000,-240000.000,322000.000,-49000.000,690.522,44.087,-119.399,16.337,-98.603,-77.675,-15842.579,17865.540,-1172.974
1512176775,-11.500,-1.600,103.600,3600.000,850.000,1019530.000,-240000.000,322000.000,-49000.000,786.623,-76.183,-263.407,-20.554,-133.699,-109.303,-16068.775,17640.213,-1546.158
1512176775,1.100,-18.400,110.400,13000.000,20140.000,1014100.000,-244000.000,326000.000,-49000.000,894.244,-104.350,-519.930,-105.540,-128.502,-114.312,-16295.948,17189.865,-1844.437
1512176775,7.700,-22.900,107.100,1460.000,2500.000,1057130.000,-244000.000,326000.000,-49000.000,1003.275,-12.719,-855.970,-185.245,-172.060,-82.984,-16749.332,16514.191,-2515.930
1512176775,4.400,-18.000,101.700,22580.000,-17520.000,1011290.000,-244000.000,326000.000,-49000.000,818.823,494.160,-1283.307,-262.367,-131.100,-88.937,-17205.448,15238.495,-3262.695
1512176775,-6.100,-16.100,96.700,10380.000,35830.000,996700.000,-244000.000,326000.000,-49000.000,555.919,1158.800,-1599.292,-219.726,-108.419,-61.662,-17812.016,13887.589,-4233.215
1512176775,-10.000,-4.800,89.700,4210.000,-7450.000,986390.000,-238000.000,334000.000,-50000.000,549.247,1617.233,-1688.404,-189.014,-7.590,-84.253,-17967.823,12762.360,-5732.452
1512176775,-5.700,0.400,82.400,-6230.000,1830.000,1012880.000,-238000.000,334000.000,-50000.000,434.473,1536.434,-1972.854,-48.151,-4.136,-100.424,-18427.906,10736.664,-7679.550
1512176775,1.200,16.600,84.600,6160.000,21300.000,931700.000,-238000.000,334000.000,-50000.000,641.680,1366.717,-1875.563,34.526,17.645,-53.953,-18136.692,9012.100,-9707.886
1512176775,9.100,27.600,77.800,31310.000,-17820.000,966000.000,-238000.000,334000.000,-50000.000,859.980,1044.074,-1682.698,87.374,52.556,-47.203,-17921.207,7137.436,-11885.666
1512176775,16.400,36.000,76.800,48340.000,24110.000,946660.000,-238000.000,334000.000,-50000.000,948.359,813.106,-1493.527,101.957,62.633,-23.317,-17707.432,4812.744,-13388.641
1512176775,16.100,36.600,79.900,31370.000,-2690.000,968440.000,-228000.000,320000.000,-44000.000,888.230,671.458,-1216.654,100.677,62.576,-25.947,-16748.325,1589.188,-16173.416
1512176775,25.400,17.600,81.000,-1160.000,790.000,994570.000,-228000.000,320000.000,-44000.000,803.551,616.675,-1126.389,91.507,94.991,-10.129,-16748.325,1589.188,-16173.416
1512176775,25.000,-4.400,81.900,1590.000,-4580.000,979430.000,-228000.000,320000.000,-44000.000,749.103,599.364,-1057.945,111.435,119.684,15.229,-16304.920,239.853,-17227.844
1512176775,21.000,-12.100,85.100,-33630.000,17030.000,1055970.000,-228000.000,320000.000,-44000.000,657.723,568.972,-883.474,168.117,129.493,58.056,-15862.156,-1259.476,-18207.367
1512176775,17.200,-12.800,78.700,-10380.000,14770.000,1059450.000,-249000.000,317000.000,-44000.000,565.102,401.583,-576.242,215.754,141.197,70.223,-15643.085,-2459.152,-19259.827
1512176775,12.000,-11.300,77.100,-24290.000,15500.000,1031980.000,-249000.000,317000.000,-44000.000,697.203,87.716,-295.046,161.399,121.586,79.282,-15127.659,-4445.877,-20502.701
1512176775,8.100,-18.200,72.000,-20570.000,-27400.000,988220.000,-249000.000,317000.000,-44000.000,441.238,168.167,-122.574,128.201,53.605,122.191,-15248.401,-6171.066,-21477.539
1512176775,-0.100,-31.400,67.800,15440.000,-2440.000,961430.000,-249000.000,317000.000,-44000.000,265.774,-75.639,-128.630,133.496,82.378,75.936,-15478.519,-7258.911,-21926.125
1512176775,-0.800,-15.200,57.700,-20690.000,-45040.000,999450.000,-249000.000,317000.000,-44000.000,326.205,-132.985,18.096,104.648,96.050,42.051,-15967.983,-7709.648,-21809.684
1512176775,-5.600,-5.600,58.600,34060.000,-3300.000,947270.000,-231000.000,317000.000,-50000.000,108.521,-38.476,132.003,107.434,73.303,37.673,-16156.727,-7972.427,-21920.715
1512176775,-7.200,-8.400,62.200,26490.000,-3720.000,947940.000,-231000.000,317000.000,-50000.000,93.059,-16.604,133.455,86.458,39.617,37.436,-16495.037,-8160.439,-21842.933
1512176775,-1.700,-0.900,61.700,850.000,-1460.000,972170.000,-231000.000,317000.000,-50000.000,22.542,61.243,147.097,89.365,2.732,49.530,-16569.263,-8010.544,-21654.725
1512176775,-4.800,-17.300,64.400,-4090.000,26920.000,993530.000,-231000.000,317000.000,-50000.000,-69.687,-126.418,170.691,60.399,27.752,23.922,-16830.418,-7748.436,-21314.880
1512176775,-1.600,-21.800,65.000,16240.000,19350.000,1028260.000,-231000.000,317000.000,-50000.000,-112.906,-121.679,174.349,29.660,27.777,-17.822,-17054.134,-7486.275,-21125.351
1512176775,-0.300,-14.800,70.000,-11110.000,12150.000,1037350.000,-258000.000,319000.000,-55000.000,-105.109,55.804,97.789,38.796,17.046,-18.028,-16977.711,-7186.165,-20975.845
1512176775,6.700,0.400,62.300,3780.000,-37780.000,1043330.000,-258000.000,319000.000,-55000.000,-119.459,-46.217,90.297,54.093,23.608,-12.311,-17127.316,-7111.389,-20862.038
1512176775,-7.100,-2.900,63.100,180.000,-6290.000,1003360.000,-258000.000,319000.000,-55000.000,-79.290,-59.483,78.040,21.211,23.372,-14.746,-17499.881,-6586.945,-20708.603
1512176776,-16.800,-9.200,55.000,40160.000,-59140.000,997440.000,-258000.000,319000.000,-55000.000,-138.872,-45.272,135.857,30.614,34.399,-36.218,-17762.257,-6587.341,-20443.878
1512176776,-9.200,-0.500,54.200,10070.000,-33080.000,997130.000,-251000.000,312000.000,-38000.000,-78.752,-76.103,108.904,16.585,22.522,-35.521,-17835.606,-6212.448,-20518.066
1512176776,-16.000,-2.800,51.500,43030.000,-49190.000,980470.000,-251000.000,312000.000,-38000.000,-136.969,-48.367,85.773,11.495,24.895,-44.972,-17986.698,-6437.668,-20666.901
1512176776,-10.900,11.100,53.300,2750.000,-38760.000,1004520.000,-251000.000,312000.000,-38000.000,-134.905,110.902,33.054,10.978,11.044,-45.127,-17610.447,-6212.112,-20219.971
1512176776,-4.000,10.100,51.300,14830.000,-30640.000,1028380.000,-251000.000,312000.000,-38000.000,-95.254,169.732,23.172,41.737,16.728,-39.976,-17612.217,-6587.112,-20370.148
1512176776,0.900,-0.300,55.700,-36560.000,-31190.000,1015200.000,-251000.000,312000.000,-38000.000,1.449,195.475,42.784,51.941,14.194,-9.942,-17984.959,-6062.668,-20591.721
1512176776,2.000,-7.700,56.600,-6230.000,-41380.000,1043700.000,-235000.000,313000.000,-33000.000,6.167,146.279,77.863,63.644,11.366,10.758,-17383.045,-5611.771,-20821.609
1512176776,5.600,-16.800,58.500,-25510.000,-36440.000,1000310.000,-235000.000,313000.000,-33000.000,-42.869,72.502,73.696,58.980,29.523,21.863,-17533.390,-5686.996,-20820.374
1512176776,5.900,-23.600,61.800,-43150.000,-28930.000,1024170.000,-235000.000,313000.000,-33000.000,-62.456,-0.204,94.481,59.791,41.105,-6.504,-17684.696,-5987.228,-20744.232
1512176776,9.500,-3.500,56.600,0.000,-21300.000,1005920.000,-235000.000,313000.000,-33000.000,-93.023,-66.430,70.356,38.874,51.990,-16.956,-17834.629,-5987.442,-20592.957
1512176776,-11.700,21.800,48.200,32650.000,-60120.000,961910.000,-235000.000,313000.000,-33000.000,-113.860,-25.820,42.475,17.709,52.162,-38.600,-17986.057,-6287.674,-20741.821
1512176776,-24.900,33.300,42.700,74950.000,-37230.000,966980.000,-247000.000,319000.000,-45000.000,-120.391,114.202,-7.237,27.699,37.039,-40.595,-17759.022,-5837.326,-20743.530
1512176776,-33.200,35.000,41.800,59510.000,-65430.000,976260.000,-247000.000,319000.000,-45000.000,-149.867,196.448,-25.500,68.693,28.351,-32.355,-17533.772,-5761.993,-20895.401
1512176776,-36.400,13.300,40.500,43210.000,-61950.000,1021970.000,-247000.000,319000.000,-45000.000,-106.025,176.105,29.431,92.216,25.206,-21.966,-17533.878,-5761.993,-21120.407
1512176776,-26.100,-2.300,49.300,-34300.000,-12630.000,1020940.000,-247000.000,319000.000,-45000.000,-54.759,54.309,83.056,108.805,28.408,-12.301,-17532.825,-5536.987,-21045.303
1512176776,-11.700,-3.100,53.100,-44920.000,-61710.000,1018680.000,-251000.000,290000.000,-45000.000,-10.801,-55.736,127.018,83.302,50.026,-20.316,-17383.198,-5611.771,-21121.613
1512176776,-4.500,19.600,58.700,-42970.000,-45840.000,971130.000,-251000.000,290000.000,-45000.000,-3.585,-57.890,142.041,54.585,65.760,-10.453,-17307.865,-5536.652,-21122.208
1512176776,-7.100,16.400,59.000,-18430.000,-53100.000,975040.000,-251000.000,290000.000,-45000.000,-50.873,-19.556,167.074,53.785,84.123,-0.019,-17306.477,-5236.649,-21047.073
1512176776,3.100,17.300,57.900,-23800.000,-24480.000,1060420.000,-251000.000,290000.000,-45000.000,-106.540,-6.856,181.234,82.450,96.338,19.093,-17306.370,-5236.649,-20822.083
1512176776,3.300,11.600,51.800,-11900.000,-64580.000,1068540.000,-251000.000,290000.000,-45000.000,-141.948,-33.892,323.481,138.756,118.515,44.829,-17454.716,-4861.877,-20895.630
1512176776,-5.200,24.500,42.600,11540.000,-34300.000,1031620.000,-254000.000,312000.000,-38000.000,-124.693,-177.602,628.126,215.057,137.372,75.445,-17228.779,-4636.536,-21047.440
1512176776,-9.300,36.400,46.700,-40160.000,-32350.000,1008610.000,-254000.000,312000.000,-38000.000,-113.428,-486.023,1028.051,289.140,191.787,107.957,-17526.035,-4111.984,-20294.647
1512176776,-10.800,45.700,46.600,-11600.000,-57010.000,1024230.000,-254000.000,312000.000,-38000.000,-72.121,-844.697,1479.410,277.219,302.062,99.692,-18194.889,-2837.982,-19463.318
1512176776,-11.100,54.100,50.100,-4460.000,-45290.000,974550.000,-254000.000,312000.000,-38000.000,40.766,-807.666,1746.623,205.878,341.338,1.229,-19013.889,-1639.206,-18255.753
1512176776,-12.100,44.600,54.300,-33330.000,-51880.000,991460.000,-256000.000,324000.000,-40000.000,60.019,-489.841,2017.724,169.673,309.217,-17.968,-19531.803,-214.996,-16900.650
1512176776,-18.400,26.500,53.300,-7020.000,-59810.000,979130.000,-256000.000,324000.000,-40000.000,-42.330,-100.528,2230.806,158.007,272.318,-13.354,-20048.527,1509.232,-15845.398
1512176776,-7.200,10.700,57.900,21360.000,-39550.000,959960.000,-256000.000,324000.000,-40000.000,-115.892,96.383,2531.588,141.150,201.992,-48.094,-20560.268,4245.971,-13964.668
1512176776,-3.100,4.500,62.100,1950.000,-61340.000,979190.000,-256000.000,324000.000,-40000.000,-135.535,-51.697,2584.090,78.487,86.140,-86.731,-19557.178,10172.470,-11120.239
1512176776,12.300,17.300,57.000,27280.000,-48340.000,973270.000,-256000.000,324000.000,-40000.000,-121.173,-193.482,2449.481,-92.864,11.214,-169.502,-18482.174,15386.589,-8051.773
1512176776,17.400,10.400,56.900,4880.000,-30700.000,966000.000,-247000.000,312000.000,-32000.000,-18.226,89.620,1974.364,-177.200,-35.075,-163.371,-16849.811,19551.536,-5813.561
1512176776,21.800,-0.400,53.000,-1340.000,-72200.000,987610.000,-247000.000,312000.000,-32000.000,227.414,-236.022,1543.437,-435.095,-175.696,-177.734,-15260.937,22478.920,-4400.597
1512176776,25.000,-3.500,54.700,-10800.000,-60120.000,968990.000,-247000.000,312000.000,-32000.000,562.893,-598.456,607.837,-500.305,-203.881,-24.018,-14993.137,23566.825,-3577.332
1512176776,23.400,-15.200,53.500,-20870.000,-60970.000,946780.000,-247000.000,312000.000,-32000.000,21.484,-96.048,9.545,-54.207,80.444,108.210,-15218.304,23528.984,-3575.439
1512176776,13.200,-20.200,55.000,2260.000,-64450.000,943660.000,-247000.000,312000.000,-32000.000,-75.216,-239.373,-242.880,160.506,169.349,113.095,-15445.133,23116.143,-3536.217
1512176776,13.700,-20.200,53.700,13490.000,-64580.000,955380.000,-249000.000,324000.000,-37000.000,-482.795,128.803,-106.248,102.443,23.312,-19.822,-15257.397,23116.425,-3050.316
1512176776,13.000,-7.700,55.800,-24410.000,-58110.000,1057860.000,-249000.000,324000.000,-37000.000,-296.579,213.297,-16.906,-6.924,-68.094,-119.705,-14619.961,23079.880,-2830.742
1512176776,10.800,5.300,55.900,-8970.000,-29420.000,1039060.000,-249000.000,324000.000,-37000.000,-82.468,236.565,-6.263,-25.312,-19.903,-127.147,-14282.666,23042.893,-2908.638
1512176776,6.000,-0.500,62.200,-2260.000,-55910.000,1009890.000,-249000.000,324000.000,-37000.000,-26.021,285.439,-96.953,47.887,38.982,-43.780,-14207.157,23192.993,-3246.704
1512176777,17.800,9.600,66.300,-7870.000,-61460.000,1047180.000,-258000.000,308000.000,-45000.000,-169.013,187.876,-29.007,35.437,38.608,-25.335,-14170.353,23043.060,-3284.592
1512176777,-1.100,17.000,61.300,23990.000,-31860.000,955990.000,-258000.000,308000.000,-45000.000,-179.131,66.037,-2.925,-12.570,34.881,-48.743,-14318.516,23417.831,-2983.139
1512176777,12.700,5.700,63.300,30330.000,-82090.000,1019350.000,-258000.000,308000.000,-45000.000,-126.658,-35.453,42.256,-73.971,34.973,-55.097,-14019.901,23118.286,-3060.837
1512176777,19.000,5.200,67.600,35830.000,-42300.000,984010.000,-258000.000,308000.000,-45000.000,-35.812,-50.240,27.530,-107.111,42.140,-48.492,-14092.991,23493.164,-2610.016
1512176777,18.400,-8.800,71.900,40340.000,-22160.000,986820.000,-258000.000,308000.000,-45000.000,8.736,-25.502,-21.842,-97.453,48.382,-15.255,-14245.884,22892.944,-2984.024
1512176777,35.300,11.100,71.000,35520.000,-23440.000,1026610.000,-245000.000,303000.000,-60000.000,-12.310,30.040,-35.812,-57.290,50.573,19.837,-14018.101,23493.286,-2835.663
1512176777,32.900,27.700,71.500,15440.000,-25570.000,1007390.000,-245000.000,303000.000,-60000.000,-71.697,97.277,-51.363,-2.003,43.900,28.862,-13643.101,23493.851,-2838.837
1512176777,24.600,33.200,70.200,35580.000,-23190.000,1025820.000,-245000.000,303000.000,-60000.000,-112.824,97.268,-78.610,64.460,43.517,26.205,-14093.250,23493.164,-3135.025
1512176777,21.600,32.000,69.200,20390.000,22280.000,1030030.000,-245000.000,303000.000,-60000.000,-135.232,35.282,-80.216,110.475,61.811,4.467,-13945.011,23118.393,-3286.469
1512176777,23.800,30.400,68.000,3110.000,-10190.000,1085820.000,-245000.000,303000.000,-60000.000,-51.771,-42.657,-38.771,153.173,70.746,2.843,-13944.233,23268.387,-3061.401
1512176777,25.400,21.600,65.900,6230.000,17090.000,1032530.000,-245000.000,296000.000,-33000.000,34.127,-106.789,50.736,159.866,72.060,4.752,-13870.655,22968.506,-3212.173
1512176777,26.900,7.600,69.500,-29600.000,4270.000,1057370.000,-245000.000,296000.000,-33000.000,130.991,-109.051,188.586,119.412,30.268,-0.860,-14019.413,23268.280,-3435.760
1512176777,31.700,21.300,67.100,-2200.000,11840.000,1022340.000,-245000.000,296000.000,-33000.000,162.425,4.021,291.776,49.999,-30.904,-15.291,-14018.894,23343.277,-3060.730
1512176777,16.800,36.600,68.200,15380.000,-6100.000,988160.000,-245000.000,296000.000,-33000.000,92.932,154.494,311.549,-20.009,-82.079,-31.270,-13718.220,23493.729,-3063.217
1512176777,4.800,37.800,73.500,12510.000,13850.000,1021910.000,-249000.000,303000.000,-60000.000,-19.309,262.293,270.854,-57.511,-66.038,-44.656,-13267.841,23569.412,-2992.004
1512176777,-0.800,35.200,76.200,23860.000,-16050.000,969120.000,-249000.000,303000.000,-60000.000,-106.407,249.501,185.325,-66.042,-6.570,-58.872,-13116.291,23944.641,-3293.106
1512176777,-14.200,21.000,81.900,73060.000,-3170.000,940370.000,-249000.000,303000.000,-60000.000,-89.579,188.881,68.096,-49.675,45.496,-55.870,-13114.506,24319.641,-3067.932
1512176777,-18.600,4.800,94.500,46750.000,16780.000,959470.000,-249000.000,303000.000,-60000.000,-75.085,166.544,27.715,-50.528,62.895,-49.622,-13113.941,24469.635,-3292.862
1512176777,-19.800,-2.300,99.900,27770.000,1220.000,936340.000,-249000.000,303000.000,-60000.000,-80.772,155.812,48.917,-72.165,52.164,-36.614,-12962.803,24694.870,-3069.031
1512176777,-25.200,-10.000,104.100,38390.000,6770.000,887760.000,-251000.000,304000.000,-59000.000,-113.105,129.017,68.609,-122.791,30.353,-40.281,-13036.686,24919.754,-2843.292
1512176777,6.100,13.000,110.000,71470.000,-9030.000,927920.000,-251000.000,304000.000,-59000.000,-88.210,57.535,42.068,-150.049,33.239,-38.820,-12512.241,24845.535,-3297.791
1512176777,9.200,37.300,114.400,29300.000,-7200.000,912540.000,-251000.000,304000.000,-59000.000,-6.249,6.635,-81.648,-103.198,66.628,-21.995,-12663.593,24545.319,-3296.646
1512176777,3.100,45.000,115.600,82030.000,-790.000,937680.000,-251000.000,304000.000,-59000.000,57.670,-1.562,-208.678,6.448,68.987,44.413,-12662.891,24695.312,-3221.573
1512176777,-2.000,20.600,116.900,74280.000,-5980.000,994260.000,-251000.000,304000.000,-59000.000,-38.190,-54.030,-215.576,97.816,65.497,74.186,-12514.011,24470.535,-3447.968
1512176777,-3.700,-11.200,119.300,48160.000,2560.000,1013550.000,-253000.000,296000.000,-50000.000,-140.529,-36.161,-150.904,136.995,42.567,59.229,-12516.071,24020.538,-3523.163
1512176777,8.000,-27.700,130.000,5920.000,45350.000,1053590.000,-253000.000,296000.000,-50000.000,-147.569,1.008,-45.336,140.249,4.788,25.918,-12441.746,23870.651,-3523.880
1512176777,11.300,-10.700,135.400,17090.000,11110.000,1048770.000,-253000.000,296000.000,-50000.000,-67.886,186.153,108.907,77.316,-57.597,-42.646,-12292.126,23795.868,-3600.174
1512176777,13.300,-6.500,141.300,22030.000,25090.000,1033080.000,-253000.000,296000.000,-50000.000,23.162,222.471,181.779,33.711,-33.024,-74.963,-11690.823,24096.779,-3717.636
1512176777,4.500,5.700,144.200,12510.000,9520.000,999630.000,-265000.000,287000.000,-76000.000,115.733,13.370,117.363,17.293,56.435,-49.075,-11839.649,24396.545,-4053.719
1512176777,-9.200,-13.800,149.500,41200.000,29480.000,1009160.000,-265000.000,287000.000,-76000.000,168.226,-70.895,98.110,-33.035,27.454,-0.394,-11875.492,24733.994,-3790.749
1512176777,-18.800,-10.100,149.500,63110.000,10560.000,1035710.000,-265000.000,287000.000,-76000.000,55.017,-82.715,45.257,-35.029,-43.306,23.599,-11801.533,24509.110,-3828.987
1512176777,-35.200,-3.200,145.300,120790.000,-3910.000,1007690.000,-265000.000,287000.000,-76000.000,4.692,-18.542,-35.203,22.885,-24.363,6.198,-11727.032,24396.720,-3829.682
1512176777,-46.600,4.000,157.800,91190.000,8420.000,976870.000,-265000.000,287000.000,-76000.000,76.808,38.667,-9.439,75.699,-11.103,18.017,-11653.255,24171.829,-4242.920
1512176777,-51.700,-1.100,151.700,100950.000,24230.000,977720.000,-261000.000,301000.000,-76000.000,26.648,20.640,154.477,14.627,-27.787,5.237,-11727.650,24284.217,-4054.726
1512176777,-80.800,9.900,161.500,34610.000,-45170.000,986760.000,-261000.000,301000.000,-76000.000,38.706,44.326,71.049,-64.203,0.632,-31.976,-11539.402,24472.000,-4243.736
1512176777,-103.700,-29.200,191.600,67570.000,-7200.000,952330.000,-261000.000,301000.000,-76000.000,70.416,-41.919,-46.059,-15.119,25.122,25.647,-11914.028,24546.440,-4165.512
1512176777,-7.200,-10.900,193.100,63600.000,-48460.000,903870.000,-261000.000,301000.000,-76000.000,68.413,-70.683,-87.764,15.484,46.181,68.249,-11877.934,24246.490,-4278.473
1512176777,10.000,-27.600,187.900,27590.000,-9520.000,925960.000,-277000.000,289000.000,-64000.000,-4.380,18.699,31.956,67.162,4.801,114.046,-11766.377,24059.158,-4467.010
1512176778,66.000,-32.500,208.900,17820.000,13980.000,977290.000,-277000.000,289000.000,-64000.000,-132.615,175.816,154.839,68.681,-67.057,65.875,-11316.517,24022.339,-4433.365
1512176778,63.900,-55.400,199.700,-6900.000,3910.000,1040830.000,-277000.000,289000.000,-64000.000,-239.448,316.618,176.172,52.063,-91.513,-6.873,-11091.587,24022.675,-4585.266
1512176778,63.900,-25.000,178.300,6040.000,20080.000,1004880.000,-277000.000,289000.000,-64000.000,-271.715,405.316,133.371,34.591,-89.637,-77.819,-10716.969,23948.242,-4663.498
1512176778,49.800,-8.300,176.800,64700.000,22400.000,1021420.000,-277000.000,289000.000,-64000.000,-224.115,354.330,24.079,51.539,-45.456,-122.449,-10639.973,24398.346,-4738.922
1512176778,51.000,48.500,164.200,97470.000,16910.000,1063050.000,-281000.000,282000.000,-74000.000,-60.301,175.351,-92.504,85.836,7.536,-111.321,-10714.344,24548.233,-4813.217
1512176778,28.900,32.500,160.600,127440.000,31620.000,1024110.000,-281000.000,282000.000,-74000.000,64.447,-17.781,-103.095,112.134,49.086,-85.548,-10789.341,24548.126,-4812.576
1512176778,-22.600,12.300,157.700,84960.000,44860.000,1018740.000,-281000.000,282000.000,-74000.000,174.074,-150.336,30.222,71.379,44.297,-51.986,-10864.948,24398.010,-4662.003
1512176778,-12.300,9.500,160.600,77700.000,7930.000,1006530.000,-281000.000,282000.000,-74000.000,291.204,-268.046,226.598,-21.841,20.846,-7.042,-10864.262,24548.019,-4661.942
1512176778,-3.500,-1.500,167.500,60060.000,9770.000,1021480.000,-281000.000,282000.000,-74000.000,281.017,-289.752,390.547,-135.639,-27.500,15.594,-11088.596,24697.678,-4659.958
1512176778,-33.800,-16.400,178.800,42850.000,1220.000,926090.000,-300000.000,280000.000,-69000.000,189.049,-281.250,344.473,-214.767,-41.855,33.846,-11238.483,24697.449,-4433.685
1512176778,-48.600,-8.100,178.300,78610.000,14470.000,892580.000,-300000.000,280000.000,-69000.000,76.825,-175.210,107.613,-193.348,-8.442,59.453,-10937.809,24847.900,-4436.172
1512176778,-42.500,3.300,177.600,68910.000,-13060.000,909000.000,-300000.000,280000.000,-69000.000,-22.110,-0.722,-154.395,-85.346,11.742,86.134,-11238.026,24772.461,-4208.649
1512176778,-54.500,-11.900,177.100,106930.000,21000.000,915220.000,-300000.000,280000.000,-69000.000,-209.630,193.656,-280.096,50.128,1.425,95.888,-11313.480,24697.342,-4433.044
1512176778,-40.300,-20.200,185.400,97290.000,7930.000,998290.000,-288000.000,292000.000,-57000.000,-363.533,299.117,-251.042,133.176,-24.724,47.203,-11238.895,24622.452,-4583.725
1512176778,-17.700,-16.600,187.600,41020.000,8850.000,1003050.000,-288000.000,292000.000,-57000.000,-389.732,286.056,-150.194,155.377,-39.508,-46.416,-11316.074,24172.333,-4883.286
1512176778,-4.000,-5.500,190.500,73670.000,23800.000,1001100.000,-288000.000,292000.000,-57000.000,-255.083,197.393,-45.144,147.629,-34.207,-112.902,-11243.687,23572.449,-4734.192
1512176778,61.500,20.100,189.400,28260.000,180.000,1144960.000,-288000.000,292000.000,-57000.000,7.335,46.960,66.874,139.011,0.134,-122.190,-11015.614,24247.787,-4660.797
1512176778,39.300,3.600,192.300,20750.000,41560.000,1058230.000,-288000.000,292000.000,-57000.000,267.935,-114.124,158.570,107.195,24.705,-79.724,-11238.926,24622.452,-4658.722
1512176778,32.000,-1.200,194.400,18130.000,5800.000,1103580.000,-289000.000,280000.000,-59000.000,425.487,-250.758,229.669,64.180,17.368,-6.109,-11165.058,24397.568,-4884.460
1512176778,32.500,1.500,183.200,60550.000,47420.000,1077510.000,-289000.000,280000.000,-59000.000,392.228,-297.826,240.753,-0.892,-0.843,41.125,-11539.341,24546.997,-4806.198
1512176778,22.800,-16.200,181.200,33750.000,40590.000,1027220.000,-289000.000,280000.000,-59000.000,291.555,-245.574,206.426,-61.510,-12.012,67.092,-11540.012,24397.003,-4806.274
1512176778,-12.500,-39.300,184.600,30090.000,36560.000,916440.000,-289000.000,280000.000,-59000.000,163.706,-171.933,140.868,-95.557,-5.784,77.933,-11464.725,24472.107,-4881.866
1512176778,-39.000,-57.700,187.100,85080.000,27220.000,946470.000,-296000.000,262000.000,-69000.000,82.561,-106.793,86.614,-92.936,5.623,78.394,-11764.576,24471.664,-4579.330
1512176778,-19.000,-35.600,194.300,46330.000,26920.000,1004580.000,-296000.000,262000.000,-69000.000,17.036,-45.818,-10.070,-56.878,21.279,83.396,-11989.948,24396.332,-4652.451
1512176778,-38.700,-33.000,196.300,96560.000,32650.000,979920.000,-296000.000,262000.000,-69000.000,-102.609,50.828,-86.621,14.144,7.497,76.580,-11916.432,24058.938,-4578.240
1512176778,-45.300,-34.900,198.100,107360.000,8480.000,977540.000,-296000.000,262000.000,-69000.000,-152.655,106.302,-87.152,70.543,-15.912,27.861,-12142.498,23833.596,-4688.935
1512176778,-40.300,-22.800,199.200,95640.000,34240.000,983700.000,-296000.000,262000.000,-69000.000,-55.545,109.816,100.827,32.751,-46.397,-14.712,-11878.811,24096.497,-4691.040
1512176778,-8.700,2.800,201.500,92650.000,-22640.000,966740.000,-282000.000,255000.000,-59000.000,9.830,146.145,146.141,-29.465,-31.962,-30.021,-11616.467,24059.379,-4655.792
1512176778,-26.600,6.500,205.700,85270.000,13310.000,902530.000,-282000.000,255000.000,-59000.000,-55.580,166.014,40.789,-13.647,-0.554,-31.019,-11091.610,24022.667,-4622.764
1512176778,-36.600,-3.300,201.900,80260.000,-12150.000,976260.000,-282000.000,255000.000,-59000.000,-6.199,78.269,-113.379,72.785,21.105,-8.804,-11241.765,24022.453,-4921.494
1512176778,-35.800,-24.400,202.300,151430.000,19410.000,981140.000,-282000.000,255000.000,-59000.000,13.766,-16.988,-3.618,117.409,-12.004,10.576,-11167.515,23835.052,-4734.718
1512176778,-28.600,-26.800,202.500,120300.000,31250.000,1006040.000,-282000.000,255000.000,-59000.000,51.161,-8.697,153.130,61.451,-49.161,-5.861,-11017.369,23872.788,-4773.476
1512176778,-32.800,-65.100,204.400,77210.000,-3170.000,1016480.000,-295000.000,264000.000,-60000.000,63.205,30.817,168.368,11.363,-25.939,-12.285,-11130.093,23797.615,-4547.562
1512176778,-6.100,-45.900,206.700,27400.000,25390.000,957700.000,-295000.000,264000.000,-60000.000,43.976,43.193,106.834,5.839,11.505,7.237,-10977.596,24360.344,-4623.574
1512176778,5.600,-3.900,206.900,45350.000,-21970.000,1014280.000,-295000.000,264000.000,-60000.000,-54.620,76.752,75.138,-3.465,6.904,-11.703,-10939.701,24435.394,-4511.352
1512176778,41.700,8.300,206.300,33260.000,57430.000,1098940.000,-295000.000,264000.000,-60000.000,-127.868,129.550,59.337,5.229,-5.501,-57.427,-10865.154,24323.013,-4399.544
1512176778,45.700,11.300,211.500,62010.000,27340.000,1078250.000,-295000.000,253000.000,-57000.000,-33.770,48.082,5.514,29.697,26.157,-78.173,-10602.047,24435.906,-4214.226
1512176779,62.100,35.400,198.700,25940.000,56090.000,1066650.000,-295000.000,253000.000,-57000.000,81.455,-37.242,28.209,26.120,32.840,-51.672,-10637.318,24923.355,-4138.672
1512176779,47.700,24.100,210.500,3360.000,64940.000,1015870.000,-295000.000,253000.000,-57000.000,139.498,-76.745,61.959,12.863,24.493,-20.924,-10414.753,24398.682,-4290.833
1512176779,16.100,17.400,209.600,-23250.000,10130.000,1010310.000,-295000.000,253000.000,-57000.000,103.113,-50.111,72.188,9.130,21.685,11.451,-10563.709,24623.459,-4214.462
1512176779,7.200,35.300,198.700,49130.000,10190.000,982180.000,-295000.000,253000.000,-57000.000,61.676,41.695,67.640,27.426,5.437,42.232,-10712.238,24923.248,-3988.037
1512176779,-8.900,57.500,206.300,86730.000,13310.000,948240.000,-284000.000,246000.000,-71000.000,-52.729,104.501,91.789,45.687,-6.982,42.946,-10338.261,24698.807,-3991.333
1512176779,-7.600,61.000,191.600,125980.000,54500.000,1070920.000,-284000.000,246000.000,-71000.000,-169.575,199.428,70.168,52.265,-18.742,-0.763,-10413.364,24698.685,-4215.698
1512176779,-42.900,34.000,207.100,137760.000,38880.000,967410.000,-284000.000,246000.000,-71000.000,-219.955,264.603,25.959,61.326,-0.497,-65.393,-10112.659,24849.136,-4143.173
1512176779,-34.800,8.900,210.400,65980.000,34730.000,1057920.000,-284000.000,246000.000,-71000.000,-163.421,275.501,-40.347,75.012,33.964,-108.925,-9888.248,24699.478,-3995.148
1512176779,-14.100,3.200,216.000,74520.000,35280.000,1069400.000,-284000.000,246000.000,-71000.000,-2.847,191.444,-85.221,115.575,75.473,-93.573,-9810.932,25224.594,-4070.557
1512176779,2.000,-8.100,229.400,35400.000,9640.000,1014890.000,-298000.000,236000.000,-74000.000,145.656,39.920,-46.280,157.817,92.340,-47.138,-9738.407,24699.707,-4296.432
1512176779,-8.400,-1.100,233.200,98330.000,8610.000,977540.000,-298000.000,236000.000,-74000.000,238.385,-111.869,76.064,149.401,80.244,9.249,-9512.394,24925.049,-4298.233
1512176779,-2.000,-6.100,233.600,70250.000,69460.000,1062440.000,-298000.000,236000.000,-74000.000,293.389,-236.932,160.644,112.234,76.084,44.589,-9961.460,25149.368,-4444.321
1512176779,-11.600,-14.100,230.800,126100.000,21000.000,1006770.000,-298000.000,236000.000,-74000.000,322.941,-255.078,178.067,87.655,44.036,86.563,-9885.334,25374.481,-4219.849
1512176779,-19.800,-8.400,218.000,175780.000,10440.000,967830.000,-312000.000,236000.000,-57000.000,230.645,-200.824,217.426,52.901,13.650,103.419,-9810.627,25299.591,-4145.523
1512176779,-32.600,-32.500,227.700,107970.000,41690.000,967290.000,-312000.000,236000.000,-57000.000,62.899,25.316,252.032,-2.477,-56.010,83.294,-9659.946,25449.814,-4146.729
1512176779,-71.900,-71.000,227.000,85510.000,17700.000,967100.000,-312000.000,236000.000,-57000.000,-157.013,312.258,283.956,-45.690,-112.454,16.535,-8983.860,25675.842,-4002.350
1512176779,-14.000,-69.200,229.700,69700.000,26250.000,1003170.000,-312000.000,236000.000,-57000.000,-396.150,547.092,187.498,-68.458,-109.651,-91.338,-8979.816,26575.836,-4001.938
1512176779,16.000,-49.700,245.400,58590.000,45230.000,963990.000,-312000.000,236000.000,-57000.000,-442.163,678.752,9.253,-41.923,-52.113,-177.233,-8752.079,27176.178,-3928.574
1512176779,1.600,-49.100,241.800,115110.000,23010.000,949890.000,-305000.000,218000.000,-64000.000,-346.927,623.788,-208.097,32.178,43.625,-205.194,-8602.192,27176.407,-4154.846
1512176779,16.400,-30.400,247.800,81600.000,26920.000,977540.000,-305000.000,218000.000,-64000.000,-146.027,427.877,-376.438,122.045,107.314,-165.336,-8602.940,27026.413,-4304.916
1512176779,-3.500,-18.900,246.200,158140.000,20020.000,926820.000,-305000.000,218000.000,-64000.000,24.491,197.292,-320.403,170.391,97.296,-99.252,-8603.275,26951.401,-4304.962
1512176779,-34.200,-16.900,245.000,126710.000,30580.000,969120.000,-305000.000,218000.000,-64000.000,85.927,13.245,-111.205,151.339,63.844,-61.312,-8677.784,27101.288,-4679.245
1512176779,-44.200,-25.600,244.300,136050.000,44310.000,968690.000,-305000.000,218000.000,-64000.000,129.278,-100.331,99.043,77.780,14.632,-37.217,-8825.382,27626.068,-4602.737
1512176779,-53.300,-36.000,247.900,122250.000,14040.000,976010.000,-302000.000,211000.000,-64000.000,146.512,-129.376,216.459,-14.020,4.667,-40.579,-8675.724,27551.300,-4604.050
1512176779,-53.900,-39.800,262.300,99490.000,40220.000,950440.000,-302000.000,211000.000,-64000.000,149.387,-51.311,175.196,-55.847,12.985,-16.971,-8750.721,27551.178,-4603.409
1512176779,-43.300,-35.200,263.400,99790.000,6350.000,1009280.000,-302000.000,211000.000,-64000.000,101.377,76.906,118.443,-31.642,21.983,4.422,-9199.863,27775.513,-4899.475
1512176779,40.700,-25.700,301.200,122920.000,54020.000,1019960.000,-302000.000,211000.000,-64000.000,-52.428,234.437,14.955,71.564,5.112,-4.684,-9387.760,27700.234,-5010.414
1512176779,-9.300,-12.100,278.200,155210.000,610.000,973690.000,-303000.000,199000.000,-52000.000,-104.598,223.213,-22.087,194.707,2.941,-65.676,-9087.208,27850.677,-5275.391
1512176779,33.800,-5.100,283.500,114500.000,87830.000,1031740.000,-303000.000,199000.000,-52000.000,55.810,118.058,72.088,231.016,29.829,-91.866,-9351.063,27587.784,-5610.779
1512176779,5.200,-5.700,276.600,134030.000,10800.000,1049680.000,-303000.000,199000.000,-52000.000,237.782,-46.041,277.236,157.105,32.902,-51.733,-9123.455,28188.125,-5799.919
1512176779,13.800,38.000,266.600,115230.000,39180.000,1043820.000,-303000.000,199000.000,-52000.000,299.509,-155.034,342.780,9.722,12.424,5.429,-9047.970,28300.735,-5838.005
1512176779,-22.800,33.300,263.800,171510.000,41380.000,995000.000,-303000.000,199000.000,-52000.000,173.414,-25.767,237.994,-81.945,5.318,47.478,-9420.681,28825.180,-5984.566
1512176779,-15.600,36.900,255.500,182680.000,18310.000,1014950.000,-291000.000,208000.000,-60000.000,-78.060,146.553,142.738,-97.783,25.509,36.737,-9270.191,28937.905,-6023.293
1512176779,-25.300,9.100,261.900,127440.000,29790.000,906070.000,-291000.000,208000.000,-60000.000,-177.360,273.738,28.738,-33.834,27.834,-21.212,-8971.569,28675.850,-6400.963
1512176779,25.200,53.900,254.500,166380.000,34060.000,1072390.000,-291000.000,208000.000,-60000.000,-257.048,383.385,-111.155,93.856,10.309,-75.081,-8785.999,28263.626,-6552.742
1512176779,8.700,67.500,255.500,105650.000,-12080.000,1017210.000,-291000.000,208000.000,-60000.000,-221.732,376.513,-119.729,219.606,14.162,-134.017,-8410.106,28489.197,-6818.328
1512176779,-6.400,47.500,260.700,108400.000,30760.000,964600.000,-293000.000,202000.000,-52000.000,84.656,128.724,100.791,230.988,31.118,-143.163,-8299.336,28114.364,-6894.462
1512176779,17.400,53.400,264.300,190920.000,12020.000,980830.000,-293000.000,202000.000,-52000.000,469.138,-204.899,299.754,157.160,81.205,-13.351,-8486.164,28264.084,-6892.800
1512176780,64.000,92.000,268.700,64760.000,7930.000,996640.000,-293000.000,202000.000,-52000.000,534.634,-222.214,464.817,38.794,19.218,73.979,-8522.495,28526.520,-6929.855
1512176780,8.700,65.400,271.000,120850.000,37660.000,981990.000,-293000.000,202000.000,-52000.000,383.537,-32.415,521.923,-83.003,-55.958,63.181,-8447.605,28526.642,-7155.487
1512176780,0.400,59.500,265.300,116700.000,-4090.000,1023860.000,-293000.000,202000.000,-52000.000,153.592,188.499,449.002,-159.440,-89.855,30.654,-8446.598,28751.648,-7155.396
1512176780,-1.700,59.700,262.900,60120.000,39120.000,968630.000,-307000.000,199000.000,-66000.000,-131.202,321.000,206.540,-135.566,-37.038,-15.263,-7919.865,29127.426,-7084.686
1512176780,-15.200,54.600,258.600,85570.000,490.000,998050.000,-307000.000,199000.000,-66000.000,-227.723,331.032,-81.595,-50.178,46.938,-72.127,-8145.283,29052.094,-7232.803
1512176780,-16.500,53.300,258.300,78060.000,20390.000,991330.000,-307000.000,199000.000,-66000.000,-177.541,303.731,-281.381,52.472,92.748,-93.074,-8296.741,28751.862,-7456.665
1512176780,-17.300,37.000,258.600,103090.000,30700.000,979860.000,-307000.000,199000.000,-66000.000,-119.363,314.443,-253.852,117.790,57.320,-94.224,-7995.701,28977.310,-7384.094
1512176780,-10.000,32.200,264.500,90580.000,-20510.000,974000.000,-307000.000,199000.000,-66000.000,-99.412,250.099,-108.801,131.152,17.742,-120.706,-8372.379,28601.746,-7381.088
1512176780,-3.100,30.200,261.800,116460.000,40160.000,985410.000,-293000.000,202000.000,-55000.000,-13.699,110.107,-12.100,65.322,-31.933,-162.705,-8222.797,28526.978,-7532.394
1512176780,-6.400,0.700,266.300,108760.000,44310.000,991270.000,-293000.000,202000.000,-55000.000,192.162,25.922,40.691,-18.570,-55.641,-180.288,-8374.256,28226.746,-7756.256
1512176780,10.800,18.400,266.700,66650.000,12570.000,1051330.000,-293000.000,202000.000,-55000.000,337.473,5.893,20.341,-23.133,-37.895,-125.424,-8373.280,28451.752,-7831.161
1512176780,8.400,28.800,261.000,102230.000,24960.000,1013610.000,-293000.000,202000.000,-55000.000,361.619,4.943,-21.955,31.297,5.405,-29.971,-8447.727,28601.639,-8055.450
1512176780,6.000,30.400,265.700,81600.000,21550.000,1007200.000,-302000.000,186000.000,-47000.000,283.147,1.674,-46.554,88.800,40.933,36.746,-8600.239,28076.416,-8354.416
1512176780,-4.000,23.700,260.300,90640.000,35710.000,978700.000,-302000.000,186000.000,-47000.000,135.530,-27.460,-18.950,128.944,79.381,67.697,-8600.010,28151.413,-8579.391
1512176780,-3.900,17.800,262.100,79160.000,47000.000,1031250.000,-302000.000,186000.000,-47000.000,31.129,24.604,44.752,121.175,94.811,44.333,-9049.976,28150.742,-8500.565
1512176780,-5.100,19.800,258.200,81180.000,14770.000,984010.000,-302000.000,186000.000,-47000.000,-0.017,150.433,128.955,102.621,78.824,12.655,-8750.645,28001.190,-8503.174
1512176780,-10.500,14.200,261.800,99850.000,-2140.000,953120.000,-302000.000,186000.000,-47000.000,-28.100,219.647,219.405,78.376,44.274,-15.782,-8448.994,28376.633,-8580.551
1512176780,-14.000,5.600,263.500,108280.000,35890.000,931270.000,-291000.000,176000.000,-64000.000,-1.111,208.923,263.469,58.489,16.628,-38.437,-8148.289,28527.084,-8508.026
1512176780,-14.000,9.500,263.900,106380.000,36990.000,996280.000,-291000.000,176000.000,-64000.000,64.241,158.856,240.785,30.124,14.810,-68.665,-7924.976,28152.420,-8510.117
1512176780,5.900,18.100,265.900,65190.000,30030.000,1018680.000,-291000.000,176000.000,-64000.000,147.204,133.454,186.464,52.422,30.443,-63.642,-7699.635,28227.768,-8511.993
1512176780,9.200,22.900,264.300,60730.000,16600.000,1010440.000,-291000.000,176000.000,-64000.000,191.319,65.342,94.121,109.893,65.387,-36.640,-7474.827,28228.104,-8888.916
1512176780,-2.100,17.600,263.500,77880.000,29790.000,994020.000,-305000.000,186000.000,-67000.000,226.394,17.448,33.698,162.411,70.294,-1.156,-7700.352,28077.759,-8587.067
1512176780,-5.500,12.800,259.800,21670.000,25090.000,1044310.000,-305000.000,186000.000,-67000.000,246.495,-34.878,40.202,205.342,82.220,29.403,-7701.206,27927.765,-8962.143
1512176780,-15.700,-0.900,262.500,8120.000,-32590.000,1004640.000,-305000.000,186000.000,-67000.000,269.159,-60.701,151.310,214.601,41.321,48.940,-8150.455,28077.087,-8808.243
1512176780,-8.800,-15.000,257.700,31740.000,6650.000,1000240.000,-305000.000,186000.000,-67000.000,132.153,19.156,447.567,111.678,-66.346,-3.192,-7890.560,27514.977,-8960.739
1512176780,-10.900,-5.500,255.800,44980.000,10130.000,949280.000,-305000.000,186000.000,-67000.000,-74.353,267.337,376.145,-70.371,-89.752,-145.504,-7025.029,28153.770,-8630.272
1512176780,3.200,2.800,254.900,95580.000,24960.000,957090.000,-293000.000,181000.000,-55000.000,118.379,260.613,-127.998,47.617,66.928,-103.023,-6460.499,28604.622,-8634.842
1512176780,5.100,16.000,256.600,74160.000,29540.000,946590.000,-293000.000,181000.000,-55000.000,118.712,36.571,2.887,152.567,51.696,10.214,-6837.040,28266.556,-8669.311
1512176780,1.700,11.100,251.400,138850.000,5190.000,985230.000,-293000.000,181000.000,-55000.000,99.288,-39.898,304.034,-28.067,0.735,-33.634,-6910.916,28528.939,-8781.051
1512176780,4.000,-0.400,253.900,120060.000,11960.000,1014890.000,-293000.000,181000.000,-55000.000,143.369,85.439,158.526,-82.972,8.175,-2.546,-6684.849,28754.280,-8670.364
1512176780,-3.100,-10.100,255.100,110470.000,12450.000,989260.000,-293000.000,181000.000,-55000.000,-131.768,252.138,-86.344,94.034,35.828,26.948,-6647.190,28829.338,-9045.647
1512176780,-8.300,-14.100,258.600,81670.000,25270.000,964970.000,-303000.000,167000.000,-52000.000,-167.586,347.070,-42.823,177.034,46.904,-51.339,-6234.936,28792.458,-9199.165
1512176780,2.400,-5.100,261.900,63900.000,30460.000,1006590.000,-303000.000,167000.000,-52000.000,130.543,259.386,233.569,146.319,-6.253,-95.514,-6048.939,28492.737,-9500.892
1512176780,-0.700,4.400,253.700,104190.000,18680.000,1071780.000,-303000.000,167000.000,-52000.000,113.081,384.964,458.158,66.260,-81.123,-113.062,-4846.119,29132.042,-9623.299
1512176780,3.300,11.300,255.300,68120.000,28440.000,951050.000,-303000.000,167000.000,-52000.000,-31.967,331.369,168.567,46.993,20.876,-177.957,-4469.242,29545.105,-9588.791
1512176780,-12.100,14.000,251.000,29240.000,67990.000,976560.000,-307000.000,156000.000,-62000.000,202.197,134.531,-45.136,105.963,94.475,-95.601,-4733.876,29094.711,-9811.767
1512176780,-4.800,24.600,242.600,60180.000,20020.000,1084110.000,-307000.000,156000.000,-62000.000,244.644,-6.202,121.294,-11.171,26.562,-36.178,-4619.458,29544.883,-10000.022
1512176781,0.500,10.100,242.100,64580.000,10010.000,1037410.000,-307000.000,156000.000,-62000.000,194.798,-8.573,202.651,-116.027,-5.656,-12.734,-4544.971,29432.495,-10038.208
1512176781,8.100,8.400,251.000,23860.000,47550.000,1040280.000,-307000.000,156000.000,-62000.000,137.023,27.759,152.904,-108.923,-2.978,-6.627,-4619.678,29507.385,-10112.534
1512176781,0.900,18.600,249.500,39920.000,17330.000,1023680.000,-307000.000,156000.000,-62000.000,-5.124,105.721,48.772,-43.284,9.635,-3.011,-4771.519,29132.156,-10411.438
1512176781,10.100,18.900,249.400,79410.000,39860.000,1002080.000,-303000.000,163000.000,-38000.000,-116.068,176.288,-73.057,44.547,32.980,-8.017,-4544.712,29507.492,-10188.171
1512176781,-5.300,12.100,249.000,73060.000,9460.000,957950.000,-303000.000,163000.000,-38000.000,-175.814,209.429,-133.508,137.469,44.373,-25.986,-4472.111,28982.605,-10264.053
1512176781,1.300,20.200,245.700,93200.000,-5310.000,1007200.000,-303000.000,163000.000,-38000.000,-214.628,260.589,-104.040,192.878,42.809,-45.938,-4173.496,28683.044,-10341.751
1512176781,17.300,18.400,247.100,49740.000,60240.000,1041930.000,-303000.000,163000.000,-38000.000,-151.957,237.160,-91.487,210.927,53.202,-85.561,-4321.812,29057.831,-10340.302
1512176781,21.300,22.800,245.000,-4460.000,3360.000,1058900.000,-303000.000,163000.000,-38000.000,21.813,166.810,-29.511,214.126,65.922,-72.051,-4247.898,28832.932,-10491.043
1512176781,24.800,20.000,245.000,21000.000,19040.000,1032230.000,-305000.000,144000.000,-54000.000,171.125,58.781,154.570,192.499,85.494,-13.871,-3872.929,28833.496,-10569.229
1512176781,6.800,0.100,251.000,52490.000,49620.000,933110.000,-305000.000,144000.000,-54000.000,300.480,-21.343,257.439,124.147,85.857,12.386,-4322.041,29057.831,-10790.298
1512176781,6.000,1.700,246.200,64450.000,15320.000,970640.000,-305000.000,144000.000,-54000.000,352.093,-1.043,296.637,82.106,61.265,43.813,-4322.971,28832.825,-10640.396
1512176781,6.500,20.100,239.700,38450.000,27710.000,962650.000,-305000.000,144000.000,-54000.000,247.357,130.142,319.029,50.671,26.240,50.500,-4022.755,28908.279,-10867.920
1512176781,-1.600,22.100,236.500,84290.000,30030.000,1032230.000,-298000.000,130000.000,-47000.000,113.869,328.705,278.343,53.149,-4.472,30.045,-3573.536,28758.957,-11096.802
1512176781,0.400,30.200,235.600,77390.000,24600.000,1101500.000,-298000.000,130000.000,-47000.000,-20.413,502.730,219.434,70.636,-18.198,-16.000,-3200.565,28309.509,-11100.189
1512176781,-3.500,42.300,232.900,6410.000,10310.000,966490.000,-298000.000,130000.000,-47000.000,-62.280,635.202,178.778,119.571,-38.266,-62.762,-2974.613,28534.851,-11252.014
1512176781,-6.000,38.600,230.600,60240.000,56640.000,994020.000,-298000.000,130000.000,-47000.000,-75.586,613.887,144.398,147.406,-38.257,-112.318,-2599.659,28535.416,-11330.185
1512176781,-9.500,25.000,231.400,39730.000,-20940.000,1018550.000,-298000.000,130000.000,-47000.000,-50.428,494.506,35.611,166.802,-11.820,-141.676,-2074.726,28536.194,-11484.650
1512176781,-11.200,-7.600,236.800,46570.000,8120.000,959960.000,-305000.000,130000.000,-57000.000,-12.139,400.814,-93.155,177.399,30.610,-134.118,-1924.732,28536.423,-11485.931
1512176781,-10.400,-17.300,245.000,27830.000,42970.000,959840.000,-305000.000,130000.000,-57000.000,17.712,424.487,-156.603,161.362,85.587,-107.845,-1999.836,28536.316,-11710.297
1512176781,-1.700,-13.200,240.900,14650.000,21060.000,1040590.000,-305000.000,130000.000,-57000.000,71.496,456.542,-119.466,127.118,111.769,-73.952,-1854.572,27486.526,-11712.051
1512176781,11.500,-0.500,237.300,37350.000,16240.000,1058530.000,-305000.000,130000.000,-57000.000,186.023,387.087,-22.106,65.960,77.906,-39.702,-2075.855,28311.203,-11709.763
1512176781,-4.700,4.500,233.600,49440.000,-5490.000,1014770.000,-303000.000,142000.000,-45000.000,165.642,326.035,47.749,2.840,23.449,-14.220,-1851.078,28311.539,-12161.667
1512176781,-16.600,8.700,226.400,80080.000,17640.000,965580.000,-303000.000,142000.000,-45000.000,70.106,331.152,87.959,-55.802,-26.185,-19.161,-1325.748,28387.329,-12166.107
1512176781,-13.700,12.400,224.600,59080.000,36680.000,983950.000,-303000.000,142000.000,-45000.000,-61.389,338.507,45.567,-86.212,-21.018,-37.485,-1176.075,28312.546,-12167.404
1512176781,-6.400,2.500,223.700,12150.000,-7450.000,1002750.000,-303000.000,142000.000,-45000.000,-132.365,420.953,-106.553,-65.704,-1.596,-45.331,-1177.921,27937.546,-12467.575
1512176781,-4.400,3.100,223.800,55050.000,49620.000,986880.000,-303000.000,142000.000,-45000.000,-140.489,494.943,-256.727,5.684,10.847,-24.505,-952.198,28087.875,-12394.424
1512176781,-15.400,13.600,226.200,64210.000,28380.000,954770.000,-288000.000,119000.000,-57000.000,-309.931,535.001,-387.502,118.152,-13.372,-7.928,-955.875,27300.377,-12657.287
1512176781,4.900,32.800,228.800,39490.000,40470.000,1036250.000,-288000.000,119000.000,-57000.000,-571.263,623.149,-600.462,175.760,13.150,-23.216,-281.177,27226.394,-12588.066
1512176781,5.700,33.600,229.000,65730.000,20140.000,979130.000,-288000.000,119000.000,-57000.000,-678.666,766.545,-545.553,244.389,56.376,-42.228,-57.606,26926.727,-12740.104
1512176781,-2.900,4.700,231.000,63420.000,26060.000,973270.000,-288000.000,119000.000,-57000.000,-512.534,692.382,-182.541,205.598,89.803,-92.592,244.275,27302.177,-12367.485
1512176781,-4.300,3.600,227.400,120360.000,1400.000,943300.000,-288000.000,119000.000,-57000.000,-228.353,365.946,87.487,101.659,100.959,-105.171,584.385,27865.189,-12220.093
1512176781,-6.000,-5.200,224.400,90330.000,-670.000,991700.000,-302000.000,130000.000,-57000.000,-17.460,195.820,122.465,26.687,86.446,-44.269,622.196,27902.740,-11920.403
1512176781,-1.100,9.200,227.200,86550.000,11290.000,1011600.000,-302000.000,130000.000,-57000.000,28.327,77.732,184.548,19.398,47.243,-16.114,809.925,27940.521,-11809.471
1512176781,4.000,14.600,221.800,87590.000,15380.000,1014160.000,-302000.000,130000.000,-57000.000,36.748,96.424,192.198,16.484,45.443,-18.738,581.662,27227.684,-11920.388
1512176781,7.900,19.000,221.300,53590.000,33870.000,1024290.000,-302000.000,130000.000,-57000.000,-8.643,113.565,134.036,90.426,36.628,-7.882,958.217,27565.750,-11848.426
1512176781,-5.500,12.000,215.100,63170.000,17460.000,993100.000,-298000.000,130000.000,-50000.000,5.468,34.254,275.747,89.403,54.462,-61.046,1146.488,27753.532,-11999.931
1512176781,-5.700,17.600,210.800,51640.000,-11050.000,948000.000,-298000.000,130000.000,-50000.000,73.123,17.735,309.718,31.405,44.749,-58.452,1297.466,27978.760,-12076.103
1512176781,-7.100,25.800,206.700,28930.000,26730.000,1004820.000,-298000.000,130000.000,-50000.000,81.144,52.183,180.428,51.167,47.036,-39.293,1410.549,28091.431,-11927.002
1512176782,-11.900,12.100,209.900,73430.000,3660.000,1000790.000,-298000.000,130000.000,-50000.000,56.167,27.525,207.165,88.040,44.595,-15.325,1523.296,28166.595,-12115.417
1512176782,-4.000,0.400,206.300,31130.000,-240.000,964780.000,-298000.000,130000.000,-50000.000,45.545,1.755,268.755,89.853,48.548,-38.320,1598.034,28091.705,-11966.095
1512176782,-5.200,1.500,209.100,14340.000,20320.000,974060.000,-286000.000,118000.000,-52000.000,97.420,17.809,290.881,73.907,47.414,-48.485,1298.962,28316.254,-12113.449
1512176782,-6.800,-7.100,207.900,47610.000,-18620.000,966000.000,-286000.000,118000.000,-52000.000,114.526,102.216,291.420,72.999,33.444,-44.663,1297.924,28091.263,-12188.553
1512176782,-0.800,0.900,206.000,51270.000,32650.000,972900.000,-286000.000,118000.000,-52000.000,90.512,120.402,262.355,81.661,44.110,-29.344,1674.007,28316.818,-12041.626
1512176782,-6.800,8.900,205.300,28810.000,14590.000,1064700.000,-286000.000,118000.000,-52000.000,85.354,133.358,187.700,112.551,66.299,-7.891,1898.922,28317.154,-12193.542
1512176782,5.900,1.200,202.500,21550.000,-11720.000,1009340.000,-288000.000,105000.000,-50000.000,103.850,73.493,227.206,151.367,61.878,21.658,2048.473,28242.386,-12419.861
1512176782,-12.300,-16.600,201.100,79040.000,74100.000,922420.000,-288000.000,105000.000,-50000.000,45.336,2.666,345.509,145.530,57.880,2.074,2198.742,28317.612,-12571.091
1512176782,-8.000,-4.500,198.300,90880.000,-16720.000,1017700.000,-288000.000,105000.000,-50000.000,76.461,-0.594,397.119,73.644,49.316,-56.143,1973.934,28317.276,-12194.183
1512176782,-3.300,4.500,192.900,93380.000,16910.000,991640.000,-288000.000,105000.000,-50000.000,146.255,74.341,370.674,19.430,39.070,-72.069,2574.612,28468.170,-12199.219
1512176782,0.000,26.900,189.500,81730.000,610.000,1005000.000,-288000.000,105000.000,-50000.000,152.778,127.903,301.664,7.445,44.889,-46.690,2573.147,28168.167,-12424.347
1512176782,-7.600,20.100,190.100,64820.000,1160.000,946470.000,-274000.000,105000.000,-57000.000,116.798,119.460,220.091,45.749,44.275,-4.385,2648.373,28243.286,-12649.948
1512176782,-4.800,14.500,189.800,36800.000,10560.000,960330.000,-274000.000,105000.000,-57000.000,42.347,62.752,206.019,88.465,52.748,-0.094,2498.104,28168.060,-12498.703
1512176782,0.000,16.900,189.600,46940.000,730.000,982060.000,-274000.000,105000.000,-57000.000,38.957,49.911,217.655,90.120,33.823,-26.994,2648.785,28318.283,-12499.908
1512176782,4.500,26.100,189.900,-4390.000,34180.000,1016360.000,-274000.000,105000.000,-57000.000,61.817,40.262,253.132,65.437,38.182,-54.941,2873.699,28318.619,-12651.825
1512176782,-1.500,3.700,190.300,20810.000,22830.000,988400.000,-274000.000,105000.000,-57000.000,122.893,61.752,234.901,53.990,41.692,-41.716,2797.878,28093.506,-12276.291
1512176782,-0.700,1.900,190.900,-13850.000,15260.000,1024290.000,-277000.000,102000.000,-54000.000,119.129,68.215,205.020,66.105,43.413,1.956,2873.821,28318.619,-12426.834
1512176782,-3.900,0.500,188.600,-24600.000,16780.000,962280.000,-277000.000,102000.000,-54000.000,101.335,10.424,247.204,78.445,43.199,23.187,2948.147,28168.732,-12427.536
1512176782,-5.300,4.000,185.100,-5070.000,23190.000,1011720.000,-277000.000,102000.000,-54000.000,61.109,-2.419,229.521,77.653,48.455,20.077,3096.004,27718.948,-12654.022
1512176782,-3.100,19.800,181.100,-13920.000,-6350.000,1019350.000,-277000.000,102000.000,-54000.000,60.170,19.894,287.150,64.893,21.403,14.198,2646.725,27868.286,-12575.134
1512176782,-0.300,10.100,169.600,27890.000,13670.000,1021360.000,-279000.000,93000.000,-59000.000,11.243,80.591,348.486,29.169,12.431,-28.845,3097.698,28093.964,-12653.839
1512176782,-2.900,0.300,169.100,28750.000,-6960.000,1004640.000,-279000.000,93000.000,-59000.000,8.556,153.278,320.982,13.458,13.967,-55.637,3322.018,27944.290,-12655.823
1512176782,4.900,-1.300,161.800,24960.000,14340.000,1010190.000,-279000.000,93000.000,-59000.000,33.377,178.046,239.342,41.188,28.586,-53.076,3322.323,28019.287,-12730.804
1512176782,8.900,18.400,153.900,2440.000,39670.000,1048220.000,-279000.000,93000.000,-59000.000,-32.982,160.947,189.280,95.392,44.595,-38.089,3323.040,28169.296,-12655.731
1512176782,11.300,35.600,147.900,1460.000,-21000.000,1039790.000,-279000.000,93000.000,-59000.000,-47.875,105.387,184.607,127.061,65.072,-46.338,3621.944,27944.748,-12808.365
1512176782,-2.800,35.000,146.600,30880.000,22950.000,972960.000,-270000.000,81000.000,-54000.000,30.005,98.034,180.378,117.697,64.084,-58.257,3545.712,27644.623,-12582.886
1512176782,-8.900,25.200,141.000,8360.000,3170.000,1006650.000,-270000.000,81000.000,-54000.000,74.495,88.204,327.040,87.416,24.104,-44.940,3772.320,28019.966,-12734.619
1512176782,1.200,7.100,138.600,-39790.000,47610.000,1022460.000,-270000.000,81000.000,-54000.000,115.296,69.609,308.378,5.827,34.902,-40.158,3997.570,28057.808,-12586.517
1512176782,4.700,7.100,140.100,-46510.000,25090.000,1006710.000,-270000.000,81000.000,-54000.000,21.870,157.225,224.710,53.395,29.146,-6.987,4146.366,27833.031,-12962.890
1512176782,-1.500,13.200,135.300,-35340.000,20690.000,977780.000,-270000.000,81000.000,-54000.000,12.473,81.460,176.336,112.991,53.491,-25.599,4560.062,28096.146,-12928.764
1512176782,1.100,12.300,129.800,-7570.000,4940.000,995910.000,-282000.000,96000.000,-49000.000,105.989,43.994,289.496,103.674,44.415,-19.540,4522.678,28133.591,-13040.931
1512176782,0.800,13.400,124.900,-13240.000,10010.000,1011840.000,-282000.000,96000.000,-49000.000,58.090,25.114,349.506,44.222,31.540,-34.776,4446.965,27945.984,-12777.886
1512176782,-10.800,22.200,123.400,34000.000,13060.000,976440.000,-282000.000,96000.000,-49000.000,61.565,45.572,268.605,37.775,39.300,-18.370,4972.683,28096.771,-12707.283
1512176782,-15.600,23.600,119.000,62380.000,-4030.000,962590.000,-282000.000,96000.000,-49000.000,13.728,89.970,198.240,73.401,32.863,5.696,5085.965,28284.439,-12820.648
1512176782,-14.000,16.400,121.000,78190.000,15870.000,987730.000,-267000.000,91000.000,-60000.000,-39.245,131.520,212.542,82.494,23.607,-42.958,5272.739,28097.221,-12597.336
1512176782,-19.300,16.800,124.800,64390.000,14280.000,915280.000,-267000.000,91000.000,-60000.000,73.744,74.012,210.246,82.795,50.020,-42.839,5535.175,28097.610,-12712.067
1512176782,1.700,10.000,132.000,85690.000,44620.000,1048520.000,-267000.000,91000.000,-60000.000,92.468,-4.522,234.229,30.570,40.924,-15.273,5422.291,28022.446,-12823.639
1512176782,17.600,24.400,133.300,-8730.000,21480.000,1005130.000,-267000.000,91000.000,-60000.000,25.833,52.178,140.715,6.038,23.350,3.010,5684.788,28022.842,-12825.875
1512176783,12.300,13.300,135.800,17520.000,70310.000,923710.000,-267000.000,91000.000,-60000.000,-13.299,91.612,156.277,35.788,29.753,-17.893,5646.572,27872.787,-12900.620
1512176783,15.600,19.600,134.800,5860.000,29720.000,999880.000,-263000.000,84000.000,-54000.000,-0.282,127.845,208.828,69.682,12.620,-30.933,5946.911,27948.227,-12903.122
1512176783,4.500,20.900,128.000,-11110.000,63420.000,963440.000,-263000.000,84000.000,-54000.000,11.399,139.607,212.237,87.118,23.785,-51.343,5872.250,28023.117,-12902.451
1512176783,-7.200,14.200,124.600,13430.000,36320.000,998290.000,-263000.000,84000.000,-54000.000,28.923,119.394,182.569,108.147,39.518,-41.162,6021.984,27948.349,-12753.784
1512176783,-9.900,13.300,121.700,18430.000,29240.000,1015010.000,-263000.000,84000.000,-54000.000,45.832,124.747,192.430,116.902,42.074,-36.945,5797.253,28023.010,-12901.825
1512176783,-9.500,8.800,119.000,13850.000,41380.000,1028020.000,-263000.000,84000.000,-54000.000,62.034,121.463,243.823,120.851,36.307,-34.714,6246.578,27873.688,-12905.716
1512176783,-7.900,25.700,113.900,6040.000,61580.000,985900.000,-272000.000,82000.000,-52000.000,70.495,84.084,245.947,85.251,43.378,-29.998,6470.608,27649.017,-12832.733
1512176783,-10.300,41.800,110.300,20570.000,50230.000,1049500.000,-272000.000,82000.000,-52000.000,119.138,58.478,268.951,39.846,35.704,-22.819,6321.209,27798.798,-12981.384
1512176783,-7.600,53.300,106.900,-27890.000,40220.000,986940.000,-272000.000,82000.000,-52000.000,102.707,62.669,295.377,0.308,24.135,-11.026,6019.558,27423.340,-12904.007
1512176783,-24.900,30.600,105.300,15560.000,44070.000,977660.000,-272000.000,82000.000,-52000.000,67.642,57.291,288.455,-44.808,16.646,-10.241,6171.047,27798.569,-13280.106
1512176783,-12.000,14.100,108.300,-33810.000,18250.000,1048520.000,-274000.000,88000.000,-67000.000,45.489,60.621,210.326,-64.832,20.369,-0.770,6622.372,28024.246,-12683.838
1512176783,-0.800,-2.500,108.000,-42420.000,31860.000,1028380.000,-274000.000,88000.000,-67000.000,7.863,49.970,163.902,-62.807,29.673,6.646,6473.263,28249.023,-12907.455
1512176783,2.000,-18.100,112.300,-55910.000,61220.000,998410.000,-274000.000,88000.000,-67000.000,-20.466,76.679,136.930,-43.573,25.746,3.657,6546.612,27874.130,-12833.267
1512176783,9.500,-0.100,105.300,-26250.000,31560.000,1026790.000,-274000.000,88000.000,-67000.000,-32.550,119.471,96.395,5.645,18.914,-9.214,6546.917,27949.127,-12908.234
1512176783,-4.300,-6.400,101.300,34300.000,56950.000,949520.000,-274000.000,88000.000,-67000.000,-58.022,130.132,90.735,62.881,15.175,-27.337,6693.432,27199.356,-13134.857
1512176783,-6.900,-5.900,99.500,16170.000,38090.000,990600.000,-272000.000,75000.000,-38000.000,-67.003,142.878,118.365,110.802,19.195,-44.592,7071.621,27874.924,-12837.723
1512176783,-10.300,11.700,92.500,45780.000,59880.000,969420.000,-272000.000,75000.000,-38000.000,-20.384,123.690,134.965,152.354,48.258,-56.126,6921.810,27949.692,-13136.429
1512176783,-8.100,-4.500,91.500,22640.000,46020.000,1016660.000,-272000.000,75000.000,-38000.000,67.810,119.518,152.219,180.078,60.138,-42.045,7220.913,27725.143,-12914.062
1512176783,-3.500,7.100,82.300,33630.000,37720.000,975340.000,-272000.000,75000.000,-38000.000,112.043,74.534,247.583,197.109,61.253,-13.082,7369.366,27425.369,-13290.482
1512176783,-15.800,7.700,84.700,8730.000,47420.000,917420.000,-270000.000,88000.000,-67000.000,140.835,7.154,307.461,172.500,46.159,1.303,7369.411,27425.369,-13215.485
1512176783,-11.700,-12.500,84.600,14650.000,56640.000,1002010.000,-270000.000,88000.000,-67000.000,161.852,-45.310,388.606,104.972,18.230,2.595,7368.435,27200.363,-13140.594
1512176783,-0.700,2.000,85.200,-6960.000,77090.000,994750.000,-270000.000,88000.000,-67000.000,139.674,5.827,443.901,18.378,-14.683,-31.455,7445.126,27575.485,-13141.052
1512176783,-15.600,5.200,77.800,9090.000,38210.000,994080.000,-270000.000,88000.000,-67000.000,78.287,115.799,422.072,-55.127,-18.293,-56.284,7594.860,27500.702,-12992.371
1512176783,-10.300,13.600,74.600,11900.000,73970.000,984310.000,-270000.000,88000.000,-67000.000,42.756,169.484,251.171,-61.169,31.862,-43.672,7370.831,27725.372,-13065.353
1512176783,-5.300,5.100,70.400,4270.000,66590.000,1023130.000,-260000.000,81000.000,-60000.000,24.041,156.012,28.048,17.474,61.970,-10.248,7668.880,27275.818,-12918.106
1512176783,-4.700,9.200,67.400,-39060.000,63660.000,992190.000,-260000.000,81000.000,-60000.000,-0.274,70.550,11.407,98.830,68.217,24.047,7592.648,27050.705,-13367.569
1512176783,-9.500,17.700,63.600,11050.000,43030.000,927670.000,-260000.000,81000.000,-60000.000,11.179,28.029,187.859,105.576,22.596,-5.528,7557.071,27463.143,-13217.064
1512176783,-10.500,24.400,56.300,-22280.000,86550.000,946900.000,-260000.000,81000.000,-60000.000,61.657,100.522,297.578,-10.682,-14.253,-53.154,7857.151,27463.592,-13069.610
1512176783,-2.700,15.000,55.400,-34730.000,38020.000,1036130.000,-260000.000,81000.000,-60000.000,42.045,117.855,163.034,-6.380,40.760,-15.807,8004.849,26938.820,-12958.626
1512176783,0.300,27.800,47.700,-18980.000,82340.000,1010010.000,-267000.000,70000.000,-54000.000,22.569,26.124,78.745,66.162,57.896,28.284,8155.651,27126.541,-13034.820
1512176783,-18.000,8.100,51.700,-52550.000,66100.000,967530.000,-267000.000,70000.000,-54000.000,20.198,40.855,191.233,25.139,-0.615,-12.985,8118.550,27201.492,-12921.967
1512176783,0.900,26.000,44.500,-20690.000,57620.000,988040.000,-267000.000,70000.000,-54000.000,3.588,118.320,167.809,10.315,13.893,-40.350,8642.643,26977.280,-12701.538
1512176783,5.900,39.100,39.900,-12700.000,64700.000,1000790.000,-267000.000,70000.000,-54000.000,67.405,36.219,140.196,89.388,59.767,10.801,8568.287,27127.160,-12775.825
1512176783,1.200,53.500,30.400,35280.000,38090.000,1010680.000,-270000.000,74000.000,-57000.000,66.919,19.820,330.423,53.043,-6.839,7.694,8754.505,26864.945,-12965.034
1512176783,-0.100,40.700,29.000,-29660.000,52670.000,981260.000,-270000.000,74000.000,-57000.000,-38.488,167.008,361.923,-27.005,-30.190,-79.257,9393.306,27128.403,-12745.338
1512176783,4.700,17.800,21.600,-15440.000,37170.000,911680.000,-270000.000,74000.000,-57000.000,63.147,109.442,111.073,51.581,61.479,-36.934,9878.048,26529.129,-12862.258
1512176783,15.800,4.000,23.200,-57980.000,51090.000,975280.000,-270000.000,74000.000,-57000.000,20.502,-13.521,137.210,127.968,48.284,-0.259,9951.252,26154.236,-13088.066
1512176783,20.900,14.400,20.500,-81540.000,52000.000,1032710.000,-270000.000,74000.000,-57000.000,81.075,-49.549,309.066,59.016,-3.640,-44.104,9839.931,26379.074,-12749.519
1512176784,10.800,24.000,18.000,-60420.000,56520.000,986450.000,-267000.000,88000.000,-50000.000,141.684,-17.432,320.184,22.454,8.871,-43.965,10063.900,26154.404,-12789.032
1512176784,1.700,32.600,6.500,-65730.000,51760.000,946470.000,-267000.000,88000.000,-50000.000,117.486,-38.661,235.543,36.907,34.946,-17.705,9987.514,25854.294,-12863.525
1512176784,-1.200,15.800,3.600,-64330.000,60550.000,1041440.000,-267000.000,88000.000,-50000.000,81.400,-64.208,159.238,55.491,66.289,14.174,9761.456,25628.952,-12936.707
1512176784,9.100,21.700,-3.200,-58110.000,69760.000,1083560.000,-267000.000,88000.000,-50000.000,86.411,-72.782,178.471,57.416,39.575,19.922,9613.293,26003.738,-12635.269
1512176784,-8.800,18.000,-8.900,-71530.000,51940.000,974000.000,-267000.000,88000.000,-50000.000,55.736,-61.178,229.238,17.759,17.514,0.532,9611.874,25703.735,-12785.416
1512176784,4.800,17.700,-12.400,-92650.000,49010.000,1028990.000,-274000.000,63000.000,-54000.000,33.420,-19.547,226.928,-23.771,11.415,-14.298,9839.046,26154.068,-12487.122
1512176784,12.100,5.200,-11.200,-77640.000,55110.000,1059390.000,-274000.000,63000.000,-54000.000,19.402,-4.509,172.407,-39.543,14.215,-15.256,9536.694,25628.616,-12484.818
1512176784,16.900,14.600,-8.100,-76780.000,70010.000,1043580.000,-274000.000,63000.000,-54000.000,12.282,-22.635,150.920,-34.959,20.206,-8.523,9838.787,26079.071,-12337.158
1512176784,4.000,3.500,-8.400,-58720.000,40770.000,1028140.000,-274000.000,63000.000,-54000.000,23.045,-48.241,143.525,-14.361,32.897,9.754,9838.711,26079.071,-12487.152
1512176784,11.700,0.700,-6.000,-45960.000,63600.000,1030400.000,-270000.000,81000.000,-57000.000,32.381,-68.424,93.485,11.220,28.143,30.739,9687.023,25703.842,-12486.053
1512176784,16.600,-1.600,-4.500,-36070.000,70070.000,1002990.000,-270000.000,81000.000,-57000.000,6.662,-83.435,100.521,30.773,20.925,35.269,9687.283,25778.839,-12636.017
1512176784,4.900,-10.000,-3.200,-3420.000,52550.000,991580.000,-270000.000,81000.000,-57000.000,-50.387,-22.703,137.220,22.550,0.275,1.742,9838.375,26004.074,-12487.183
1512176784,8.900,-6.500,-3.900,4760.000,61890.000,987060.000,-270000.000,81000.000,-57000.000,-25.004,30.713,151.630,16.472,3.962,-33.012,9910.259,25329.178,-12638.138
1512176784,15.300,-4.300,3.300,12570.000,44740.000,983280.000,-270000.000,81000.000,-57000.000,39.868,92.746,164.514,14.926,6.620,-42.574,10134.701,25179.520,-12415.115
1512176784,4.400,-9.500,11.700,31010.000,49620.000,968990.000,-261000.000,68000.000,-66000.000,72.442,181.389,197.275,28.990,3.591,-32.164,10061.535,25629.410,-12789.276
1512176784,-5.700,-20.900,22.100,47550.000,52610.000,971800.000,-261000.000,68000.000,-66000.000,56.004,263.559,229.308,28.827,-2.573,-34.376,10359.554,25179.855,-12717.026
1512176784,-29.200,-40.300,35.600,69760.000,48100.000,939940.000,-261000.000,68000.000,-66000.000,45.927,368.152,262.569,21.308,-9.000,-49.834,10509.472,25180.069,-12868.301
1512176784,-23.600,-47.100,48.700,68540.000,62680.000,956730.000,-261000.000,68000.000,-66000.000,32.194,485.512,325.678,17.219,17.641,-65.568,10809.399,25180.527,-13020.844
1512176784,-6.000,-34.800,57.300,76290.000,48220.000,981990.000,-261000.000,68000.000,-66000.000,116.439,435.442,321.393,48.492,45.422,-65.474,11107.372,24730.972,-13023.605
1512176784,-0.700,-21.000,66.300,73970.000,56210.000,995360.000,-274000.000,66000.000,-60000.000,257.930,209.317,264.025,74.021,61.494,-41.045,11256.893,24656.189,-13324.905
1512176784,-8.900,-31.300,68.400,96500.000,64880.000,964170.000,-274000.000,66000.000,-60000.000,283.815,52.376,237.198,46.985,37.355,-35.993,10956.844,24655.746,-13397.369
1512176784,2.000,-13.600,76.400,80380.000,40710.000,1007080.000,-274000.000,66000.000,-60000.000,323.072,-33.973,179.900,13.189,8.977,-31.961,10880.383,24355.637,-13621.872
1512176784,11.200,-8.500,77.200,75130.000,80320.000,1022030.000,-274000.000,66000.000,-60000.000,414.969,-161.846,96.571,28.478,14.925,20.558,10879.192,24130.630,-13996.964
1512176784,-8.000,-23.800,98.800,49990.000,73910.000,990660.000,-274000.000,74000.000,-67000.000,440.552,-266.483,91.246,84.453,42.476,111.045,10277.309,23754.730,-14367.050
1512176784,-21.300,-33.700,110.300,71530.000,49740.000,979370.000,-274000.000,74000.000,-67000.000,330.346,-408.604,302.901,101.070,62.179,190.186,10016.476,23979.332,-13052.208
1512176784,-0.400,-28.800,126.000,48220.000,75990.000,999450.000,-274000.000,74000.000,-67000.000,65.623,-480.460,514.159,-142.264,-15.560,80.757,10131.382,24354.507,-11628.006
1512176784,6.300,-20.900,131.000,109800.000,54020.000,995540.000,-274000.000,74000.000,-67000.000,-189.425,20.137,-27.219,-254.935,-80.941,-56.785,10167.622,24092.064,-11778.442
1512176784,6.100,-17.700,149.300,61040.000,79590.000,985230.000,-274000.000,74000.000,-67000.000,-446.886,348.950,-398.127,70.276,64.428,-44.538,10204.296,23942.115,-12078.826
1512176784,-4.000,-11.300,157.900,61280.000,85330.000,1004520.000,-268000.000,58000.000,-72000.000,-213.013,274.481,-103.966,220.662,127.757,-86.873,10881.397,24393.135,-11934.356
1512176784,30.000,12.400,161.800,44370.000,74160.000,1045530.000,-268000.000,58000.000,-72000.000,124.160,29.203,221.482,205.075,39.099,-61.063,11031.177,24355.857,-12048.149
1512176784,14.400,6.800,171.100,70800.000,81050.000,1023440.000,-268000.000,58000.000,-72000.000,163.748,-71.440,369.353,6.469,9.952,-52.993,11030.742,24243.355,-11898.201
1512176784,2.000,1.500,177.000,73430.000,80630.000,1004460.000,-268000.000,58000.000,-72000.000,143.159,97.564,235.851,-129.416,19.251,-44.636,10993.565,24318.298,-11935.341
1512176784,16.100,21.300,183.600,53830.000,86430.000,1001160.000,-268000.000,58000.000,-72000.000,-16.897,133.471,53.497,-73.955,38.587,-10.136,10993.206,24243.301,-11972.885
1512176784,8.800,16.100,185.800,106750.000,84780.000,968930.000,-274000.000,66000.000,-67000.000,-105.000,6.340,-8.456,16.119,81.069,-44.040,11029.736,24018.356,-11898.308
1512176784,22.100,11.500,195.600,70370.000,73300.000,1024660.000,-274000.000,66000.000,-67000.000,36.721,0.015,60.206,38.575,58.449,-59.642,11218.586,24318.641,-11899.757
1512176784,26.000,-3.200,201.100,61160.000,78800.000,1003420.000,-274000.000,66000.000,-67000.000,96.918,-23.462,92.977,43.309,29.680,-6.645,10952.946,23643.234,-12085.342
1512176784,44.300,14.000,205.300,20200.000,59270.000,1016540.000,-274000.000,66000.000,-67000.000,24.451,-11.287,91.969,32.436,47.573,8.099,11029.110,23905.853,-12123.359
1512176785,20.000,20.200,214.500,28560.000,30270.000,976070.000,-251000.000,65000.000,-79000.000,26.342,26.671,76.672,7.128,53.904,0.987,10878.521,23755.630,-11972.153
1512176785,19.700,38.500,217.200,34730.000,36010.000,1005000.000,-251000.000,65000.000,-79000.000,29.315,49.081,91.719,-19.162,53.189,-1.870,11027.874,23605.850,-11898.499
1512176785,6.900,25.000,230.200,14890.000,70500.000,1067080.000,-251000.000,65000.000,-79000.000,54.428,69.354,120.935,-48.239,36.216,-2.157,10877.834,23605.621,-11972.214
1512176785,-18.100,8.900,238.200,33630.000,58290.000,1015500.000,-251000.000,65000.000,-79000.000,36.483,84.296,110.063,-63.034,31.432,3.739,10953.259,23680.740,-11822.815
1512176785,-25.200,-17.300,256.500,41020.000,59080.000,987730.000,-251000.000,65000.000,-79000.000,-25.126,100.251,97.500,-75.105,25.206,-2.208,11328.518,23756.302,-11975.967
1512176785,10.300,4.900,264.500,106570.000,37480.000,1048520.000,-245000.000,56000.000,-71000.000,-74.633,94.910,61.587,-64.451,48.628,-16.196,11478.924,23831.528,-11827.209
1512176785,-16.200,-20.000,279.800,97170.000,29600.000,972720.000,-245000.000,56000.000,-71000.000,-90.052,100.296,27.269,-38.695,64.032,-27.103,11326.870,23381.302,-11901.154
1512176785,-35.700,-33.400,288.000,108700.000,7570.000,960270.000,-245000.000,56000.000,-71000.000,-77.878,95.026,-0.291,12.960,70.641,-29.104,11403.820,23831.421,-12051.575
1512176785,-34.400,-19.400,289.900,159060.000,15810.000,930420.000,-245000.000,56000.000,-71000.000,-60.412,49.177,-26.847,68.631,81.302,-19.915,11477.734,23606.522,-12202.316
1512176785,5.300,36.800,292.100,86910.000,7320.000,948360.000,-261000.000,37000.000,-49000.000,-31.017,5.371,-2.057,104.989,87.170,-12.747,11699.871,22931.854,-11829.544
1512176785,3.900,34.400,298.100,80630.000,9030.000,1008060.000,-261000.000,37000.000,-49000.000,21.191,-18.175,63.649,107.146,80.728,-16.414,11852.428,23532.089,-12130.539
1512176785,-15.600,12.000,315.900,63110.000,57130.000,1028870.000,-261000.000,37000.000,-49000.000,92.437,4.209,139.379,58.842,61.360,-15.394,11927.837,23607.208,-11981.140
1512176785,7.300,24.600,322.400,82520.000,80200.000,1013310.000,-261000.000,37000.000,-49000.000,117.718,99.279,163.534,-3.351,33.739,-21.188,11851.452,23307.083,-12055.649
1512176785,-9.600,13.200,331.800,89600.000,23500.000,1004940.000,-261000.000,37000.000,-49000.000,82.062,191.145,131.352,-54.223,11.049,-27.765,11774.685,22931.976,-12205.185
1512176785,8.500,22.900,343.300,70010.000,45720.000,1016910.000,-258000.000,37000.000,-55000.000,10.274,274.435,93.292,-72.840,7.662,-32.785,11775.814,23156.967,-11980.072
1512176785,-0.800,7.900,354.500,89780.000,21730.000,980470.000,-258000.000,37000.000,-55000.000,-56.572,271.167,74.189,-58.961,25.595,-49.310,12079.037,23832.428,-11607.315
1512176785,-3.900,-0.500,362.100,93810.000,1590.000,970280.000,-258000.000,37000.000,-55000.000,-66.278,194.235,76.978,-38.380,51.422,-60.707,12004.223,23907.318,-11906.647
1512176785,4.400,7.900,366.900,90450.000,26120.000,991030.000,-258000.000,37000.000,-55000.000,-44.685,100.306,55.642,-14.211,86.424,-57.340,12228.771,23832.657,-12133.591
1512176785,0.100,-4.900,376.800,94670.000,39180.000,998840.000,-258000.000,37000.000,-55000.000,1.978,24.646,2.755,6.660,107.950,-31.729,12305.279,24132.767,-11834.091
1512176785,-13.200,3.300,379.000,116760.000,4520.000,974370.000,-251000.000,44000.000,-59000.000,37.634,-70.306,-31.174,32.770,107.330,11.419,12304.150,23907.761,-12059.189
1512176785,-33.200,7.100,380.800,94300.000,9160.000,924380.000,-251000.000,44000.000,-59000.000,34.827,-123.797,6.976,26.901,101.337,37.405,12155.209,24132.538,-11982.819
1512176785,-27.400,21.700,386.300,120420.000,27040.000,961060.000,-251000.000,44000.000,-59000.000,19.431,-107.853,36.660,-2.794,71.925,26.104,12006.374,24357.315,-11681.442
1512176785,14.600,48.700,393.200,56820.000,35100.000,1016170.000,-251000.000,44000.000,-59000.000,-6.979,3.215,27.067,-59.961,48.504,-3.809,12156.063,24282.547,-11607.742
1512176785,11.500,56.900,404.900,9220.000,39060.000,936890.000,-233000.000,26000.000,-52000.000,-21.865,160.209,32.730,-81.986,24.088,-31.411,11782.040,24506.989,-11679.459
1512176785,16.800,51.100,411.600,-8000.000,33870.000,1011900.000,-233000.000,26000.000,-52000.000,-51.030,222.195,-5.856,-61.037,26.752,-48.281,12081.142,24282.425,-11457.108
1512176785,4.800,14.900,415.700,36320.000,34790.000,1002200.000,-233000.000,26000.000,-52000.000,-58.776,162.463,-56.281,-13.129,65.880,-47.244,12232.082,24507.660,-11608.276
1512176785,27.000,20.600,420.800,23800.000,41200.000,1019780.000,-233000.000,26000.000,-52000.000,52.303,-137.605,-18.937,18.198,112.251,-32.971,12195.720,24770.111,-11682.838
1512176785,-6.800,2.900,423.200,45960.000,18800.000,1003600.000,-233000.000,26000.000,-52000.000,174.483,-275.444,96.422,-49.007,81.656,-4.663,12271.755,24995.217,-11645.867
1512176785,-0.700,19.300,417.600,38940.000,-2010.000,999510.000,-242000.000,24000.000,-54000.000,59.892,-171.821,3.975,-44.051,37.531,32.273,11970.554,24732.269,-11680.947
1512176785,-3.500,28.800,415.300,66890.000,20200.000,990420.000,-242000.000,24000.000,-54000.000,-25.757,-111.391,-99.929,4.167,70.419,17.130,12271.190,24882.721,-11758.423
1512176785,-7.600,32.900,413.200,68850.000,7810.000,953310.000,-242000.000,24000.000,-54000.000,69.254,-52.742,23.713,4.898,47.383,-4.711,12121.868,25032.494,-11757.080
1512176785,-4.800,41.700,408.000,70310.000,-120.000,967100.000,-242000.000,24000.000,-54000.000,166.266,-77.885,119.377,-91.188,20.812,-6.963,11822.819,25219.543,-11529.442
1512176785,-3.200,59.000,411.200,61650.000,24660.000,977660.000,-219000.000,19000.000,-49000.000,56.540,-58.155,51.228,-129.873,44.402,-9.705,11823.086,25294.540,-11679.413
1512176785,9.700,48.500,415.700,42970.000,29970.000,945310.000,-219000.000,19000.000,-49000.000,-19.142,-136.458,-114.847,-72.902,91.070,-61.190,11897.167,25107.155,-11830.131
1512176785,9.900,24.500,418.800,77820.000,7390.000,985170.000,-219000.000,19000.000,-49000.000,88.311,-228.239,-73.632,35.500,90.612,-58.720,11783.672,24881.981,-11791.779
1512176785,-12.700,-11.600,422.900,65670.000,11350.000,970760.000,-219000.000,19000.000,-49000.000,215.998,-339.604,161.295,48.234,31.744,-36.452,11631.459,24431.763,-12165.710
1512176785,-0.300,-21.300,424.900,74220.000,10130.000,993710.000,-219000.000,19000.000,-49000.000,136.239,-201.316,124.377,-38.978,-1.220,-17.087,11518.284,24319.092,-12502.312
1512176785,46.100,15.700,422.100,71410.000,12390.000,1122990.000,-221000.000,17000.000,-50000.000,-62.192,-39.974,-53.305,-51.381,29.203,-6.538,11292.141,24056.252,-12425.521
1512176786,-1.200,-13.400,426.500,66220.000,13790.000,1034300.000,-221000.000,17000.000,-50000.000,-103.506,45.166,-193.792,-15.957,69.191,-20.272,11103.405,23830.963,-12874.023
1512176786,-2.800,-20.400,428.900,60610.000,24840.000,1010800.000,-221000.000,17000.000,-50000.000,-86.532,132.765,-184.713,42.295,76.287,-19.020,11176.708,23456.070,-12874.832
1512176786,5.200,2.000,426.000,79650.000,34910.000,984070.000,-221000.000,17000.000,-50000.000,-79.547,166.769,-89.615,110.084,48.479,-12.277,11327.358,23606.308,-12951.035
1512176786,-1.600,-38.600,423.800,94360.000,44430.000,1026980.000,-221000.000,17000.000,-50000.000,-102.452,132.365,4.813,124.882,39.503,-26.797,11551.342,23381.638,-12953.049
1512176786,-10.000,-64.000,429.400,79350.000,37480.000,971010.000,-205000.000,19000.000,-62000.000,-93.039,187.895,17.932,108.877,40.871,-44.802,11625.332,23156.754,-12953.796
1512176786,0.300,-65.100,427.700,43880.000,64030.000,1051270.000,-205000.000,19000.000,-62000.000,-71.652,311.840,20.809,107.966,45.462,-36.262,11474.575,23006.516,-13102.585
1512176786,-6.700,-74.700,427.700,82090.000,51450.000,1047850.000,-205000.000,19000.000,-62000.000,-103.874,382.256,38.710,103.732,48.373,-22.964,11772.900,22631.973,-13105.316
1512176786,-13.300,-70.400,430.000,59390.000,25630.000,983090.000,-205000.000,19000.000,-62000.000,-169.494,387.552,10.060,67.354,63.383,-40.651,11774.761,23006.973,-12730.148
1512176786,-19.200,-51.300,422.900,113100.000,10620.000,938420.000,-205000.000,8000.000,-59000.000,-198.172,370.559,-61.841,41.511,82.600,-52.776,11850.552,23157.089,-12505.722
1512176786,-25.000,-50.600,420.400,157230.000,11050.000,934810.000,-205000.000,8000.000,-59000.000,-205.245,362.053,-85.425,32.891,103.257,-53.937,12150.661,23157.532,-12283.264
