unixtime,rx,ry,rz,ax,ay,az,mx,my,mz,apprx,appry,apprz,appax,appay,appaz,appmx,appmy,appmz
1512177536,5.300,-2.900,66.800,-79650.000,-53410.000,933960.000,-217000.000,-77000.000,-40000.000,-54.979,97.820,66.898,-23.667,26.636,41.232,-22207.123,13120.216,-11981.606
1512177536,7.700,-26.600,80.400,-32900.000,-39120.000,928410.000,-217000.000,-77000.000,-40000.000,-117.919,156.466,72.587,-12.726,21.611,-12.094,-21832.382,13045.769,-11834.831
1512177536,12.900,-8.500,74.600,-18980.000,-65310.000,912290.000,-217000.000,-77000.000,-40000.000,-120.353,158.560,90.681,-9.256,46.608,-56.211,-22284.378,12670.097,-12431.175
1512177536,18.400,-9.500,58.500,-41440.000,-26670.000,923030.000,-217000.000,-77000.000,-40000.000,-59.941,89.181,108.370,27.468,63.247,-87.817,-21908.737,12895.668,-13184.258
1512177536,12.500,-15.000,49.400,-58590.000,-33810.000,938900.000,-216000.000,-82000.000,-42000.000,-1.563,-12.100,54.496,68.507,79.470,-88.016,-22134.033,12820.320,-13107.384
1512177536,1.300,-30.100,50.200,-58040.000,-25090.000,873410.000,-216000.000,-82000.000,-42000.000,83.929,-136.910,36.112,115.645,85.414,-40.207,-22358.780,12894.981,-13255.440
1512177536,-7.900,-5.500,54.200,-25150.000,-40650.000,936400.000,-216000.000,-82000.000,-42000.000,151.295,-228.767,83.675,113.965,49.233,16.223,-22583.405,12969.643,-13178.490
1512177536,10.700,6.100,54.500,-49070.000,-43270.000,942930.000,-216000.000,-82000.000,-42000.000,137.505,-307.951,139.698,52.026,24.687,19.947,-22583.359,12969.643,-13103.493
1512177536,1.200,-19.300,64.300,15080.000,-22890.000,932370.000,-230000.000,-82000.000,-38000.000,80.530,-222.517,108.255,-19.242,20.362,9.968,-22361.771,12219.978,-13180.748
1512177536,7.600,-2.800,70.700,14340.000,-67080.000,870060.000,-230000.000,-82000.000,-38000.000,0.844,-90.035,34.004,-47.706,11.499,0.360,-22584.900,12594.643,-12803.658
1512177536,15.600,21.800,76.600,11350.000,-7510.000,924740.000,-230000.000,-82000.000,-38000.000,-57.289,-8.762,-57.171,-67.275,35.993,-3.761,-22583.557,12894.646,-12803.520
1512177536,15.600,51.000,73.600,-25880.000,-21970.000,876710.000,-230000.000,-82000.000,-38000.000,-82.446,100.067,-13.450,-44.887,65.417,4.097,-22883.514,12894.203,-12725.975
1512177536,15.700,44.300,70.800,-22950.000,-50600.000,912600.000,-230000.000,-82000.000,-38000.000,-71.786,114.916,52.856,13.904,78.098,2.289,-22659.561,12669.533,-12802.986
1512177536,22.200,28.800,67.200,-28630.000,-44860.000,930910.000,-228000.000,-81000.000,-30000.000,-50.159,96.699,97.880,45.091,51.136,-25.666,-22357.834,13044.991,-12730.370
1512177536,15.400,7.600,72.400,-60550.000,-74580.000,989690.000,-228000.000,-81000.000,-30000.000,-47.386,92.380,123.491,42.419,13.138,-80.853,-22357.346,13119.987,-12430.336
1512177536,14.000,34.100,77.800,-102540.000,-81050.000,918760.000,-228000.000,-81000.000,-30000.000,-53.706,108.398,119.189,35.726,-12.513,-139.142,-22282.043,13195.107,-12505.928
1512177536,13.800,40.700,74.700,-31620.000,-39370.000,950200.000,-228000.000,-81000.000,-30000.000,-61.950,124.569,38.105,40.523,32.554,-159.894,-21983.810,12820.549,-12658.653
1512177536,13.000,56.100,78.000,6100.000,-72750.000,913700.000,-228000.000,-81000.000,-30000.000,46.136,75.652,10.718,80.944,76.423,-100.538,-22209.152,12745.216,-12656.776
1512177536,10.300,29.800,77.200,5860.000,-26670.000,862120.000,-237000.000,-61000.000,-22000.000,123.384,-33.244,40.242,92.991,73.489,-47.084,-22134.155,12745.323,-12657.417
1512177536,3.600,15.800,79.100,-7750.000,-68360.000,867250.000,-237000.000,-61000.000,-22000.000,129.266,-111.267,67.774,66.424,50.274,-15.249,-22208.618,12895.210,-12956.703
1512177536,5.200,10.700,76.700,21120.000,-60420.000,895690.000,-237000.000,-61000.000,-22000.000,106.402,-110.162,32.267,34.349,33.346,1.318,-22134.491,12670.326,-12657.448
1512177536,3.700,39.100,75.100,87280.000,-52120.000,882810.000,-237000.000,-61000.000,-22000.000,40.840,-41.843,2.769,23.178,36.602,24.397,-22359.528,12669.991,-12730.537
1512177536,-10.300,25.200,78.800,58110.000,-62990.000,945500.000,-228000.000,-81000.000,-27000.000,-24.278,38.158,12.768,21.627,52.178,41.193,-22060.196,12520.439,-12733.162
1512177536,-5.200,4.900,88.000,-22890.000,-37840.000,970890.000,-228000.000,-81000.000,-27000.000,-71.902,84.993,58.079,36.960,69.672,32.319,-22285.507,12445.091,-12656.288
1512177536,-16.100,0.300,89.700,370.000,-23130.000,972840.000,-228000.000,-81000.000,-27000.000,-38.075,99.967,76.747,52.823,69.546,15.112,-22059.113,12745.430,-12583.046
1512177536,-26.200,-8.900,100.000,-13670.000,-54140.000,928160.000,-228000.000,-81000.000,-27000.000,-20.519,123.417,111.192,85.215,72.982,8.247,-22134.567,12670.326,-12807.457
1512177536,-6.900,-2.700,104.000,-4030.000,-60670.000,874450.000,-228000.000,-81000.000,-27000.000,-60.453,227.376,178.671,125.908,21.110,-43.916,-21569.847,13158.669,-12774.505
1512177536,-9.100,-28.800,108.300,10310.000,-36440.000,877810.000,-226000.000,-79000.000,-38000.000,-110.741,338.956,162.873,160.822,35.294,-146.000,-21418.083,13571.403,-12963.089
1512177536,-6.000,-24.500,113.300,49800.000,-66590.000,839600.000,-226000.000,-79000.000,-38000.000,91.712,98.932,156.975,208.093,99.844,-119.583,-20817.688,13684.800,-13193.146
1512177536,-1.100,3.900,118.400,41750.000,-60550.000,918880.000,-226000.000,-79000.000,-38000.000,293.787,-160.490,237.889,99.409,64.981,-18.592,-20965.164,14247.078,-13191.597
1512177536,-2.100,32.600,123.000,38570.000,-78550.000,884770.000,-226000.000,-79000.000,-38000.000,122.632,-98.618,147.142,11.623,43.541,55.958,-21188.065,14696.746,-13039.490
1512177536,20.900,10.300,136.000,56150.000,-81120.000,912290.000,-224000.000,-91000.000,-13000.000,-43.896,47.214,6.115,60.521,76.826,75.710,-21074.288,14996.910,-13190.308
1512177536,5.200,6.900,133.000,49930.000,-55360.000,808410.000,-224000.000,-91000.000,-13000.000,-110.479,24.564,67.439,136.931,50.750,23.822,-21223.686,15146.682,-13338.951
1512177536,-22.400,13.800,140.200,20690.000,-65430.000,936520.000,-224000.000,-91000.000,-13000.000,-36.659,106.502,281.470,69.788,-6.372,-95.440,-21109.200,15559.364,-13077.225
1512177536,-6.000,27.700,149.700,28750.000,-54870.000,895080.000,-224000.000,-91000.000,-13000.000,-0.038,297.729,300.256,77.779,21.620,-123.162,-20769.280,16122.376,-13304.833
1512177536,-5.900,39.500,157.300,14650.000,-50230.000,964290.000,-224000.000,-91000.000,-13000.000,-83.420,255.296,85.688,162.649,70.916,-86.882,-20431.381,16235.382,-13532.654
1512177536,-4.300,35.600,166.600,18310.000,-68790.000,888670.000,-242000.000,-81000.000,-27000.000,13.922,9.760,86.245,109.719,55.235,-99.611,-20617.813,16460.099,-13418.449
1512177536,2.000,18.200,169.200,35030.000,-62990.000,902160.000,-242000.000,-81000.000,-27000.000,145.651,-62.728,110.287,4.657,57.578,-12.170,-21254.494,16646.637,-13450.447
1512177537,6.700,13.700,178.700,31860.000,-62500.000,894650.000,-242000.000,-81000.000,-27000.000,28.382,25.210,114.757,-12.664,57.245,57.222,-21291.672,16721.581,-13487.587
1512177537,22.200,18.600,180.600,71960.000,-60910.000,859440.000,-242000.000,-81000.000,-27000.000,-52.513,90.258,110.614,-4.445,50.469,47.128,-21441.635,16721.367,-13411.324
1512177537,15.300,9.100,184.600,97840.000,-98880.000,842590.000,-247000.000,-93000.000,-25000.000,-111.607,175.562,143.104,41.546,50.386,5.901,-21442.688,16496.361,-13486.427
1512177537,28.200,49.300,180.600,113830.000,-42970.000,847350.000,-247000.000,-93000.000,-25000.000,-124.264,221.484,136.682,112.081,44.809,-28.509,-21065.735,16946.922,-13639.397
1512177537,38.900,59.400,189.100,75070.000,-34060.000,880250.000,-247000.000,-93000.000,-25000.000,-124.123,230.044,128.184,185.166,42.617,-60.693,-20841.934,16722.267,-14016.411
1512177537,36.200,38.700,186.000,47790.000,-47550.000,905580.000,-247000.000,-93000.000,-25000.000,-155.842,326.026,181.361,230.053,34.070,-99.480,-20689.911,17172.493,-14017.479
1512177537,28.000,34.200,189.500,37840.000,-73300.000,934630.000,-247000.000,-93000.000,-25000.000,-166.005,365.468,218.667,291.711,40.670,-136.410,-20241.211,16873.161,-13946.449
1512177537,24.800,14.100,202.000,50480.000,-85210.000,951420.000,-247000.000,-111000.000,-32000.000,-59.946,290.795,247.659,329.023,71.044,-145.633,-19715.057,17173.958,-14325.768
1512177537,24.800,-9.700,207.500,35890.000,-63600.000,900020.000,-247000.000,-111000.000,-32000.000,93.035,189.372,340.140,322.712,79.758,-127.118,-20015.961,16948.494,-14098.320
1512177537,29.000,-15.400,214.700,45170.000,-53410.000,868900.000,-247000.000,-111000.000,-32000.000,230.073,52.677,426.933,256.466,66.836,-87.473,-19638.260,17549.065,-14101.219
1512177537,19.200,-25.800,229.600,80080.000,-53590.000,869200.000,-247000.000,-111000.000,-32000.000,283.472,13.250,419.040,157.274,74.708,-57.193,-19637.314,17774.071,-14251.122
1512177537,12.100,-32.500,237.300,95640.000,-53530.000,901860.000,-247000.000,-111000.000,-32000.000,239.547,95.529,371.784,89.804,75.066,-7.774,-19936.157,17998.619,-13948.479
1512177537,14.500,-9.900,238.600,88500.000,-57920.000,929810.000,-258000.000,-96000.000,-38000.000,135.710,159.658,271.358,77.630,85.673,25.367,-19935.898,18073.616,-14098.427
1512177537,22.900,28.200,235.300,136840.000,-42050.000,934690.000,-258000.000,-96000.000,-38000.000,58.012,183.184,201.023,75.706,84.673,34.934,-20012.207,17773.506,-14022.942
1512177537,18.000,11.300,239.200,119930.000,-59570.000,928530.000,-258000.000,-96000.000,-38000.000,41.593,154.267,225.202,61.238,76.175,12.996,-20157.852,18748.283,-14096.214
1512177537,13.600,-6.500,247.500,122070.000,-40890.000,969480.000,-258000.000,-96000.000,-38000.000,72.636,131.772,281.009,40.634,56.967,-17.586,-19557.144,18899.193,-14026.237
1512177537,6.000,21.200,248.500,130620.000,-30210.000,911130.000,-261000.000,-107000.000,-42000.000,109.062,124.248,334.815,15.021,29.993,-40.081,-19707.809,18748.970,-14025.032
1512177537,34.900,50.300,262.200,125980.000,-61160.000,963380.000,-261000.000,-107000.000,-42000.000,82.776,177.525,379.392,11.348,8.892,-69.395,-19708.527,18598.961,-14100.105
1512177537,24.600,37.000,267.600,59200.000,-50600.000,806270.000,-261000.000,-107000.000,-42000.000,-12.799,310.936,363.547,54.521,3.419,-114.046,-19106.842,18974.861,-14105.034
1512177537,10.300,13.400,269.600,90090.000,-55420.000,808960.000,-261000.000,-107000.000,-42000.000,-101.725,346.252,263.240,156.655,41.640,-141.885,-18882.217,18900.200,-14181.984
1512177537,-8.400,-35.300,289.400,112240.000,-80140.000,731320.000,-261000.000,-107000.000,-42000.000,-119.483,346.522,111.602,283.164,77.633,-128.573,-18434.006,18525.871,-14410.973
1512177537,5.100,-12.800,301.300,18130.000,-55850.000,902770.000,-261000.000,-118000.000,-38000.000,-143.239,339.103,65.394,371.392,96.379,-118.980,-18433.044,18750.877,-14485.863
1512177537,9.600,26.800,323.600,32290.000,-35280.000,933650.000,-261000.000,-118000.000,-38000.000,-72.928,156.428,123.341,411.874,92.988,-106.074,-18132.477,18901.329,-14713.356
1512177537,-3.200,41.700,313.100,89480.000,-40160.000,960330.000,-261000.000,-118000.000,-38000.000,153.061,-116.912,240.801,328.964,101.573,-94.321,-18282.104,18976.097,-14637.047
1512177537,-12.800,19.200,313.200,176030.000,-39370.000,890080.000,-261000.000,-118000.000,-38000.000,389.209,-162.266,398.641,126.805,62.410,-34.924,-18430.428,19350.876,-14673.095
1512177537,5.100,48.700,305.100,103880.000,-18920.000,925110.000,-261000.000,-118000.000,-38000.000,232.810,117.180,490.093,-59.435,22.233,13.045,-18466.240,19725.822,-14672.608
1512177537,-3.700,14.800,306.800,143800.000,-55730.000,870670.000,-247000.000,-121000.000,-42000.000,-87.119,312.053,280.387,75.084,65.651,3.262,-18092.048,19576.386,-14938.363
1512177537,-2.900,15.800,317.400,104000.000,-57500.000,894040.000,-247000.000,-121000.000,-42000.000,-124.874,368.808,180.895,229.429,64.781,-149.418,-17227.860,19952.682,-14945.519
1512177537,-15.700,13.800,323.700,87950.000,-43210.000,898500.000,-247000.000,-121000.000,-42000.000,35.698,293.981,330.609,279.880,39.952,-196.285,-16515.549,19916.252,-14989.090
1512177537,-0.700,11.100,331.600,101990.000,-45960.000,861150.000,-247000.000,-121000.000,-42000.000,300.595,53.870,416.763,126.751,83.377,-134.709,-16140.847,19879.311,-15254.799
1512177537,7.700,-2.000,338.600,123170.000,-63350.000,893370.000,-277000.000,-130000.000,-37000.000,149.480,146.790,308.827,69.673,56.973,-52.651,-15801.201,20367.325,-15369.934
1512177537,10.300,16.800,345.000,122010.000,-67320.000,926090.000,-277000.000,-130000.000,-37000.000,55.298,82.364,134.002,148.917,112.250,-25.599,-15614.441,20217.605,-15484.101
1512177537,17.600,39.000,347.100,111510.000,-74280.000,913760.000,-277000.000,-130000.000,-37000.000,157.359,-95.351,142.326,187.936,91.350,29.524,-15841.316,19804.764,-15519.874
1512177537,0.900,25.800,346.300,116330.000,-66830.000,1011350.000,-277000.000,-130000.000,-37000.000,137.437,-9.018,223.357,175.971,68.846,44.439,-15578.041,20030.159,-16009.498
1512177537,-19.000,-5.200,356.300,91980.000,-90640.000,972410.000,-277000.000,-130000.000,-37000.000,-1.466,257.630,320.351,202.819,24.795,1.197,-15128.830,19880.837,-16238.396
1512177537,-11.900,2.800,359.000,92530.000,24290.000,934510.000,-275000.000,-142000.000,-38000.000,-17.144,457.121,440.216,178.117,36.614,-88.409,-14453.698,19919.342,-16319.114
1512177537,-23.200,-10.500,360.600,162050.000,-41560.000,953670.000,-275000.000,-142000.000,-38000.000,6.431,569.664,535.296,169.478,58.892,-128.770,-13437.966,20633.370,-16289.894
1512177538,-28.100,-23.600,362.100,155400.000,-12630.000,817320.000,-275000.000,-142000.000,-38000.000,0.374,571.233,546.939,163.337,71.008,-158.440,-12650.818,20559.547,-16334.114
1512177538,-38.700,-25.400,368.300,122800.000,-72200.000,998110.000,-275000.000,-142000.000,-38000.000,-9.221,589.377,547.930,164.288,75.748,-195.008,-12574.509,20859.657,-16409.615
1512177538,-45.000,-44.300,370.400,194580.000,-36500.000,905520.000,-284000.000,-148000.000,-37000.000,-13.548,572.274,551.006,183.626,77.753,-230.070,-11599.579,20861.122,-16567.909
1512177538,-48.600,-43.500,376.700,197690.000,-26370.000,855590.000,-284000.000,-148000.000,-37000.000,58.032,332.204,464.855,254.167,154.435,-214.560,-11750.290,20710.899,-16641.701
1512177538,-34.100,-34.400,378.800,159610.000,-44740.000,872800.000,-284000.000,-148000.000,-37000.000,267.799,166.130,342.589,340.601,138.700,-112.033,-11374.725,20861.458,-16869.820
1512177538,-26.600,-48.300,383.800,218080.000,-97720.000,835510.000,-284000.000,-148000.000,-37000.000,233.673,-28.317,333.956,372.113,95.227,-97.533,-11153.259,20111.794,-17172.066
1512177538,-22.500,-65.600,394.100,168270.000,-101260.000,795350.000,-284000.000,-148000.000,-37000.000,170.209,-56.252,367.053,306.011,68.821,-103.490,-11077.209,20336.906,-17097.603
1512177538,2.400,-49.500,392.400,153320.000,-96010.000,805420.000,-272000.000,-149000.000,-38000.000,238.003,-139.513,389.066,243.006,59.237,-99.104,-10853.302,20112.251,-17249.626
1512177538,9.300,-74.800,408.500,140500.000,13180.000,909180.000,-272000.000,-149000.000,-38000.000,313.181,-177.907,418.808,161.783,98.588,-77.376,-11301.498,20486.580,-17020.622
1512177538,49.300,-79.100,448.600,169980.000,-76970.000,959110.000,-272000.000,-149000.000,-38000.000,404.122,-61.564,533.530,99.276,55.916,-9.002,-11301.346,20561.577,-17395.592
1512177538,37.000,-33.000,403.100,163760.000,24660.000,955020.000,-272000.000,-149000.000,-38000.000,272.725,50.227,620.500,42.126,19.387,-19.029,-11151.123,20561.806,-16946.861
1512177538,11.600,0.400,403.700,220760.000,-43760.000,1003850.000,-272000.000,-149000.000,-38000.000,125.189,236.994,590.228,-19.914,31.360,-58.550,-11001.678,20487.022,-17398.170
1512177538,3.900,37.800,405.300,175720.000,-62680.000,973450.000,-291000.000,-169000.000,-37000.000,15.219,477.383,482.865,33.880,77.176,-68.040,-10926.300,20562.141,-17323.784
1512177538,7.600,81.000,433.000,112370.000,17460.000,1016910.000,-291000.000,-169000.000,-37000.000,-87.131,599.114,424.237,150.787,83.661,-93.399,-10628.860,20037.575,-17701.561
1512177538,-8.300,100.000,385.500,117430.000,-86910.000,929990.000,-291000.000,-169000.000,-37000.000,-147.487,465.691,329.089,248.749,117.997,-144.632,-10026.749,20488.487,-17556.450
1512177538,-19.700,81.100,419.700,264470.000,23740.000,1081970.000,-291000.000,-169000.000,-37000.000,10.123,268.440,264.589,330.163,150.390,-141.050,-9652.054,20414.055,-17484.673
1512177538,-23.200,16.800,309.600,380310.000,-8300.000,977970.000,-296000.000,-209000.000,-89000.000,194.192,82.698,341.231,358.405,145.495,-132.834,-9276.489,20564.613,-17712.791
1512177538,3.700,35.800,421.300,95400.000,-139710.000,866520.000,-296000.000,-209000.000,-89000.000,250.479,2.526,415.327,325.765,106.375,-101.831,-9504.639,19889.275,-17936.195
1512177538,21.700,31.300,427.000,26920.000,-7570.000,919860.000,-296000.000,-209000.000,-89000.000,308.374,-36.997,457.602,261.667,71.106,-69.174,-9053.619,20114.952,-17939.919
1512177538,7.500,-9.300,424.400,121460.000,-7690.000,1032900.000,-296000.000,-209000.000,-89000.000,275.910,-2.920,489.235,171.322,78.703,-47.569,-9053.970,20039.940,-17939.949
1512177538,25.000,3.700,423.400,167240.000,-23320.000,1073850.000,-296000.000,-209000.000,-89000.000,293.066,48.259,550.428,98.014,85.253,-47.744,-9428.970,20039.375,-17936.760
1512177538,-3.700,89.500,423.600,211000.000,-30520.000,907530.000,-296000.000,-213000.000,-96000.000,313.042,76.278,438.876,90.281,91.000,-15.016,-9278.656,20114.601,-18013.008
1512177538,-38.000,39.100,436.500,247380.000,-16300.000,911800.000,-296000.000,-213000.000,-96000.000,264.097,109.452,370.054,130.553,94.707,45.728,-9203.857,20114.723,-18388.649
1512177538,-41.900,65.200,437.200,236760.000,4210.000,865660.000,-296000.000,-213000.000,-96000.000,143.550,127.290,440.863,153.526,60.823,51.229,-9128.891,20114.830,-18464.272
1512177538,-31.200,72.000,441.800,75380.000,-430.000,881770.000,-296000.000,-213000.000,-96000.000,24.456,221.010,491.700,110.780,11.525,-47.297,-8754.379,19965.401,-18092.537
1512177538,-22.600,59.300,445.400,130860.000,-48520.000,947140.000,-307000.000,-216000.000,-79000.000,-11.944,327.746,506.470,95.546,-2.730,-152.603,-8678.024,20265.511,-18093.025
1512177538,-36.800,38.900,456.700,151000.000,17520.000,901000.000,-307000.000,-216000.000,-79000.000,-47.450,443.074,499.962,154.066,35.060,-202.767,-8190.879,20191.238,-18134.712
1512177538,-47.700,22.500,451.500,146910.000,-63540.000,814640.000,-307000.000,-216000.000,-79000.000,136.417,71.438,321.702,311.115,125.541,-144.798,-7590.164,20379.638,-18402.221
1512177538,-8.100,25.300,447.300,24780.000,40830.000,866330.000,-307000.000,-216000.000,-79000.000,221.365,-163.392,298.128,290.420,79.708,-42.054,-7441.147,20192.360,-18666.092
1512177538,-34.500,74.400,449.900,52250.000,-48400.000,1026370.000,-307000.000,-216000.000,-79000.000,211.347,-55.706,393.770,69.235,83.915,-43.156,-7702.308,20491.974,-18701.217
1512177538,-62.600,93.100,443.500,70560.000,-75810.000,1052370.000,-288000.000,-229000.000,-84000.000,267.973,202.086,528.212,-50.773,70.112,23.309,-7889.755,20491.691,-18587.120
1512177538,-30.000,66.800,427.200,111210.000,2260.000,971250.000,-288000.000,-229000.000,-84000.000,40.811,292.772,409.037,23.033,65.654,14.277,-7139.359,20605.316,-18818.443
1512177538,-14.100,69.100,416.000,119020.000,-22770.000,986510.000,-288000.000,-229000.000,-84000.000,-57.062,255.173,168.156,200.593,82.332,-71.147,-6279.220,20081.604,-18826.020
1512177538,10.500,62.500,420.100,167970.000,-42480.000,949950.000,-288000.000,-229000.000,-84000.000,64.006,58.049,283.827,259.682,62.759,-104.089,-5942.337,19969.612,-19053.933
1512177538,17.200,60.300,419.600,129640.000,-51700.000,921810.000,-288000.000,-229000.000,-84000.000,228.165,22.857,379.361,238.588,56.678,-28.907,-5866.554,20157.227,-19166.984
1512177538,50.600,49.300,423.600,57070.000,-43090.000,982910.000,-293000.000,-259000.000,-99000.000,63.883,215.195,492.786,188.051,20.798,-23.061,-5754.776,20007.393,-19280.510
1512177538,56.600,4.800,416.500,57860.000,9090.000,855290.000,-293000.000,-259000.000,-99000.000,-28.367,385.474,470.720,146.393,62.950,-127.071,-5415.726,20345.398,-19208.221
1512177538,-37.200,62.600,415.200,73180.000,-64390.000,791140.000,-293000.000,-259000.000,-99000.000,167.411,185.056,419.558,180.742,96.291,-77.483,-5113.998,20720.848,-19135.605
1512177539,-3.600,14.100,425.800,64940.000,-54990.000,909550.000,-293000.000,-259000.000,-99000.000,209.073,7.822,405.150,114.710,79.525,-26.041,-5151.810,20645.805,-19097.816
1512177539,-33.800,-8.800,417.300,133120.000,-73120.000,941470.000,-293000.000,-245000.000,-82000.000,200.405,63.331,415.877,46.403,47.280,-17.323,-4926.895,20646.141,-19249.718
1512177539,-29.400,6.900,410.700,108830.000,-61650.000,919980.000,-293000.000,-245000.000,-82000.000,113.208,164.693,407.504,0.850,35.641,-37.725,-5152.008,20645.790,-19472.816
1512177539,-46.900,5.100,414.100,143740.000,-44370.000,947270.000,-293000.000,-245000.000,-82000.000,47.219,294.917,408.069,11.149,57.952,-46.871,-4851.700,20721.245,-19550.331
1512177539,-28.000,17.600,407.300,143190.000,-40890.000,957460.000,-293000.000,-245000.000,-82000.000,53.106,343.062,377.410,65.336,71.223,-49.738,-4776.367,20796.364,-19550.926
1512177539,9.100,15.300,392.200,157780.000,-4760.000,939390.000,-293000.000,-245000.000,-82000.000,78.783,281.156,367.968,117.652,69.650,-57.191,-4403.839,20271.919,-19779.366
1512177539,21.700,45.500,388.200,99670.000,-55600.000,973270.000,-281000.000,-264000.000,-108000.000,107.292,195.723,380.879,132.768,46.284,-84.237,-4253.311,20422.142,-20080.574
1512177539,34.800,82.600,391.100,120420.000,-56580.000,887510.000,-281000.000,-264000.000,-108000.000,137.779,146.711,339.572,130.729,32.295,-117.430,-4178.284,20422.264,-20006.203
1512177539,20.600,70.200,389.100,143550.000,-45530.000,887150.000,-281000.000,-264000.000,-108000.000,169.771,169.317,275.083,138.430,36.054,-113.181,-4178.009,20497.261,-20156.166
1512177539,36.400,38.300,382.800,18250.000,-76350.000,947810.000,-281000.000,-264000.000,-108000.000,208.832,158.776,232.970,158.405,46.074,-69.482,-4028.046,20497.490,-20232.445
1512177539,37.800,21.400,380.400,97350.000,-48220.000,810060.000,-281000.000,-264000.000,-108000.000,248.841,55.168,257.706,170.373,63.045,-12.242,-4103.165,20497.368,-20456.810
1512177539,79.200,8.100,372.000,31620.000,-41500.000,945680.000,-289000.000,-269000.000,-89000.000,264.671,-79.401,261.735,160.377,87.742,50.183,-4180.008,20122.261,-20756.340
1512177539,50.500,27.400,363.500,116390.000,-64030.000,924800.000,-289000.000,-269000.000,-89000.000,226.159,-178.809,265.096,139.967,79.739,104.932,-4629.959,20121.574,-20677.513
1512177539,56.300,21.000,357.400,117000.000,-103820.000,908140.000,-289000.000,-269000.000,-89000.000,135.007,-253.777,294.431,67.649,52.876,112.215,-4404.846,20121.925,-20454.430
1512177539,64.700,20.600,381.000,135500.000,-37230.000,835940.000,-289000.000,-269000.000,-89000.000,32.434,-167.447,312.433,-46.607,44.632,55.579,-4329.895,20122.032,-20530.067
1512177539,58.300,5.700,358.200,43520.000,-24290.000,869870.000,-281000.000,-260000.000,-81000.000,-86.181,145.290,344.851,-114.285,27.375,-5.190,-4029.510,20197.487,-20457.588
1512177539,26.800,29.000,354.200,44010.000,-20570.000,984680.000,-281000.000,-260000.000,-81000.000,-164.022,385.620,293.390,-48.947,11.591,-46.225,-3724.335,21022.942,-17534.752
1512177539,-12.800,66.200,350.300,59940.000,-51270.000,909360.000,-281000.000,-260000.000,-81000.000,-215.124,484.072,165.066,100.893,5.450,-78.853,-3276.703,20573.616,-18213.799
1512177539,-20.900,45.400,347.800,44920.000,-27400.000,888430.000,-281000.000,-260000.000,-81000.000,-265.328,391.182,101.115,240.938,52.928,-108.097,-2827.148,20499.290,-18442.650
1512177539,15.200,18.600,341.000,0.000,-26430.000,920100.000,-281000.000,-260000.000,-81000.000,-172.143,264.277,68.978,334.055,89.368,-123.937,-2826.813,20574.287,-18442.619
1512177539,1.900,1.500,344.600,69760.000,-33510.000,864440.000,-293000.000,-273000.000,-72000.000,-29.428,138.183,199.597,347.358,82.231,-129.025,-2377.106,20499.962,-18371.468
1512177539,9.700,-4.500,343.500,45170.000,-27590.000,925050.000,-293000.000,-273000.000,-72000.000,119.469,8.876,344.158,285.594,49.949,-141.311,-2226.852,20575.188,-18522.713
1512177539,6.400,-4.900,338.800,80380.000,-98210.000,882390.000,-293000.000,-273000.000,-72000.000,232.691,-8.147,393.708,190.759,43.342,-113.903,-2378.235,20274.956,-18596.581
1512177539,11.900,12.800,344.300,42050.000,-99060.000,967040.000,-293000.000,-273000.000,-72000.000,214.039,111.391,432.234,114.092,57.950,-64.399,-2152.557,20425.301,-18598.427
1512177539,3.200,9.600,335.600,90450.000,-9030.000,804380.000,-274000.000,-292000.000,-101000.000,171.557,236.315,428.856,94.551,74.199,-30.748,-2378.006,20349.953,-18821.541
1512177539,11.100,1.700,341.300,73550.000,-6590.000,964360.000,-274000.000,-292000.000,-101000.000,124.153,260.874,395.205,119.251,56.413,-14.118,-1702.179,20575.966,-19202.171
1512177539,12.300,10.400,333.800,102420.000,-59020.000,902710.000,-274000.000,-292000.000,-101000.000,56.063,204.838,319.399,133.492,58.740,-66.212,-1441.086,20238.869,-18979.561
1512177539,-11.500,10.300,336.600,117490.000,-65060.000,805180.000,-274000.000,-292000.000,-101000.000,100.632,116.765,327.735,126.626,55.859,-101.514,-1442.306,19938.865,-18717.202
1512177539,1.300,17.600,337.300,103820.000,-58170.000,956600.000,-274000.000,-292000.000,-101000.000,176.135,28.741,334.920,56.145,83.233,-57.637,-1328.003,20351.532,-18830.467
1512177539,2.800,28.900,341.900,110470.000,-61650.000,895140.000,-282000.000,-297000.000,-113000.000,100.246,77.392,252.436,29.850,63.680,-7.526,-1067.230,19976.921,-18907.868
1512177539,-1.200,32.400,346.100,110410.000,-5860.000,933170.000,-282000.000,-297000.000,-113000.000,-75.341,151.586,140.347,126.490,53.867,-55.285,-769.158,19564.873,-19060.615
1512177539,-22.500,-0.100,343.300,143860.000,-40950.000,876590.000,-282000.000,-297000.000,-113000.000,-16.455,147.838,189.158,224.329,96.795,-87.656,-504.875,19940.262,-18875.168
1512177539,-8.700,-12.800,340.800,89480.000,-73970.000,937070.000,-282000.000,-297000.000,-113000.000,155.073,74.668,321.449,210.885,74.180,-44.220,-244.125,19565.658,-18990.074
1512177539,-19.200,-26.500,344.700,110470.000,-28020.000,852780.000,-282000.000,-297000.000,-113000.000,106.621,146.570,386.560,117.595,67.628,-29.294,54.886,19378.609,-19292.710
1512177539,5.100,-30.100,347.900,168460.000,-35220.000,889100.000,-274000.000,-306000.000,-94000.000,116.594,205.377,366.654,83.353,83.377,-45.162,280.068,19378.944,-18919.624
1512177539,-20.200,-9.500,361.000,203120.000,-78550.000,913570.000,-274000.000,-306000.000,-94000.000,60.820,190.958,321.554,116.762,80.632,-67.353,766.861,19229.675,-18998.840
1512177539,16.500,-4.900,340.600,212460.000,-7810.000,800480.000,-274000.000,-306000.000,-94000.000,116.692,121.732,259.224,165.465,87.944,-43.029,916.900,19229.897,-18925.110
1512177539,-46.500,40.300,341.400,127080.000,-60610.000,925170.000,-274000.000,-306000.000,-94000.000,63.270,119.843,363.451,114.965,26.780,-66.631,1365.066,18818.077,-18891.624
1512177540,4.900,30.600,337.400,98450.000,-48580.000,931400.000,-267000.000,-317000.000,-91000.000,36.220,270.423,363.052,70.466,52.677,-109.184,1212.814,18330.345,-19003.075
1512177540,-14.400,1.300,322.200,208010.000,-46390.000,842220.000,-267000.000,-317000.000,-91000.000,43.405,288.680,315.243,109.306,68.171,-87.090,1811.844,18106.239,-18933.281
1512177540,21.800,22.600,336.900,56580.000,-43030.000,1007140.000,-267000.000,-317000.000,-91000.000,39.183,222.465,310.692,151.058,87.194,-84.739,2188.568,18481.804,-18861.290
1512177540,18.200,29.300,341.700,78370.000,-4520.000,851680.000,-267000.000,-317000.000,-91000.000,84.186,145.657,292.954,161.603,77.547,-77.144,2038.864,18556.587,-18934.990
1512177540,7.900,24.800,341.600,115360.000,-42790.000,887880.000,-267000.000,-317000.000,-91000.000,95.171,70.945,269.399,173.726,88.380,-72.599,2190.109,18856.804,-19161.125
1512177540,-6.400,-1.100,348.200,206670.000,-2990.000,981510.000,-275000.000,-322000.000,-86000.000,112.217,77.373,269.665,157.107,82.900,-39.432,2038.757,18556.587,-19159.981
1512177540,21.700,14.900,341.000,140620.000,-32840.000,886960.000,-275000.000,-322000.000,-86000.000,106.501,76.250,293.032,148.998,71.735,-34.433,2337.509,18257.027,-18937.675
1512177540,34.900,30.400,348.300,89600.000,-29660.000,908940.000,-275000.000,-322000.000,-86000.000,82.189,115.631,347.186,119.981,60.278,-48.686,2487.854,18332.253,-18938.911
1512177540,15.800,22.100,349.700,57560.000,2990.000,929260.000,-275000.000,-322000.000,-86000.000,45.669,190.314,368.241,101.579,54.478,-75.780,2337.509,18257.027,-18937.675
1512177540,-6.100,11.700,350.700,63660.000,-31130.000,877810.000,-275000.000,-322000.000,-86000.000,65.715,170.021,379.118,89.828,60.926,-108.235,2861.771,18107.811,-19092.201
1512177540,-11.200,-11.900,352.100,112610.000,-490.000,934880.000,-270000.000,-327000.000,-84000.000,132.284,137.070,349.054,91.531,99.519,-91.627,2862.183,18182.823,-18942.162
1512177540,1.900,-3.900,352.200,35030.000,21850.000,1011720.000,-270000.000,-327000.000,-84000.000,172.685,50.728,286.439,121.043,101.014,-42.808,2786.011,17957.710,-19241.631
1512177540,-3.600,13.300,350.100,116030.000,-9340.000,911620.000,-270000.000,-327000.000,-84000.000,113.145,-2.752,273.662,104.492,88.062,-3.349,2936.737,18107.933,-19167.839
1512177540,-26.900,19.700,342.900,108700.000,4940.000,821720.000,-270000.000,-327000.000,-84000.000,61.396,41.027,247.484,81.082,84.166,1.696,2711.838,18107.597,-18940.926
1512177540,-33.400,30.500,339.700,150150.000,-55790.000,846500.000,-242000.000,-345000.000,-84000.000,18.192,93.358,219.322,78.392,71.677,-9.280,2786.423,18032.707,-19091.606
1512177540,-12.300,44.300,336.600,117250.000,-12080.000,869260.000,-242000.000,-345000.000,-84000.000,-16.759,175.443,273.468,84.222,68.061,-23.819,2936.096,17957.924,-19092.903
1512177540,1.300,23.600,339.200,143800.000,5620.000,888730.000,-242000.000,-345000.000,-84000.000,-2.737,212.741,330.303,105.645,57.580,-57.630,3010.681,17883.034,-19243.584
1512177540,14.000,21.700,345.700,98450.000,11660.000,900700.000,-242000.000,-345000.000,-84000.000,16.940,202.152,300.704,138.204,91.926,-83.860,3235.718,17883.385,-19170.494
1512177540,12.000,5.500,340.600,123660.000,-55110.000,927430.000,-242000.000,-345000.000,-84000.000,61.196,235.392,268.410,187.245,97.179,-67.202,3536.728,18108.833,-19172.935
1512177540,43.300,42.200,337.600,17150.000,17150.000,1009700.000,-253000.000,-334000.000,-84000.000,14.474,174.332,318.690,234.068,91.942,-84.280,3609.406,17583.946,-19098.824
1512177540,26.100,26.600,341.600,28500.000,-2560.000,957950.000,-253000.000,-334000.000,-84000.000,75.058,99.634,325.703,198.139,85.552,-94.674,3908.768,17434.395,-19026.436
1512177540,19.200,50.300,343.400,60970.000,-24170.000,962520.000,-253000.000,-334000.000,-84000.000,153.097,47.322,375.695,148.175,85.921,-93.649,3983.841,17434.502,-18877.083
1512177540,-0.800,44.900,349.800,89050.000,-4940.000,886470.000,-253000.000,-334000.000,-84000.000,148.020,123.048,428.120,76.606,79.593,-75.952,4283.691,17434.944,-19179.619
1512177540,-6.700,41.500,337.400,130800.000,-15870.000,915650.000,-253000.000,-334000.000,-84000.000,126.387,138.059,383.084,51.173,92.294,-60.514,4133.514,17359.718,-18878.395
1512177540,-8.400,31.200,327.700,118230.000,-16660.000,818850.000,-245000.000,-345000.000,-88000.000,68.676,172.328,297.085,62.300,115.342,-44.232,4284.088,17472.450,-18729.614
1512177540,13.000,57.400,336.200,91190.000,-69700.000,921630.000,-245000.000,-345000.000,-88000.000,12.585,160.543,271.712,119.489,103.974,-88.018,4919.068,16910.904,-18735.290
1512177540,8.300,32.200,337.800,121640.000,28320.000,921630.000,-245000.000,-345000.000,-88000.000,122.002,43.169,288.877,160.882,120.191,-76.704,5179.985,16573.791,-18850.174
1512177540,5.900,21.000,340.000,50660.000,6350.000,972660.000,-245000.000,-345000.000,-88000.000,122.276,39.870,336.843,145.404,99.714,-35.120,5518.013,16686.806,-18815.498
1512177540,13.300,33.700,347.300,11230.000,53410.000,967590.000,-238000.000,-338000.000,-88000.000,19.130,199.363,361.490,105.078,82.846,-82.547,5255.005,16573.906,-18813.316
1512177540,30.400,47.300,344.100,-36070.000,34060.000,1012150.000,-238000.000,-338000.000,-88000.000,53.075,174.357,337.908,120.300,121.151,-132.723,5629.371,16424.469,-18741.570
1512177540,8.000,43.100,339.400,103090.000,-9950.000,902160.000,-238000.000,-338000.000,-88000.000,100.034,105.076,299.438,138.130,122.703,-104.129,5965.607,16162.475,-18894.562
1512177540,-3.700,39.500,349.000,77760.000,60550.000,898990.000,-238000.000,-338000.000,-88000.000,122.015,64.468,321.466,82.123,127.662,-91.690,6000.596,15600.022,-18857.636
1512177540,-23.200,28.100,349.000,159300.000,-19410.000,799130.000,-238000.000,-338000.000,-88000.000,102.639,130.042,368.321,20.063,84.364,-107.858,6075.279,15525.139,-18820.808
1512177540,-1.300,43.300,347.100,80380.000,41990.000,860170.000,-231000.000,-352000.000,-81000.000,83.200,104.667,220.835,77.257,147.367,-115.699,6411.568,15263.137,-18898.796
1512177540,0.900,42.600,349.400,103090.000,-2500.000,864380.000,-231000.000,-352000.000,-81000.000,105.790,-16.441,170.102,148.523,154.761,-59.377,5999.023,15262.520,-18970.284
1512177540,14.200,52.600,349.500,78250.000,7260.000,950930.000,-231000.000,-352000.000,-81000.000,90.372,14.326,266.465,86.217,92.776,-53.235,6484.184,14775.749,-19274.666
1512177540,7.600,59.500,355.500,151180.000,46510.000,928710.000,-231000.000,-352000.000,-81000.000,57.856,217.151,308.810,60.645,115.644,-74.236,7195.122,14401.817,-19018.394
1512177541,-6.000,47.100,351.300,155330.000,60.000,857480.000,-235000.000,-366000.000,-91000.000,63.391,284.539,267.549,138.773,151.786,-61.602,7491.974,13689.766,-18908.775
1512177541,13.700,47.100,356.500,95760.000,43760.000,962280.000,-235000.000,-366000.000,-91000.000,47.699,257.848,248.039,197.141,153.564,-64.077,7718.628,14065.102,-18985.512
1512177541,6.900,22.400,361.000,56150.000,53890.000,966250.000,-235000.000,-366000.000,-91000.000,55.932,235.390,264.068,216.518,159.028,-72.436,7941.528,13615.440,-19137.627
1512177541,3.600,22.200,365.300,83740.000,42600.000,1019230.000,-235000.000,-366000.000,-91000.000,107.310,208.538,379.855,198.161,126.019,-91.980,8617.584,13841.454,-19068.260
1512177541,-23.000,24.400,364.600,223570.000,27770.000,867430.000,-235000.000,-366000.000,-91000.000,142.513,149.719,439.858,151.500,120.768,-104.212,8615.814,13466.454,-19218.437
1512177541,-44.600,-11.500,362.300,284790.000,17270.000,807010.000,-235000.000,-380000.000,-84000.000,184.986,131.480,513.969,73.014,129.757,-96.897,8839.584,13166.786,-18995.491
1512177541,-44.100,-13.700,365.100,170350.000,53220.000,896060.000,-235000.000,-380000.000,-84000.000,212.290,164.711,476.102,51.396,136.123,-90.145,8613.571,12941.444,-18993.675
1512177541,-15.000,-2.300,368.400,131290.000,70190.000,930110.000,-235000.000,-380000.000,-84000.000,159.597,188.334,376.280,82.208,127.612,-64.708,8837.784,12791.786,-19220.650
1512177541,-14.200,-20.600,369.200,168820.000,42910.000,866700.000,-235000.000,-380000.000,-84000.000,59.527,142.390,300.042,112.710,119.201,-80.888,9287.552,12717.461,-18999.519
1512177541,-32.600,-16.900,371.600,154110.000,75680.000,823180.000,-235000.000,-380000.000,-84000.000,22.890,148.953,195.062,148.852,157.955,-80.510,8987.106,12642.006,-19221.992
1512177541,-19.000,-1.700,375.000,124150.000,64210.000,943660.000,-212000.000,-364000.000,-96000.000,102.941,36.939,184.107,198.800,161.267,-41.238,8836.761,12566.780,-19220.757
1512177541,-25.600,-11.600,370.300,138310.000,72450.000,894350.000,-212000.000,-364000.000,-96000.000,157.148,-58.186,253.855,179.878,142.677,0.011,9210.419,12267.342,-19224.083
1512177541,-8.300,6.900,376.300,59880.000,62810.000,922490.000,-212000.000,-364000.000,-96000.000,197.310,-138.529,400.207,120.970,97.056,-9.869,9285.385,12267.448,-19299.721
1512177541,-24.200,-35.600,386.600,95520.000,28870.000,938600.000,-212000.000,-364000.000,-96000.000,183.333,-13.724,478.261,-5.409,77.297,-48.685,9510.117,12192.787,-19151.680
1512177541,-24.600,-31.200,388.300,113040.000,49070.000,835080.000,-216000.000,-389000.000,-93000.000,122.527,221.159,492.056,-68.029,64.719,-76.872,9585.495,12267.906,-19077.278
1512177541,-16.200,-2.900,395.700,-37840.000,68600.000,858460.000,-216000.000,-389000.000,-93000.000,-19.091,408.133,361.661,-19.694,105.273,-92.791,9358.215,11742.561,-18925.606
1512177541,-14.000,15.000,394.500,112980.000,53340.000,895570.000,-216000.000,-389000.000,-93000.000,-82.712,432.897,212.642,110.627,163.964,-82.408,9883.163,11743.355,-19005.074
1512177541,-29.600,-4.500,397.300,150700.000,92530.000,813480.000,-216000.000,-389000.000,-93000.000,-79.803,282.398,158.861,208.382,194.416,-82.624,10257.492,11593.910,-19008.324
1512177541,4.000,-24.200,406.800,97780.000,25510.000,958920.000,-216000.000,-389000.000,-93000.000,21.536,104.060,210.879,231.191,180.334,-94.263,10182.800,11668.800,-19082.649
1512177541,22.500,-25.700,400.800,15260.000,61770.000,889340.000,-200000.000,-401000.000,-91000.000,126.549,-12.394,301.543,195.611,133.989,-97.740,10405.365,11144.127,-19234.810
1512177541,11.900,-22.400,398.400,125490.000,26980.000,848390.000,-200000.000,-401000.000,-91000.000,165.654,0.316,387.439,126.988,94.944,-108.291,10556.717,11444.359,-19235.939
1512177541,12.900,-29.400,398.300,128660.000,-30150.000,900510.000,-200000.000,-401000.000,-91000.000,155.529,50.434,421.579,64.748,125.568,-89.240,10630.356,11144.463,-19236.717
1512177541,21.800,-21.600,400.100,119080.000,87280.000,886660.000,-200000.000,-401000.000,-91000.000,177.263,181.894,403.163,60.156,123.009,-47.681,10853.638,10769.798,-19313.805
1512177541,17.800,-6.300,398.400,136050.000,42180.000,911500.000,-200000.000,-401000.000,-91000.000,53.489,266.073,414.457,85.241,120.775,-42.641,10701.950,10394.585,-19312.706
1512177541,21.700,6.300,396.400,134830.000,39120.000,958920.000,-203000.000,-394000.000,-74000.000,-36.715,352.497,393.193,108.247,133.565,-77.512,10927.399,10469.917,-19089.577
1512177541,0.800,-4.400,394.800,164920.000,15140.000,865660.000,-203000.000,-394000.000,-74000.000,-67.076,414.470,363.121,151.535,133.417,-123.815,11452.545,10470.711,-18794.044
1512177541,6.700,-16.200,408.000,150940.000,65190.000,952510.000,-203000.000,-394000.000,-74000.000,18.203,286.894,388.963,189.837,166.107,-156.357,12089.676,10396.660,-18874.497
1512177541,29.800,4.000,405.700,112120.000,52060.000,941410.000,-203000.000,-394000.000,-74000.000,265.400,-70.487,347.596,189.993,161.561,-60.189,11974.021,9683.983,-18761.375
1512177541,15.700,16.400,397.100,184940.000,87460.000,846680.000,-189000.000,-401000.000,-98000.000,81.264,120.669,500.703,90.948,137.914,-96.441,12385.025,9347.107,-18727.531
1512177541,10.800,36.500,407.900,163090.000,82520.000,924130.000,-189000.000,-401000.000,-98000.000,94.640,180.638,436.077,54.545,137.059,-122.112,12533.547,9009.826,-18653.969
1512177541,8.700,49.400,409.600,186220.000,86610.000,905520.000,-189000.000,-401000.000,-98000.000,154.706,66.546,375.249,93.492,155.671,-64.381,12343.781,8484.535,-18465.118
1512177541,10.800,65.100,409.600,180660.000,73120.000,960330.000,-189000.000,-401000.000,-98000.000,61.941,141.106,412.543,55.160,110.048,-90.099,12567.703,8259.880,-18579.628
1512177541,10.500,77.400,464.200,109800.000,27770.000,898990.000,-189000.000,-401000.000,-98000.000,88.287,239.437,403.138,31.931,153.143,-105.584,12603.073,7772.431,-18467.667
1512177541,4.000,63.300,430.100,166260.000,64210.000,848750.000,-179000.000,-412000.000,-108000.000,135.190,82.628,331.314,113.785,156.409,-21.163,12940.819,7847.931,-18658.005
1512177541,23.800,63.900,428.800,123170.000,60550.000,884340.000,-179000.000,-412000.000,-108000.000,60.253,123.596,352.225,95.504,139.712,-35.214,13050.674,7248.100,-18546.730
1512177541,18.200,49.400,436.500,201480.000,91130.000,900760.000,-179000.000,-412000.000,-108000.000,49.380,188.049,433.314,94.775,105.432,-38.041,13311.836,6985.985,-18849.091
1512177541,13.700,55.500,431.300,159910.000,37050.000,822330.000,-179000.000,-412000.000,-108000.000,94.479,272.666,353.242,50.839,128.042,-56.578,13685.212,6611.549,-18739.944
1512177541,14.200,44.100,425.200,147710.000,56640.000,769960.000,-179000.000,-412000.000,-108000.000,74.576,273.552,428.646,46.395,98.288,-45.172,14170.349,6049.782,-18406.845
1512177542,8.800,46.900,433.200,130680.000,43330.000,894780.000,-173000.000,-428000.000,-82000.000,184.799,88.991,394.421,16.008,101.105,-43.552,14057.236,5899.605,-18293.465
1512177542,20.800,47.100,435.800,103880.000,85570.000,927730.000,-173000.000,-428000.000,-82000.000,198.854,82.625,381.809,39.237,64.352,-5.368,14278.854,5299.950,-19645.638
1512177542,14.500,36.800,431.400,106020.000,66590.000,943050.000,-173000.000,-428000.000,-82000.000,132.562,42.978,391.369,52.828,8.102,3.921,13903.488,5224.373,-19717.491
1512177542,-7.600,28.500,428.100,127930.000,-16720.000,933290.000,-173000.000,-428000.000,-82000.000,85.220,10.817,417.227,29.138,-11.867,-22.165,14276.428,4774.940,-19795.891
1512177542,14.500,20.800,415.300,159790.000,101990.000,789980.000,-161000.000,-430000.000,-88000.000,32.129,88.725,407.129,15.230,2.996,-61.445,14275.787,4624.931,-19720.955
1512177542,17.300,14.800,447.800,169920.000,50110.000,922490.000,-161000.000,-430000.000,-88000.000,-30.293,250.104,322.572,41.460,37.402,-92.546,14575.104,4475.380,-19723.579
1512177542,27.400,33.700,442.200,126100.000,82150.000,843930.000,-161000.000,-430000.000,-88000.000,-3.700,318.622,264.562,105.549,20.760,-82.417,14799.500,4325.722,-19575.554
1512177542,28.400,38.700,438.200,143980.000,65000.000,870420.000,-161000.000,-430000.000,-88000.000,21.234,225.784,234.750,122.643,43.039,-75.650,15099.838,4401.176,-19578.072
1512177542,45.400,22.500,441.700,93690.000,28630.000,930970.000,-161000.000,-430000.000,-88000.000,90.478,211.872,301.801,149.269,57.882,-27.257,15174.500,4326.286,-19578.743
1512177542,28.800,-17.800,444.900,71960.000,68970.000,849430.000,-154000.000,-433000.000,-77000.000,88.544,175.450,352.817,180.701,57.721,-2.015,15172.180,3801.277,-19503.990
1512177542,23.400,-69.900,449.500,100340.000,31130.000,972170.000,-154000.000,-433000.000,-77000.000,42.099,235.117,391.794,175.740,42.585,-12.822,15096.954,3726.173,-19278.389
1512177542,27.700,-103.100,452.500,108460.000,-30210.000,837710.000,-154000.000,-433000.000,-77000.000,-30.646,324.444,541.367,135.514,39.777,-67.114,15469.147,3126.732,-19506.859
1512177542,12.500,-65.000,425.400,48580.000,-8910.000,938170.000,-154000.000,-433000.000,-77000.000,-16.114,448.190,635.821,61.790,44.547,-143.674,15621.841,3651.955,-18832.893
1512177542,21.600,-15.700,407.900,65920.000,-4150.000,935790.000,-154000.000,-433000.000,-71000.000,55.605,578.511,688.482,13.542,57.510,-174.684,15846.619,3577.293,-18609.840
1512177542,-14.900,5.300,436.600,52060.000,-1220.000,1018010.000,-154000.000,-433000.000,-71000.000,92.478,627.651,717.973,-6.245,61.378,-184.963,15995.193,3202.522,-18086.281
1512177542,-34.100,-17.300,439.600,88990.000,-4820.000,1019900.000,-154000.000,-433000.000,-71000.000,103.310,487.766,700.586,17.592,104.457,-201.717,15844.223,2977.287,-18010.124
1512177542,-1.700,-19.600,428.000,139650.000,-42420.000,865110.000,-154000.000,-433000.000,-71000.000,253.350,221.195,574.972,94.031,154.335,-161.920,16292.542,2602.959,-18014.122
1512177542,30.800,-15.400,434.200,120000.000,-20080.000,835140.000,-154000.000,-433000.000,-71000.000,379.324,-134.953,352.751,166.475,173.567,-76.852,15990.967,2302.513,-18461.708
1512177542,20.100,-19.000,442.000,108760.000,-26310.000,936890.000,-121000.000,-428000.000,-72000.000,470.178,-384.334,132.527,231.686,128.006,9.630,15766.296,2377.174,-18459.755
1512177542,25.300,-38.200,427.000,133420.000,-17090.000,915160.000,-121000.000,-428000.000,-72000.000,297.033,-527.524,22.914,257.103,78.129,74.538,16139.267,1927.727,-18463.142
1512177542,49.700,-1.500,427.800,85880.000,26730.000,994870.000,-121000.000,-428000.000,-72000.000,133.579,-484.147,111.314,220.594,76.223,69.449,15613.068,1701.942,-18833.794
1512177542,27.600,43.500,426.000,151250.000,41080.000,1070130.000,-121000.000,-428000.000,-72000.000,206.626,-440.562,273.497,147.963,96.758,62.988,15162.735,1626.274,-18829.994
1512177542,-4.900,77.900,419.000,241090.000,36500.000,987180.000,-121000.000,-428000.000,-72000.000,427.685,-428.689,379.079,54.827,58.715,94.155,14486.679,1400.246,-18899.361
1512177542,-24.800,117.800,402.900,222530.000,34850.000,926640.000,-117000.000,-417000.000,-66000.000,466.083,-317.796,513.282,-71.947,-12.616,132.965,14335.999,1250.023,-18898.155
1512177542,-19.800,111.300,414.900,137510.000,27100.000,953800.000,-117000.000,-417000.000,-66000.000,295.806,-55.527,637.522,-222.998,-41.053,127.009,14108.902,799.690,-19046.455
1512177542,-21.600,63.100,419.700,134770.000,-15010.000,856260.000,-117000.000,-417000.000,-66000.000,159.997,241.401,548.104,-306.367,-52.552,112.913,14033.447,649.574,-18595.894
1512177542,-20.800,-5.500,433.400,112490.000,-44740.000,828610.000,-117000.000,-417000.000,-66000.000,-152.598,598.811,256.983,-223.058,-12.148,28.094,14370.468,537.582,-18561.318
1512177542,16.400,-38.200,437.200,54990.000,-52800.000,830630.000,-108000.000,-444000.000,-71000.000,-373.712,771.082,-63.841,44.962,24.567,-83.169,15530.906,51.819,-18308.914
1512177542,20.400,-4.700,423.300,36620.000,-45410.000,839170.000,-108000.000,-444000.000,-71000.000,-336.869,437.369,-83.656,284.564,63.311,-134.964,16619.552,278.450,-18055.557
1512177542,16.900,8.500,421.400,79220.000,-57860.000,789980.000,-108000.000,-444000.000,-71000.000,155.768,-103.300,109.227,292.369,82.453,-56.509,16657.310,353.508,-18205.833
1512177542,46.600,-43.900,411.200,139160.000,-11170.000,825560.000,-108000.000,-444000.000,-71000.000,346.358,-166.755,475.827,124.558,-31.481,52.209,16618.462,90.950,-18543.136
1512177542,19.200,-48.700,431.800,-81540.000,-89360.000,918210.000,-108000.000,-444000.000,-71000.000,274.319,26.790,586.858,56.509,-82.110,54.007,16538.666,-959.167,-18692.985
1512177542,-22.200,-17.600,413.300,9640.000,-40890.000,1031130.000,-80000.000,-423000.000,-54000.000,83.007,364.748,503.710,190.035,-88.463,28.014,16685.219,-1746.453,-18507.126
1512177542,-6.500,-45.100,395.900,-12510.000,-35460.000,935360.000,-80000.000,-423000.000,-54000.000,-38.643,411.135,448.272,268.884,-82.507,-85.223,16984.185,-2008.500,-18209.801
1512177542,-3.500,-44.300,390.800,44010.000,-59750.000,906560.000,-80000.000,-423000.000,-54000.000,257.533,44.203,409.175,166.103,-20.016,-131.777,16945.785,-2233.559,-17984.589
1512177542,-8.500,-73.400,397.300,92470.000,-81790.000,872010.000,-80000.000,-423000.000,-54000.000,493.641,-128.659,499.413,65.652,-38.848,40.013,16154.702,-3022.247,-18053.253
1512177542,-9.200,-51.100,408.800,140750.000,-77640.000,792910.000,-80000.000,-423000.000,-54000.000,265.937,109.637,549.713,-92.021,-74.591,89.641,15854.179,-3172.691,-17750.778
1512177542,-5.700,-25.400,429.300,109440.000,-93570.000,819950.000,-77000.000,-440000.000,-50000.000,-106.673,529.335,312.840,-92.388,-46.304,26.686,15816.108,-3322.754,-17525.528
1512177543,1.900,-29.400,426.600,139040.000,-148930.000,885930.000,-77000.000,-440000.000,-50000.000,-229.614,519.343,139.389,79.116,3.304,-12.919,16264.862,-3622.078,-17341.988
1512177543,4.800,-19.800,419.300,124630.000,-92160.000,837590.000,-77000.000,-440000.000,-50000.000,-194.221,421.288,57.476,185.759,10.186,-20.620,16489.563,-3696.739,-17268.944
1512177543,-11.100,-25.700,391.400,145940.000,-177730.000,848390.000,-77000.000,-440000.000,-50000.000,-166.264,298.397,101.160,258.284,15.277,-33.064,16563.889,-3846.626,-17269.646
1512177543,1.300,22.500,386.000,170230.000,-115360.000,878910.000,-72000.000,-442000.000,-72000.000,-67.819,246.002,205.813,269.681,18.815,-68.153,17164.307,-3770.729,-17124.718
1512177543,5.600,-12.100,424.500,226200.000,-148190.000,955140.000,-72000.000,-442000.000,-72000.000,125.952,155.224,345.826,249.399,-16.377,-71.044,17161.972,-4295.738,-17049.950
1512177543,9.700,-11.600,428.900,113040.000,-194890.000,886960.000,-72000.000,-442000.000,-72000.000,278.719,65.396,516.165,172.154,-50.748,-53.877,17161.713,-4370.735,-16899.986
1512177543,15.700,-20.100,435.000,166930.000,-138180.000,903560.000,-72000.000,-442000.000,-72000.000,315.422,110.106,619.191,88.871,-80.652,-33.131,17385.620,-4595.406,-17052.010
1512177543,21.800,-0.300,419.600,63170.000,-160400.000,912410.000,-72000.000,-442000.000,-72000.000,239.712,264.864,628.228,54.174,-78.853,-14.418,17308.258,-5120.522,-17051.613
1512177543,15.300,29.800,422.500,67630.000,-142520.000,908450.000,-68000.000,-442000.000,-79000.000,60.713,514.540,635.034,79.243,-81.296,-9.314,17531.570,-5495.186,-17053.688
1512177543,21.600,14.900,419.000,124630.000,-127260.000,948120.000,-68000.000,-442000.000,-79000.000,-107.336,680.950,619.319,147.383,-75.602,-47.065,17681.686,-5494.957,-16829.964
1512177543,26.100,-14.000,421.300,98210.000,-129090.000,915280.000,-68000.000,-442000.000,-79000.000,-199.535,610.380,582.557,215.913,-57.159,-117.693,17831.131,-5644.737,-16606.316
1512177543,5.900,-7.100,408.800,155700.000,-118710.000,929260.000,-68000.000,-442000.000,-79000.000,-96.316,276.582,383.537,267.922,25.573,-158.475,17529.358,-6020.180,-16753.944
1512177543,0.800,12.400,400.900,127500.000,-100040.000,918950.000,-68000.000,-442000.000,-79000.000,316.469,-147.735,284.633,287.388,37.719,-58.265,17603.424,-6245.079,-16604.683
1512177543,16.200,-40.500,415.300,123050.000,-162540.000,911320.000,-61000.000,-449000.000,-72000.000,421.023,-270.520,339.026,274.439,18.250,28.448,17377.075,-6545.418,-16602.913
1512177543,-4.100,-18.800,431.600,137700.000,-118100.000,856140.000,-61000.000,-449000.000,-72000.000,274.707,-184.391,423.555,225.037,-13.674,91.505,17228.088,-6320.641,-16601.524
1512177543,-6.900,-3.500,440.100,144960.000,-121460.000,937070.000,-61000.000,-449000.000,-72000.000,239.513,-127.967,491.468,121.080,-36.552,86.767,16700.500,-6921.425,-16372.337
1512177543,9.200,-6.100,438.500,203060.000,-121890.000,930970.000,-61000.000,-449000.000,-72000.000,228.139,84.483,545.346,-23.947,-56.178,44.599,16776.291,-6771.309,-16147.911
1512177543,24.400,16.100,451.300,202330.000,-102540.000,948730.000,-45000.000,-458000.000,-91000.000,205.358,312.978,580.994,-103.255,-86.221,20.086,16250.381,-6997.108,-15918.556
1512177543,44.600,24.400,429.700,199650.000,-105590.000,975460.000,-45000.000,-458000.000,-91000.000,177.663,387.828,517.952,-112.398,-70.572,10.989,16474.442,-7221.764,-15770.576
1512177543,71.800,91.700,411.900,198610.000,-133790.000,1031190.000,-45000.000,-458000.000,-91000.000,147.083,382.612,433.275,-48.333,-27.765,17.442,16473.175,-7521.767,-15620.720
1512177543,55.800,87.800,389.600,159420.000,-141300.000,889530.000,-45000.000,-458000.000,-91000.000,132.064,255.598,367.583,39.502,4.436,18.412,16397.949,-7596.886,-15395.119
1512177543,65.500,60.300,408.100,160100.000,-208800.000,840090.000,-45000.000,-458000.000,-91000.000,201.402,73.192,291.196,76.937,-13.118,3.912,16620.209,-8196.541,-15472.298
1512177543,60.900,51.900,433.000,66890.000,-111510.000,868840.000,-43000.000,-460000.000,-86000.000,215.529,11.296,271.997,75.508,-23.852,-1.521,16544.601,-8346.657,-15321.739
1512177543,16.400,18.800,448.600,155940.000,-169620.000,827090.000,-43000.000,-460000.000,-86000.000,173.416,24.112,240.516,43.271,-80.006,-10.886,16770.279,-8196.327,-15323.570
1512177543,44.700,19.700,430.800,84470.000,-152220.000,841060.000,-43000.000,-460000.000,-86000.000,136.397,102.193,162.431,52.611,-90.891,3.636,16392.960,-8721.886,-15245.628
1512177543,-17.200,-7.700,433.200,188960.000,-146850.000,880310.000,-43000.000,-460000.000,-86000.000,61.284,149.142,129.523,103.171,-72.573,33.524,16842.239,-8871.223,-15324.532
1512177543,-71.000,8.700,416.300,96680.000,-131350.000,882080.000,-40000.000,-446000.000,-79000.000,-27.280,236.046,138.670,181.935,-64.699,53.974,16690.834,-9171.447,-15435.898
1512177543,-82.800,20.800,424.600,78610.000,-137020.000,932500.000,-40000.000,-446000.000,-79000.000,-116.705,387.339,267.960,242.483,-108.191,-12.817,16841.088,-9133.713,-15287.147
1512177543,-59.000,-16.900,423.300,173160.000,-157410.000,882510.000,-40000.000,-446000.000,-79000.000,46.717,426.761,444.231,197.126,-107.665,-102.127,17139.190,-9583.275,-15027.405
1512177543,-41.000,-3.500,404.900,123660.000,-141300.000,870120.000,-40000.000,-446000.000,-79000.000,183.663,431.458,609.341,108.412,-135.871,-124.894,17063.278,-9845.886,-14501.892
1512177543,-36.600,-3.500,412.300,119140.000,-161560.000,932190.000,-40000.000,-446000.000,-79000.000,244.316,206.956,475.647,43.748,-24.342,-93.176,16725.457,-9996.391,-13786.599
1512177543,-27.400,-32.100,409.600,101010.000,-160830.000,956120.000,-17000.000,-451000.000,-84000.000,175.116,112.054,335.726,50.267,-55.179,32.844,16537.185,-10184.174,-13635.094
1512177543,-28.800,-17.300,411.200,139160.000,-203370.000,901790.000,-17000.000,-451000.000,-84000.000,182.406,-233.570,103.295,-0.447,48.482,106.561,16236.359,-10372.124,-13595.131
1512177543,-29.800,-37.800,422.500,179380.000,-223690.000,948000.000,-17000.000,-451000.000,-84000.000,-41.459,52.935,84.524,87.715,-73.306,216.166,16121.772,-10784.798,-14044.350
1512177543,-22.800,-19.000,407.900,147640.000,-213870.000,921630.000,-17000.000,-451000.000,-84000.000,-91.162,301.930,266.970,99.575,-122.982,33.957,16232.269,-11234.627,-14008.018
1512177543,-25.600,-27.300,402.900,200070.000,-163760.000,955750.000,-17000.000,-451000.000,-84000.000,-105.943,619.960,402.718,276.207,-119.631,-66.072,16718.437,-11571.404,-13637.329
1512177543,14.900,-41.400,401.900,143130.000,-192320.000,1043090.000,-5000.000,-460000.000,-89000.000,165.046,382.084,442.593,381.721,-72.642,-94.335,17128.807,-12058.281,-13528.557
1512177543,24.800,-58.100,404.400,150210.000,-234370.000,1005860.000,-5000.000,-460000.000,-89000.000,369.524,-17.290,532.114,211.218,-60.659,-89.092,16638.809,-12659.019,-13112.191
1512177544,65.600,-46.500,408.900,123960.000,-124390.000,881290.000,-5000.000,-460000.000,-89000.000,427.011,-73.091,437.877,50.646,-71.567,-18.943,15776.260,-12697.807,-12842.369
1512177544,44.300,-44.700,412.100,159120.000,-263240.000,817690.000,-5000.000,-460000.000,-89000.000,391.955,-112.655,427.633,-19.187,-74.901,28.289,15099.945,-12998.833,-12761.787
1512177544,35.600,-92.000,412.500,205200.000,-216250.000,827210.000,1000.000,-435000.000,-79000.000,376.726,-125.399,381.531,-42.511,-79.595,79.000,14800.705,-12849.281,-12609.154
1512177544,-25.600,7.100,400.400,277950.000,-237180.000,864200.000,1000.000,-435000.000,-79000.000,236.563,-60.393,350.942,-48.048,-94.477,98.141,14725.021,-12999.397,-12608.589
1512177544,-42.700,-33.600,327.700,269650.000,-210940.000,877620.000,1000.000,-435000.000,-79000.000,52.742,10.960,317.611,-68.641,-110.549,66.945,14274.948,-13000.069,-12754.768
1512177544,-64.800,26.000,369.900,198610.000,-208800.000,863040.000,1000.000,-435000.000,-79000.000,-11.380,19.636,197.309,-52.751,-102.247,25.812,14498.001,-13449.730,-12606.880
1512177544,-61.700,27.700,354.700,139100.000,-105290.000,825320.000,1000.000,-435000.000,-79000.000,18.530,-17.559,128.324,-15.630,-83.442,32.431,14498.108,-13449.730,-12381.889
1512177544,-43.500,52.100,353.300,88750.000,-176820.000,969540.000,-8000.000,-431000.000,-86000.000,63.471,-83.693,114.886,44.164,-68.797,55.616,14196.991,-13675.179,-12604.439
1512177544,-30.100,23.300,343.400,174560.000,-167660.000,975220.000,-8000.000,-431000.000,-86000.000,94.360,-132.781,114.097,70.230,-67.949,83.224,14492.599,-14574.730,-13282.402
1512177544,-52.300,43.100,340.200,147030.000,-228330.000,833620.000,-8000.000,-431000.000,-86000.000,84.452,-122.156,133.178,78.055,-83.147,85.141,14340.988,-14949.959,-13131.310
1512177544,-36.800,40.100,338.900,202880.000,-216860.000,918580.000,-8000.000,-431000.000,-86000.000,43.172,-50.620,118.971,86.666,-104.244,57.860,14414.795,-15174.858,-13507.042
1512177544,-35.200,32.200,338.000,180910.000,-186160.000,934690.000,-8000.000,-431000.000,-86000.000,9.034,41.184,125.193,99.844,-97.569,32.522,14415.878,-14949.852,-13356.941
1512177544,1.100,22.100,332.100,129700.000,-193660.000,993960.000,1000.000,-438000.000,-93000.000,38.833,97.701,195.113,136.015,-99.351,14.344,15015.869,-14948.952,-13362.038
1512177544,-36.000,60.600,352.900,74400.000,-248290.000,959900.000,1000.000,-438000.000,-93000.000,68.198,103.976,290.444,138.902,-97.062,-7.038,14413.071,-15549.858,-13582.222
1512177544,-35.600,60.100,336.000,138980.000,-190120.000,948490.000,1000.000,-438000.000,-93000.000,140.927,76.210,338.303,114.025,-97.778,-29.413,14410.843,-16074.852,-13282.463
1512177544,-25.700,47.900,323.200,88870.000,-246950.000,942990.000,1000.000,-438000.000,-93000.000,192.196,18.628,330.320,79.146,-99.924,-22.589,14410.767,-16074.852,-13432.457
1512177544,-10.400,57.500,278.200,111630.000,-215940.000,968260.000,22000.000,-414000.000,-72000.000,193.015,-49.635,276.789,49.617,-77.460,6.392,13511.108,-16001.213,-13424.782
1512177544,-18.100,64.300,267.000,8910.000,-232670.000,865540.000,22000.000,-414000.000,-72000.000,178.627,-69.760,178.433,41.987,-66.348,40.794,13585.434,-16151.100,-13425.484
1512177544,-25.800,60.100,268.400,65860.000,-205200.000,902710.000,22000.000,-414000.000,-72000.000,128.048,-77.241,142.495,29.776,-93.796,52.409,13435.516,-16151.329,-13274.208
1512177544,-24.800,73.200,254.600,48710.000,-223390.000,915220.000,22000.000,-414000.000,-72000.000,70.201,-47.456,160.950,-24.062,-119.880,21.872,12985.062,-16226.997,-13495.415
1512177544,-12.800,92.000,247.900,46940.000,-215580.000,958070.000,22000.000,-414000.000,-72000.000,80.432,-2.633,188.971,-76.745,-132.863,-13.681,12985.504,-16152.000,-13270.378
1512177544,-31.300,102.000,238.200,76970.000,-197880.000,920410.000,36000.000,-410000.000,-93000.000,97.983,16.550,224.471,-110.243,-121.187,-25.518,12985.504,-16152.000,-13270.378
1512177544,-24.600,88.300,223.800,78550.000,-219540.000,971250.000,36000.000,-410000.000,-93000.000,131.164,-15.423,215.248,-110.832,-78.180,2.792,12382.736,-16752.907,-13415.565
1512177544,-11.500,75.800,220.000,14040.000,-198490.000,931340.000,36000.000,-410000.000,-93000.000,129.864,-48.438,162.876,-83.939,-60.024,53.771,12308.823,-16528.008,-13264.824
1512177544,1.500,44.300,213.300,26550.000,-188110.000,924010.000,36000.000,-410000.000,-93000.000,-9.098,-95.904,22.112,-41.049,-64.372,69.382,12343.849,-17052.956,-13490.387
1512177544,-1.500,31.000,218.100,10620.000,-228640.000,903140.000,22000.000,-403000.000,-55000.000,-101.601,-70.128,-120.925,43.237,-47.046,30.559,12269.127,-16978.073,-13602.211
1512177544,-16.600,54.200,259.400,134280.000,-211610.000,974000.000,22000.000,-403000.000,-55000.000,-10.799,-89.916,-35.992,69.865,-72.746,42.067,12532.417,-16790.177,-13716.851
1512177544,10.100,32.900,112.500,-25820.000,-205570.000,967410.000,22000.000,-403000.000,-55000.000,93.084,-37.086,66.972,-4.552,-95.139,79.061,12644.021,-17015.015,-13492.912
1512177544,-27.700,72.700,142.200,-115970.000,-202150.000,874760.000,22000.000,-403000.000,-55000.000,-27.791,250.464,137.645,-72.185,-98.711,60.390,12642.044,-17465.012,-13380.623
1512177544,-7.200,46.500,151.500,53590.000,-210270.000,1002080.000,22000.000,-403000.000,-55000.000,-62.312,390.412,104.584,-39.034,-66.704,12.441,13094.467,-16976.838,-12934.219
1512177544,9.500,45.700,149.900,-43520.000,-223880.000,969480.000,63000.000,-384000.000,-37000.000,-64.809,276.211,57.247,24.755,-52.354,-26.872,13469.314,-17013.771,-12899.925
1512177544,-1.900,32.600,142.100,-33080.000,-194890.000,984680.000,63000.000,-384000.000,-37000.000,88.855,-3.980,65.958,71.398,-5.352,-29.793,13394.218,-17051.384,-12749.313
1512177544,-11.700,22.600,126.800,-39920.000,-215880.000,893860.000,63000.000,-384000.000,-37000.000,197.277,-249.982,41.089,96.020,-37.063,97.010,13693.573,-17200.935,-12714.424
1512177544,-0.400,20.000,118.800,-4150.000,-206480.000,927120.000,63000.000,-384000.000,-37000.000,68.681,-21.219,124.771,-16.223,-111.683,32.447,13430.671,-17313.835,-12487.244
1512177544,-10.100,-3.700,114.000,-18310.000,-207700.000,862060.000,63000.000,-384000.000,-37000.000,66.803,177.947,151.556,22.209,-83.851,3.788,13581.405,-17201.103,-12038.475
1512177544,-6.800,1.500,113.500,-58590.000,-178340.000,941410.000,43000.000,-389000.000,-15000.000,126.271,3.719,254.154,-19.826,-78.684,-53.535,13468.064,-17426.277,-11700.119
1512177544,-16.800,-5.900,105.100,29600.000,-216670.000,962520.000,43000.000,-389000.000,-15000.000,250.468,-236.690,113.332,-89.981,-19.649,-10.821,13431.648,-17238.838,-11212.219
1512177545,-22.100,-8.400,102.500,18070.000,-178650.000,941770.000,43000.000,-389000.000,-15000.000,253.468,-260.548,27.476,-123.525,-27.949,91.837,13132.889,-16976.784,-11097.054
1512177545,-20.000,2.900,86.600,29420.000,-210750.000,937740.000,43000.000,-389000.000,-15000.000,104.583,-234.033,6.220,-125.214,-73.522,104.009,13056.717,-17276.894,-10721.550
1512177545,-30.400,20.400,81.400,15080.000,-184020.000,945010.000,50000.000,-389000.000,-35000.000,-59.596,-67.535,-49.949,-120.477,-90.643,51.616,13058.716,-16826.881,-10796.333
1512177545,-40.500,24.500,89.700,10930.000,-252500.000,914430.000,50000.000,-389000.000,-35000.000,-131.088,60.650,-103.839,-50.193,-56.973,0.486,12984.055,-16752.007,-10795.662
1512177545,-37.600,45.000,33.600,110170.000,-176510.000,799130.000,50000.000,-389000.000,-35000.000,-74.681,57.518,-98.771,19.265,-15.784,-18.259,12984.085,-16752.007,-10720.665
1512177545,-17.300,36.200,72.800,-18010.000,-267210.000,901430.000,50000.000,-389000.000,-35000.000,42.863,-38.526,-55.826,84.243,-20.884,6.715,13133.148,-16976.784,-10572.044
1512177545,-11.600,70.800,49.000,75320.000,-162110.000,1021910.000,50000.000,-389000.000,-35000.000,104.535,-140.045,14.010,80.086,-46.810,23.258,13210.770,-16376.671,-10722.404
1512177545,-46.300,44.500,53.300,-310.000,-242980.000,934810.000,84000.000,-384000.000,-30000.000,152.178,-245.882,93.219,11.758,-57.271,10.403,13212.158,-16076.653,-10647.270
1512177545,-6.100,32.800,44.600,-133850.000,-186770.000,926940.000,84000.000,-384000.000,-30000.000,184.660,-284.095,-3.454,-19.326,5.665,68.876,12985.580,-16452.003,-10420.525
1512177545,1.600,47.500,45.800,-51390.000,-143370.000,956730.000,84000.000,-384000.000,-30000.000,122.795,-88.858,73.087,-72.846,-115.942,95.112,12760.391,-16452.339,-10793.617
1512177545,-31.700,43.500,64.800,-14650.000,-222840.000,952090.000,84000.000,-384000.000,-30000.000,-64.035,-67.945,154.669,-175.913,-115.316,-18.375,12985.931,-16377.007,-10420.494
1512177545,-52.700,27.600,13.300,-66350.000,-216310.000,909550.000,84000.000,-384000.000,-30000.000,37.251,-32.155,-37.759,-163.475,-3.221,2.424,12538.025,-15927.681,-10266.472
1512177545,-36.200,66.800,28.800,-56270.000,-192630.000,998050.000,75000.000,-386000.000,-32000.000,129.473,41.748,-67.082,-35.573,-56.641,109.328,12837.234,-16077.217,-10494.087
1512177545,-29.300,57.000,22.600,-72140.000,-223510.000,970700.000,75000.000,-386000.000,-32000.000,-187.036,-172.342,-84.140,23.470,-6.226,44.005,12540.268,-15402.672,-10491.219
1512177545,-42.900,53.300,-2.900,-54990.000,-188480.000,901120.000,75000.000,-386000.000,-32000.000,-58.705,-227.388,-241.317,-15.359,47.732,65.627,12763.840,-15702.324,-10643.272
1512177545,-60.300,56.100,-4.700,-37840.000,-192200.000,856320.000,75000.000,-386000.000,-32000.000,63.726,-234.693,-231.038,31.489,3.796,136.637,12540.161,-15402.672,-10716.225
1512177545,-51.100,58.700,-22.800,-96070.000,-201780.000,921140.000,75000.000,-375000.000,-45000.000,-89.342,-90.938,-121.886,-0.083,-109.184,119.700,13291.092,-15176.552,-10872.490
1512177545,-38.900,53.400,-4.300,-74160.000,-218810.000,971250.000,75000.000,-375000.000,-45000.000,-252.359,88.951,75.732,-122.593,-138.231,36.761,12989.105,-15626.991,-10795.143
1512177545,-72.700,52.900,-10.100,-100520.000,-195980.000,707640.000,75000.000,-375000.000,-45000.000,-66.388,66.860,45.300,-108.178,-41.360,-29.153,13214.600,-15476.662,-11171.989
1512177545,-33.200,22.000,42.500,71720.000,-283870.000,1103270.000,75000.000,-375000.000,-45000.000,110.733,178.361,-23.171,-14.863,-10.535,53.221,13141.098,-15176.765,-10871.223
1512177545,-20.500,-31.700,-37.400,-36870.000,-147580.000,886470.000,75000.000,-375000.000,-45000.000,1.816,186.460,117.064,67.141,-42.268,74.306,13290.344,-15326.546,-11022.560
1512177545,14.400,-12.800,-40.100,47060.000,-158140.000,1098140.000,70000.000,-370000.000,-27000.000,-92.851,100.896,100.471,28.976,-55.299,-24.520,13664.215,-15625.984,-10575.890
1512177545,-63.100,-49.400,-18.800,-183290.000,-217160.000,709410.000,70000.000,-370000.000,-27000.000,-20.451,78.688,39.609,3.776,-59.237,-64.526,13591.583,-15101.097,-10575.005
1512177545,4.700,25.400,-19.600,-17210.000,-166690.000,1020320.000,70000.000,-370000.000,-27000.000,15.795,25.470,-27.211,3.150,-32.051,-65.098,12989.746,-15476.997,-10870.079
1512177545,-6.900,6.400,-14.900,-70130.000,-207640.000,932560.000,70000.000,-370000.000,-27000.000,83.394,-4.406,9.912,-34.282,-16.179,-20.183,13441.132,-15176.323,-10798.759
1512177545,18.500,45.400,-12.100,-58530.000,-265010.000,948610.000,73000.000,-380000.000,-33000.000,147.725,-59.936,49.027,-46.176,-18.298,44.092,12991.470,-15101.997,-10794.899
1512177545,-5.500,28.600,-36.400,-81970.000,-180850.000,764770.000,73000.000,-380000.000,-33000.000,55.846,-71.849,60.447,-66.495,-48.221,100.284,12879.784,-14914.658,-10868.865
1512177545,-26.500,-17.000,11.200,-75380.000,-292180.000,893430.000,73000.000,-380000.000,-33000.000,-144.409,173.656,-1.831,-40.905,-61.898,37.987,13179.062,-15064.209,-10946.480
1512177545,11.700,7.600,17.000,-51390.000,-229860.000,922790.000,73000.000,-380000.000,-33000.000,-135.344,60.044,-72.456,79.029,19.966,-10.478,13366.813,-14988.930,-11135.544
1512177545,12.700,-30.900,-17.800,-64640.000,-193970.000,912050.000,73000.000,-380000.000,-33000.000,-0.774,119.709,109.331,81.764,30.040,-1.885,13440.407,-15288.819,-11248.817
1512177545,19.400,-12.800,-11.700,-13060.000,-204590.000,939450.000,70000.000,-394000.000,-37000.000,151.216,133.115,202.730,-63.374,54.629,-22.677,13292.565,-14839.035,-10984.833
1512177545,31.700,32.100,-21.600,-91610.000,-142580.000,961180.000,70000.000,-394000.000,-37000.000,115.916,89.508,78.404,-76.020,101.290,49.053,12693.085,-14764.939,-10604.699
1512177545,28.600,36.200,-16.900,-37110.000,-243100.000,916560.000,70000.000,-394000.000,-37000.000,178.129,-182.185,41.579,-95.009,49.748,61.653,12354.576,-14990.448,-10601.936
1512177545,53.000,58.900,-25.600,-93570.000,-204220.000,1013730.000,70000.000,-394000.000,-37000.000,168.142,-253.490,-99.533,-144.086,7.631,84.491,12093.720,-14615.844,-10674.530
1512177545,33.300,33.700,-37.000,-64210.000,-143740.000,893130.000,70000.000,-394000.000,-37000.000,38.335,-420.751,-155.299,-65.700,27.688,167.242,11905.746,-14691.124,-10935.479
1512177545,32.200,55.500,-36.200,-76350.000,-199520.000,887270.000,59000.000,-398000.000,-30000.000,-112.666,-326.538,-109.187,-131.358,41.240,146.793,11793.854,-14541.283,-11084.442
1512177545,39.500,89.200,-41.300,-69890.000,-30210.000,875550.000,59000.000,-398000.000,-30000.000,-363.209,248.654,-14.868,-172.166,29.100,28.400,12018.753,-14540.947,-11273.857
1512177545,49.800,48.100,-11.200,-176330.000,-94240.000,887630.000,59000.000,-398000.000,-30000.000,-303.044,249.401,-75.292,-7.138,46.575,-62.489,12997.604,-13976.982,-8656.899
1512177546,45.300,38.000,-0.700,-81910.000,-167910.000,930240.000,59000.000,-398000.000,-30000.000,-202.185,-14.187,-127.518,60.387,49.198,-69.003,13447.891,-13826.302,-9448.143
1512177546,44.500,38.200,-8.500,-38020.000,-98820.000,776180.000,65000.000,-382000.000,-32000.000,-95.254,-197.824,-91.427,43.580,69.410,-82.497,13447.891,-13826.302,-9448.143
1512177546,36.200,7.500,-3.100,-159480.000,-231750.000,907650.000,65000.000,-382000.000,-32000.000,29.144,-199.809,-71.508,-12.475,52.717,-58.377,13448.792,-13601.311,-9673.042
1512177546,37.700,10.300,-45.700,-140010.000,-67500.000,903020.000,65000.000,-382000.000,-32000.000,54.323,-160.303,-45.423,-58.913,55.789,-2.358,13223.267,-13676.643,-10046.165
1512177546,26.600,20.100,-52.300,-64210.000,-155090.000,849430.000,65000.000,-382000.000,-32000.000,63.603,-90.905,-23.729,-91.026,72.942,55.977,12998.672,-13601.982,-9894.218
1512177546,37.700,8.500,-62.300,-70310.000,-123900.000,904480.000,65000.000,-382000.000,-32000.000,62.051,-19.401,9.547,-96.210,47.605,120.411,13222.916,-13751.640,-10046.196
1512177546,42.200,26.000,-66.400,-82950.000,-77270.000,872190.000,45000.000,-370000.000,-13000.000,-55.090,-29.304,66.450,-132.318,16.046,119.161,12847.733,-13827.202,-9743.050
1512177546,30.500,28.200,-71.800,-67810.000,-158450.000,864930.000,45000.000,-370000.000,-13000.000,-136.383,-40.018,17.260,-181.043,40.289,64.214,13225.281,-13226.646,-10045.952
1512177546,36.100,-11.200,-63.600,-48580.000,-110410.000,919800.000,45000.000,-370000.000,-13000.000,-144.298,64.852,-78.431,-149.700,88.618,36.595,12773.560,-13602.318,-10117.317
1512177546,45.500,11.700,-63.300,-76110.000,-51940.000,897770.000,45000.000,-370000.000,-13000.000,-145.454,105.553,-135.874,-68.978,93.607,21.280,12772.583,-13827.324,-10042.412
1512177546,46.100,12.900,-68.300,-97170.000,-89540.000,901250.000,45000.000,-370000.000,-13000.000,-149.966,53.180,-123.329,-44.448,77.804,-3.369,12999.985,-13301.979,-9969.078
1512177546,46.100,-4.100,-78.800,-106140.000,-60180.000,906920.000,59000.000,-384000.000,0.000,-95.622,-8.822,-60.929,-71.818,54.827,-34.076,13450.592,-13151.299,-10122.841
1512177546,54.200,-12.400,-70.600,-118290.000,-125180.000,942080.000,59000.000,-384000.000,0.000,-18.118,-78.168,-45.123,-111.113,59.542,-39.010,13074.234,-13451.866,-10119.789
1512177546,70.400,-14.500,-70.400,-128420.000,-39980.000,905150.000,59000.000,-384000.000,0.000,28.022,-86.607,-63.673,-132.550,61.159,5.629,13374.573,-13376.411,-10122.307
1512177546,60.700,0.700,-75.500,-188780.000,-55180.000,894590.000,59000.000,-384000.000,0.000,8.248,-106.866,-92.809,-139.414,67.583,38.432,12925.552,-13152.092,-10193.382
1512177546,47.000,-0.800,-87.000,-131900.000,-87770.000,891420.000,43000.000,-393000.000,-15000.000,-29.895,-114.247,-172.277,-131.590,92.110,75.194,13298.264,-13601.540,-10721.764
1512177546,57.000,4.300,-83.000,-141970.000,-32780.000,946780.000,43000.000,-393000.000,-15000.000,-83.588,-59.772,-210.175,-90.980,99.276,106.220,13524.429,-13376.198,-10423.576
1512177546,53.800,1.200,-87.100,-144900.000,-62010.000,858890.000,43000.000,-393000.000,-15000.000,-147.282,4.246,-223.669,-60.989,56.331,102.150,13300.629,-13076.530,-10721.519
1512177546,42.600,-5.500,-91.100,-114380.000,-56340.000,847600.000,43000.000,-393000.000,-15000.000,-209.659,29.588,-125.344,-79.626,12.882,37.711,13752.304,-12700.844,-10725.182
1512177546,37.200,-16.200,-91.300,-143370.000,-73910.000,849180.000,43000.000,-393000.000,-15000.000,-184.341,48.698,-42.821,-114.446,18.228,-42.792,13524.231,-13376.198,-10798.576
1512177546,23.000,-26.400,-90.500,-137940.000,-62990.000,902530.000,63000.000,-387000.000,3000.000,-80.743,58.491,-54.079,-100.121,54.185,-68.619,13451.035,-13001.305,-10572.762
1512177546,23.700,-27.200,-94.400,-149230.000,-51450.000,884830.000,63000.000,-387000.000,3000.000,1.858,24.498,-87.116,-70.085,80.461,-37.745,13450.928,-13001.305,-10797.752
1512177546,23.300,-41.300,-101.200,-96920.000,-57980.000,930600.000,63000.000,-387000.000,3000.000,28.206,-49.194,-72.064,-63.517,93.576,-0.729,13451.935,-12776.299,-10797.661
1512177546,13.600,-12.900,-104.400,-118530.000,-37780.000,890140.000,63000.000,-387000.000,3000.000,37.849,-85.493,-77.384,-93.573,69.296,27.878,13452.164,-12701.302,-11022.621
1512177546,6.500,-19.300,-109.300,-105040.000,-45780.000,871520.000,54000.000,-389000.000,-11000.000,-11.785,-76.963,-104.721,-140.719,50.843,25.892,13075.027,-13151.863,-11244.652
1512177546,10.000,-26.800,-114.000,-117980.000,-34670.000,925350.000,54000.000,-389000.000,-11000.000,-40.649,-90.779,-165.956,-165.567,61.733,22.556,13300.400,-13076.530,-11171.516
1512177546,10.000,-23.800,-115.700,-121580.000,-41380.000,929260.000,54000.000,-389000.000,-11000.000,-47.944,-74.022,-272.076,-106.400,114.795,101.729,13075.401,-13039.367,-11507.088
1512177546,14.400,-27.300,-121.300,-145810.000,-63350.000,896730.000,54000.000,-389000.000,-11000.000,-140.393,-107.963,-194.644,-77.843,62.237,129.125,13226.990,-12664.138,-11695.694
1512177546,13.300,-26.100,-118.000,-125060.000,-52060.000,915040.000,54000.000,-389000.000,-11000.000,-170.212,62.505,5.401,-223.628,18.766,-21.957,13301.483,-12739.029,-12033.859
1512177546,13.600,-27.400,-122.100,-116460.000,-67810.000,933290.000,52000.000,-384000.000,3000.000,-79.903,149.911,-101.192,-104.247,97.798,-30.679,13412.185,-13076.355,-12597.466
1512177546,15.000,-46.900,-121.700,-131100.000,-55790.000,916140.000,52000.000,-384000.000,3000.000,-80.522,-80.615,-203.810,-38.184,95.052,-3.397,13449.669,-13038.803,-12972.763
1512177546,19.800,-51.100,-122.000,-183170.000,-36680.000,846860.000,52000.000,-384000.000,3000.000,-89.781,26.092,-154.535,-152.772,26.949,-21.411,13259.201,-13676.590,-13158.974
1512177546,22.900,-40.200,-129.700,-196660.000,-50350.000,855960.000,52000.000,-384000.000,3000.000,-57.030,83.121,-69.110,-172.401,67.004,-9.104,12994.552,-14126.991,-13419.449
1512177546,29.000,-20.900,-135.700,-222720.000,-18860.000,901980.000,52000.000,-384000.000,3000.000,-31.445,32.897,-39.064,-180.298,66.062,-45.544,12953.766,-14839.546,-13569.458
1512177546,36.800,-26.600,-132.000,-201110.000,-52670.000,899050.000,47000.000,-382000.000,1000.000,-72.318,26.703,-178.798,-67.232,76.321,-62.272,13023.941,-15889.442,-13758.080
1512177546,33.000,-41.400,-138.900,-204350.000,-51570.000,853760.000,47000.000,-382000.000,1000.000,44.089,-234.591,-301.685,0.561,116.122,-5.677,13061.668,-15889.381,-13308.403
1512177546,29.400,-41.500,-143.900,-209590.000,-61280.000,889770.000,47000.000,-382000.000,1000.000,84.293,-346.308,-223.668,-106.183,66.011,83.281,13099.716,-15776.825,-13233.666
1512177546,36.000,-39.500,-143.700,-194950.000,-26860.000,888610.000,47000.000,-382000.000,1000.000,32.069,-208.667,-185.569,-221.921,92.447,127.740,13175.827,-15589.210,-12709.213
1512177547,20.600,-51.400,-145.000,-192440.000,-41870.000,909670.000,47000.000,-382000.000,1000.000,-47.896,-68.208,-242.740,-200.828,99.047,167.172,12915.237,-15177.101,-12594.292
1512177547,30.200,-53.300,-142.700,-196900.000,2200.000,948240.000,43000.000,-400000.000,8000.000,-139.564,-2.252,-175.611,-188.146,43.914,137.477,13441.483,-14951.317,-12148.659
1512177547,10.100,-38.200,-147.000,-120790.000,-36620.000,909480.000,43000.000,-400000.000,8000.000,-245.403,13.445,-91.804,-244.769,16.571,3.109,13291.138,-15026.543,-12147.423
1512177547,2.700,-18.800,-153.900,-122680.000,16780.000,1013670.000,43000.000,-400000.000,8000.000,-167.403,89.420,-98.938,-253.406,55.770,-95.073,13140.610,-15176.765,-11846.214
1512177547,-15.600,-25.000,-154.700,-107120.000,-23990.000,931400.000,43000.000,-400000.000,8000.000,-31.288,49.259,-209.040,-164.822,93.667,-98.931,13366.592,-14951.424,-11923.027
1512177547,-36.600,-30.400,-156.500,-92160.000,-22710.000,961360.000,61000.000,-393000.000,28000.000,-4.158,-12.465,-305.873,-65.843,94.652,-38.522,13742.294,-14800.865,-11851.143
1512177547,-23.300,-20.900,-159.900,-112850.000,-22710.000,968320.000,61000.000,-393000.000,28000.000,-50.367,-148.234,-291.028,-21.605,93.553,-1.893,13743.912,-14425.865,-12000.969
1512177547,-22.200,-21.200,-160.300,-102600.000,-24960.000,865170.000,61000.000,-393000.000,28000.000,-20.710,-242.201,-283.461,-66.632,80.828,-3.172,13820.679,-14050.743,-11851.433
1512177547,-17.400,-34.200,-166.800,-123840.000,60.000,961000.000,61000.000,-393000.000,28000.000,-34.420,-181.450,-224.815,-145.620,30.248,-17.999,13745.865,-13975.853,-12150.764
1512177547,-9.300,-45.900,-161.900,-206050.000,-10380.000,883300.000,61000.000,-393000.000,28000.000,-68.979,-140.973,-196.393,-206.563,29.229,-8.411,13747.437,-13675.865,-11700.630
1512177547,-16.600,-46.600,-166.000,-113830.000,-89720.000,856990.000,50000.000,-393000.000,35000.000,-38.228,-107.830,-184.103,-215.639,40.370,26.937,13748.337,-13450.859,-11925.514
1512177547,-18.900,-34.200,-175.200,-150760.000,-69520.000,874690.000,50000.000,-393000.000,35000.000,-44.181,-113.256,-146.897,-199.400,24.249,48.686,13223.450,-13451.637,-11696.053
1512177547,-24.100,-23.200,-187.400,-94670.000,-11350.000,901430.000,50000.000,-393000.000,35000.000,-132.933,-129.444,-131.182,-193.526,19.398,22.922,13750.031,-13075.859,-11925.346
1512177547,-32.900,-37.000,-195.700,-163330.000,-24170.000,947880.000,50000.000,-393000.000,35000.000,-163.408,-83.504,-154.913,-172.141,54.509,-12.100,13750.702,-12925.850,-11925.270
1512177547,-35.400,-35.600,-196.700,-159180.000,-20260.000,969180.000,75000.000,-400000.000,18000.000,-168.251,-50.348,-183.656,-116.506,91.327,-39.694,14051.193,-12775.398,-12302.742
1512177547,-22.600,-19.800,-200.100,-167050.000,-1280.000,844730.000,75000.000,-400000.000,18000.000,-130.181,-61.947,-230.050,-48.376,95.033,-32.230,13974.579,-13150.520,-12152.290
1512177547,-35.600,-24.500,-203.500,-173650.000,-69890.000,973630.000,75000.000,-400000.000,18000.000,-76.981,-136.645,-227.407,-12.873,111.028,9.051,14125.702,-12850.288,-12603.416
1512177547,-14.500,-31.000,-191.700,-153140.000,-8790.000,921450.000,75000.000,-400000.000,18000.000,12.910,-223.111,-188.028,-37.208,108.978,39.754,13602.570,-12476.082,-12223.793
1512177547,13.300,-28.500,-190.900,-233890.000,-26430.000,884580.000,75000.000,-400000.000,18000.000,69.345,-232.643,-184.044,-101.486,95.627,67.870,13753.510,-12250.847,-12374.962
1512177547,-6.500,-30.800,-205.200,-212650.000,-5430.000,963500.000,65000.000,-400000.000,18000.000,45.469,-129.123,-153.113,-161.441,68.033,87.459,13453.171,-12326.302,-12372.444
1512177547,-10.400,-13.400,-206.900,-117980.000,-93320.000,1011840.000,65000.000,-400000.000,18000.000,-19.408,-13.982,-92.890,-223.138,20.486,65.720,13456.024,-11726.295,-12072.166
1512177547,38.900,0.100,-208.400,-127200.000,1530.000,947390.000,65000.000,-400000.000,18000.000,-44.709,-9.842,-45.270,-287.362,10.180,13.067,13230.652,-11801.628,-12145.287
1512177547,36.000,3.600,-205.900,-100220.000,-38570.000,932680.000,65000.000,-400000.000,18000.000,16.625,-119.563,-149.234,-276.995,98.259,21.560,12855.606,-11802.193,-12217.094
1512177547,36.600,-11.300,-207.600,-78000.000,-18010.000,903630.000,65000.000,-400000.000,18000.000,72.151,-119.343,-219.857,-197.062,102.521,82.944,13231.430,-11651.634,-11920.219
1512177547,9.300,-3.100,-204.400,-56760.000,5000.000,890930.000,45000.000,-398000.000,6000.000,-68.678,-187.799,-280.767,-149.535,93.634,94.788,12705.658,-11802.422,-12140.831
1512177547,-10.500,-4.100,-210.400,-154170.000,-8360.000,891780.000,45000.000,-398000.000,6000.000,-112.103,-220.951,-300.706,-177.687,88.755,57.014,12934.357,-10977.074,-12142.357
1512177547,-31.800,-17.000,-210.500,-118040.000,-70860.000,923030.000,45000.000,-398000.000,6000.000,-115.677,-141.486,-240.777,-192.156,35.258,10.138,12970.497,-11277.016,-12180.321
1512177547,-33.000,-3.500,-208.500,-107180.000,25510.000,938110.000,45000.000,-398000.000,6000.000,-116.667,-99.822,-243.312,-183.367,61.300,-16.064,13122.612,-10789.299,-12331.367
1512177547,-18.900,-10.900,-212.900,-213440.000,-43580.000,847230.000,45000.000,-398000.000,6000.000,-60.922,-202.768,-266.848,-83.952,86.340,62.393,12935.585,-10639.580,-12742.203
1512177547,-37.000,-22.600,-224.000,-54080.000,-41750.000,975890.000,21000.000,-398000.000,16000.000,-130.182,-154.405,-202.656,-162.366,39.306,3.052,13012.115,-10301.956,-12705.185
1512177547,-27.800,-16.000,-213.300,-113280.000,-37290.000,820740.000,21000.000,-398000.000,16000.000,-49.884,-12.242,-183.405,-195.248,32.109,-22.135,12788.483,-10002.297,-12665.627
1512177547,-17.700,-19.300,-231.400,-128230.000,20940.000,934810.000,21000.000,-398000.000,16000.000,-7.138,-59.227,-160.030,-215.433,52.544,-8.393,12902.061,-9777.123,-12553.986
1512177547,-27.000,-26.200,-227.200,-133360.000,-22160.000,949890.000,21000.000,-398000.000,16000.000,-60.703,-127.509,-244.731,-197.676,70.553,4.994,12715.378,-9589.904,-12589.806
1512177547,0.800,0.500,-231.300,-130860.000,-36620.000,923770.000,40000.000,-400000.000,18000.000,-105.074,-116.845,-268.255,-226.147,61.299,-27.449,12605.896,-8915.069,-12626.037
1512177547,-9.600,8.000,-246.300,-194520.000,-42720.000,850650.000,40000.000,-400000.000,18000.000,-99.448,-61.072,-380.984,-199.937,60.720,21.413,12343.460,-8877.961,-12848.786
1512177547,-0.800,13.200,-242.500,-154480.000,17330.000,958130.000,40000.000,-400000.000,18000.000,-191.974,-92.099,-428.273,-186.109,103.310,44.485,12608.788,-8240.067,-12925.728
1512177547,-8.000,15.800,-243.000,-224790.000,-23680.000,933900.000,40000.000,-400000.000,18000.000,-101.385,-148.571,-429.289,-200.993,80.934,46.194,12721.550,-8164.894,-13076.645
1512177547,4.400,13.200,-244.200,-114560.000,5800.000,894100.000,40000.000,-400000.000,18000.000,-82.972,-105.312,-412.346,-256.027,54.248,38.957,12760.529,-7827.332,-13151.810
1512177548,-17.600,-0.300,-246.700,-109560.000,-28140.000,922120.000,26000.000,-396000.000,1000.000,-69.588,-95.926,-285.791,-270.015,23.214,11.751,12650.406,-7302.498,-13113.106
1512177548,-9.700,16.600,-256.500,-98750.000,-1280.000,961300.000,26000.000,-396000.000,1000.000,-28.896,-211.323,-237.630,-274.640,48.930,-0.464,12500.336,-7302.727,-13261.833
1512177548,-32.800,33.200,-260.500,-185300.000,-29050.000,937870.000,26000.000,-396000.000,1000.000,-11.213,-227.246,-276.875,-244.337,98.919,27.156,12426.117,-7152.840,-13036.125
1512177548,-34.000,21.300,-276.000,-197690.000,-32350.000,1003360.000,26000.000,-396000.000,1000.000,-38.308,-214.399,-314.537,-167.740,101.032,77.599,12050.034,-7378.395,-13183.052
1512177548,-32.600,28.100,-264.700,-146910.000,14890.000,961730.000,21000.000,-405000.000,16000.000,-93.899,-278.588,-308.103,-117.002,104.736,81.577,12274.918,-7378.059,-13409.950
1512177548,-26.500,44.100,-279.900,-257390.000,1400.000,875610.000,21000.000,-405000.000,16000.000,-31.138,-343.788,-238.126,-147.687,75.165,48.134,12500.153,-7302.727,-13636.833
1512177548,-23.600,19.000,-291.300,-292720.000,-20260.000,971440.000,21000.000,-405000.000,16000.000,12.868,-294.682,-189.346,-206.612,34.164,2.134,12350.906,-7152.946,-13485.497
1512177548,-8.400,34.600,-286.400,-273990.000,7450.000,873170.000,21000.000,-405000.000,16000.000,-31.514,-147.302,-205.465,-233.484,9.034,-31.797,12350.677,-7152.946,-13935.493
1512177548,-49.900,18.200,-280.000,-229370.000,-35770.000,868710.000,21000.000,-405000.000,16000.000,-80.616,-71.421,-262.413,-194.102,39.107,-19.821,12201.797,-6928.169,-13709.114
1512177548,-64.400,-7.600,-296.900,-277340.000,-71840.000,982670.000,8000.000,-410000.000,22000.000,-81.377,-107.702,-282.806,-150.856,50.239,-18.030,12276.764,-6928.062,-13784.752
1512177548,-4.800,18.500,-304.500,-238710.000,29790.000,889770.000,8000.000,-410000.000,22000.000,-65.418,-202.739,-285.035,-161.451,79.752,-23.102,12051.788,-6928.398,-13707.832
1512177548,-23.800,26.000,-304.100,-300110.000,-46260.000,891360.000,8000.000,-410000.000,22000.000,-3.558,-265.664,-290.758,-203.707,90.830,-6.138,12354.080,-6402.946,-13860.146
1512177548,-15.700,-2.300,-303.500,-211980.000,-61650.000,872740.000,8000.000,-410000.000,22000.000,31.260,-233.483,-331.717,-254.344,55.381,33.445,12128.143,-6628.288,-13708.336
1512177548,-30.900,41.800,-313.600,-197630.000,15990.000,855590.000,8000.000,-410000.000,22000.000,-89.295,-127.806,-385.331,-292.108,30.806,67.010,12129.044,-6403.282,-13933.235
1512177548,-24.000,54.300,-322.900,-221500.000,-30150.000,958680.000,3000.000,-405000.000,16000.000,-240.087,-42.521,-417.070,-309.259,54.987,70.933,11979.980,-6178.505,-14081.841
1512177548,-67.800,82.200,-329.800,-184810.000,29480.000,950870.000,3000.000,-405000.000,16000.000,-230.265,-61.705,-431.920,-292.721,77.742,70.842,12058.060,-5503.395,-14007.164
1512177548,-41.400,85.900,-326.600,-283020.000,8000.000,982120.000,3000.000,-405000.000,16000.000,-203.392,-135.461,-383.813,-298.908,71.847,50.479,12133.026,-5503.273,-14082.817
1512177548,-49.000,77.800,-333.300,-273010.000,-88500.000,873290.000,3000.000,-405000.000,16000.000,-174.245,-151.528,-342.940,-310.641,70.145,29.176,12434.601,-5127.831,-14310.188
1512177548,-40.600,24.900,-321.200,-232540.000,6100.000,972530.000,8000.000,-407000.000,8000.000,-202.017,-113.119,-336.808,-258.838,71.919,0.587,12210.648,-4903.160,-14233.177
1512177548,23.700,19.600,-305.900,-216250.000,26180.000,901550.000,8000.000,-407000.000,8000.000,-199.295,-110.911,-373.009,-161.090,88.706,6.316,12209.900,-5053.154,-14383.232
1512177548,-7.700,23.600,-307.200,-300480.000,-6230.000,919680.000,8000.000,-407000.000,8000.000,-181.828,-138.733,-334.475,-86.598,109.179,19.508,12735.016,-4977.379,-14837.669
1512177548,65.200,-13.400,-319.600,-234250.000,-1220.000,1007690.000,8000.000,-407000.000,8000.000,-90.474,-257.318,-255.741,-44.807,116.107,26.537,12660.873,-4827.492,-14461.967
1512177548,100.000,8.100,-308.000,-207700.000,26550.000,879090.000,8000.000,-407000.000,8000.000,40.683,-353.369,-197.673,-73.111,103.647,45.557,12812.820,-4377.266,-14613.029
1512177548,-18.900,25.300,-317.600,-275020.000,-65610.000,940310.000,-3000.000,-401000.000,27000.000,99.860,-356.544,-165.910,-136.759,63.941,74.289,12737.595,-4377.373,-15062.386
1512177548,12.100,-3.700,-326.500,-269530.000,-37170.000,953190.000,-3000.000,-401000.000,27000.000,38.303,-228.439,-177.020,-221.614,30.614,79.689,12513.382,-4227.699,-14835.411
1512177548,-10.100,-16.800,-321.300,-147950.000,-14400.000,886350.000,-3000.000,-401000.000,27000.000,-67.150,-13.775,-236.435,-272.454,16.304,61.069,12588.806,-4152.596,-14686.012
1512177548,29.600,-15.400,-318.400,-220400.000,310.000,893310.000,-3000.000,-401000.000,27000.000,-228.943,115.912,-309.218,-185.344,71.093,30.258,12666.557,-3514.977,-14911.354
1512177548,-26.000,-4.900,-320.400,-178280.000,-76350.000,858700.000,-3000.000,-401000.000,27000.000,-66.659,-194.285,-242.385,-103.100,108.862,6.155,12592.308,-3327.591,-15098.129
1512177548,15.000,25.200,-319.200,-216000.000,50420.000,878050.000,-15000.000,-393000.000,15000.000,66.526,-302.160,-146.485,-200.420,57.684,40.637,12328.979,-3477.981,-15395.966
1512177548,-3.700,29.300,-320.000,-216920.000,-38640.000,873410.000,-15000.000,-393000.000,15000.000,-141.308,-132.325,-302.416,-218.345,83.549,80.129,12330.497,-3140.487,-15395.813
1512177548,-12.900,21.700,-321.300,-270020.000,-8480.000,900880.000,-15000.000,-393000.000,15000.000,-188.947,-64.001,-319.393,-230.966,67.421,16.976,12558.235,-2540.138,-15322.449
1512177548,-24.200,-0.700,-314.700,-269710.000,-10930.000,882570.000,-15000.000,-393000.000,15000.000,-173.909,-109.891,-328.395,-210.826,72.986,-16.521,12484.314,-2277.756,-15546.692
1512177548,-26.200,3.700,-317.000,-227660.000,-4940.000,915710.000,-15000.000,-393000.000,15000.000,-120.005,-249.850,-274.799,-186.844,95.166,25.053,12560.417,-2015.137,-15697.205
1512177548,6.700,13.400,-316.100,-222350.000,-28630.000,907410.000,-15000.000,-421000.000,15000.000,-128.298,-191.620,-285.909,-220.334,60.037,19.535,12261.459,-1753.090,-15957.023
1512177548,37.700,22.200,-325.300,-184140.000,8240.000,888430.000,-15000.000,-421000.000,15000.000,-193.985,-59.227,-303.990,-138.690,91.817,7.784,12413.505,-1302.856,-15920.593
1512177548,33.000,20.900,-314.000,-193420.000,-28200.000,799260.000,-15000.000,-421000.000,15000.000,-60.789,-217.773,-243.980,-75.394,105.717,14.882,12939.498,-1039.566,-16299.934
1512177548,32.400,0.500,-313.300,-282170.000,-36250.000,902590.000,-15000.000,-421000.000,15000.000,19.775,-203.883,-183.064,-140.916,42.502,15.769,12902.558,-889.625,-16524.544
1512177548,20.100,7.500,-314.800,-231320.000,16050.000,948550.000,-31000.000,-405000.000,10000.000,-141.275,-1.138,-201.218,-165.755,56.969,-30.252,12864.464,-1002.182,-16711.776
1512177549,42.700,-8.000,-305.100,-252080.000,2440.000,963810.000,-31000.000,-405000.000,10000.000,-117.983,-89.517,-324.850,-80.138,146.666,-7.621,13354.294,-476.448,-16790.672
1512177549,-6.500,-29.200,-299.300,-307250.000,-46940.000,913820.000,-31000.000,-405000.000,10000.000,-32.728,-164.152,-326.003,-30.427,148.022,47.867,13355.530,-176.445,-17015.541
1512177549,30.000,-18.500,-297.600,-202090.000,34670.000,926030.000,-31000.000,-405000.000,10000.000,-29.027,-215.613,-230.185,-33.490,90.280,52.168,13279.587,-401.558,-16865.013
1512177549,48.700,-11.100,-298.500,-231630.000,24720.000,944340.000,-31000.000,-405000.000,10000.000,-28.354,-216.729,-206.728,-100.821,53.012,29.734,13128.845,-551.781,-17013.802
1512177549,35.600,-23.200,-294.500,-228580.000,31010.000,949160.000,-36000.000,-407000.000,18000.000,-86.717,-116.383,-217.883,-159.539,72.501,18.035,13277.145,-926.567,-17015.251
1512177549,0.300,-19.800,-292.900,-266300.000,42110.000,926700.000,-36000.000,-407000.000,18000.000,-68.719,-20.241,-205.561,-147.205,64.864,13.251,13806.580,49.232,-16944.267
1512177549,-12.000,-21.600,-298.800,-203060.000,-21610.000,966860.000,-36000.000,-407000.000,18000.000,-82.336,22.489,-218.403,-134.605,44.012,-7.252,13506.500,48.775,-17091.713
1512177549,-13.700,-6.300,-298.000,-149780.000,-28140.000,875920.000,-36000.000,-407000.000,18000.000,-104.283,45.879,-179.196,-109.996,32.852,-34.959,14030.533,-175.438,-17021.278
1512177549,-3.900,8.500,-294.900,-128300.000,-24900.000,868230.000,-49000.000,-409000.000,20000.000,-100.197,-4.336,-170.782,-95.477,52.501,-68.547,14030.823,-100.426,-17096.245
1512177549,3.900,-4.000,-283.000,-175840.000,-18250.000,896240.000,-49000.000,-409000.000,20000.000,-56.805,-138.635,-287.889,-51.169,139.025,-54.865,13957.672,349.464,-17470.406
1512177549,-2.900,-18.800,-271.100,-209110.000,-27950.000,894410.000,-49000.000,-409000.000,20000.000,15.431,-147.912,-402.009,12.676,133.447,34.131,13958.679,574.455,-17470.299
1512177549,-26.900,-40.700,-263.700,-138850.000,9460.000,958920.000,-49000.000,-409000.000,20000.000,-75.029,-194.214,-284.081,24.315,80.322,59.608,14184.769,799.797,-17322.105
1512177549,3.100,-27.200,-259.500,-132690.000,-60.000,869810.000,-49000.000,-409000.000,20000.000,-138.647,-167.820,-174.039,-42.807,35.912,-2.549,14260.590,1024.910,-17697.624
1512177549,-36.200,-33.600,-249.000,-133790.000,-19840.000,945250.000,-59000.000,-419000.000,10000.000,-66.009,-119.757,-116.320,-84.760,7.965,-32.729,14332.550,350.014,-17698.586
1512177549,-9.100,-17.400,-239.400,-177310.000,-3230.000,839660.000,-59000.000,-419000.000,10000.000,-49.165,-59.011,-36.981,-124.977,46.906,-38.059,14634.811,875.481,-17925.880
1512177549,-75.000,-34.500,-232.000,-152950.000,-34420.000,925900.000,-59000.000,-419000.000,10000.000,0.987,62.843,-32.627,-112.693,35.264,-21.949,14258.118,499.916,-17922.874
1512177549,-25.700,-48.100,-213.700,-111510.000,14590.000,920900.000,-59000.000,-419000.000,10000.000,-64.790,93.755,-50.529,-54.031,40.668,-27.775,14859.848,875.816,-17852.806
1512177549,-43.900,-56.900,-207.500,-203920.000,-20080.000,965150.000,-59000.000,-419000.000,10000.000,-147.655,72.302,-68.861,-4.109,67.799,-64.324,15160.522,1026.268,-17855.278
1512177549,-18.000,-42.900,-203.100,-146120.000,-40280.000,820310.000,-73000.000,-412000.000,13000.000,-168.985,-37.497,-203.879,66.391,123.085,-110.373,15010.406,1026.039,-18079.002
1512177549,-112.400,-114.000,-185.800,-29540.000,85880.000,900330.000,-73000.000,-412000.000,13000.000,-127.345,26.788,-269.148,150.591,108.439,-103.693,15085.403,1026.146,-18079.643
1512177549,12.700,-98.000,-172.600,-14590.000,-137700.000,888670.000,-73000.000,-412000.000,13000.000,-155.823,91.680,-155.266,206.230,87.393,-110.884,14708.939,725.594,-18301.598
1512177549,-27.600,-49.000,-168.700,-101750.000,-9770.000,899960.000,-73000.000,-412000.000,13000.000,-84.898,14.698,-63.891,205.140,72.882,-127.813,15162.430,1476.265,-18080.070
1512177549,23.300,-16.100,-170.000,74710.000,-54440.000,899110.000,-66000.000,-401000.000,3000.000,8.259,-80.166,-92.718,180.483,95.862,-143.114,15460.556,1101.707,-18457.787
1512177549,10.800,-86.400,-151.100,65730.000,-19100.000,1050900.000,-66000.000,-401000.000,3000.000,111.366,-55.608,-9.054,140.766,70.912,-92.885,15236.343,1251.381,-18230.812
1512177549,-41.900,-35.700,-148.300,42600.000,-42720.000,938600.000,-66000.000,-401000.000,3000.000,159.089,-97.476,133.277,61.333,73.378,-68.461,14935.226,1025.932,-18453.362
1512177549,-8.500,40.600,-119.200,-38640.000,31190.000,810300.000,-66000.000,-401000.000,3000.000,217.991,-83.597,182.151,-30.596,63.728,-49.179,14711.533,1325.584,-18526.314
1512177549,-24.400,-24.100,-106.700,-65490.000,-51450.000,915160.000,-66000.000,-401000.000,3000.000,59.778,103.155,153.325,-43.977,32.283,-42.634,14449.142,1325.196,-18299.079
1512177549,-49.400,-21.000,-85.800,12390.000,-25450.000,969120.000,-82000.000,-424000.000,1000.000,-67.668,102.865,-69.730,67.177,119.094,-97.716,14410.011,950.142,-18186.440
1512177549,-21.300,19.200,-74.700,-8060.000,-59570.000,885310.000,-82000.000,-424000.000,1000.000,106.450,-175.064,-104.419,148.630,131.657,-54.833,14334.725,912.521,-18410.812
1512177549,-38.300,15.300,-67.000,-14470.000,-12570.000,1015690.000,-82000.000,-424000.000,1000.000,117.814,-210.060,44.871,22.557,45.586,-12.036,14033.523,649.574,-18445.892
1512177549,-28.900,37.600,-42.500,24170.000,-17640.000,899230.000,-82000.000,-424000.000,1000.000,-18.454,61.243,-49.972,-70.617,82.150,-4.254,13658.043,536.507,-18405.251
1512177549,-20.500,56.700,-24.400,1770.000,-31980.000,960450.000,-82000.000,-424000.000,1000.000,-123.008,230.490,-102.072,58.924,92.280,7.708,13619.545,311.447,-18367.539
1512177549,-33.000,39.900,-22.900,19840.000,-31740.000,922060.000,-75000.000,-421000.000,-8000.000,-78.040,121.257,75.168,50.232,79.453,-125.254,14032.722,462.074,-18370.972
1512177549,-33.200,17.000,-14.600,39000.000,-9220.000,895200.000,-75000.000,-421000.000,-8000.000,72.921,-2.399,61.999,100.721,65.976,-103.258,13991.677,-287.994,-18708.504
1512177549,-35.200,16.200,-5.100,-3480.000,-62010.000,857910.000,-75000.000,-421000.000,-8000.000,-45.942,74.986,1.382,201.679,88.576,-72.508,14252.960,-550.102,-18785.858
1512177549,-29.300,18.400,2.700,8730.000,-44980.000,933960.000,-75000.000,-421000.000,-8000.000,-70.630,111.243,13.409,226.595,136.624,-48.649,14141.236,-400.269,-18597.336
1512177549,-15.800,18.200,21.700,-17700.000,-28260.000,933960.000,-66000.000,-423000.000,-16000.000,24.584,125.527,155.024,131.862,65.090,-40.166,14066.246,-437.881,-18221.711
1512177549,-9.100,-2.800,29.600,17030.000,-57310.000,898130.000,-66000.000,-423000.000,-16000.000,-64.962,307.908,228.453,44.101,62.671,-95.001,14177.078,-850.212,-17847.862
1512177550,-32.800,-21.700,41.900,-65670.000,-6410.000,818420.000,-66000.000,-423000.000,-16000.000,48.134,331.464,288.807,36.516,96.855,-112.608,14477.753,-699.760,-17850.334
1512177550,-28.800,-18.400,59.800,-80930.000,-55600.000,973450.000,-66000.000,-423000.000,-16000.000,50.413,297.305,278.060,81.306,88.365,-92.873,14251.068,-1075.096,-17848.595
1512177550,-45.700,1.600,68.800,110780.000,-6230.000,959660.000,-66000.000,-423000.000,-16000.000,-11.514,231.106,216.168,117.675,90.935,-105.807,14400.421,-1224.876,-17774.940
1512177550,-40.700,4.300,63.900,68970.000,-53280.000,964660.000,-65000.000,-424000.000,-15000.000,-55.613,193.864,108.794,145.144,105.087,-124.372,14248.215,-1675.102,-18148.872
1512177550,-8.700,18.100,69.400,8670.000,-48580.000,1018620.000,-65000.000,-424000.000,-15000.000,-68.901,223.818,75.658,169.348,116.440,-108.843,14549.500,-1449.654,-17626.320
1512177550,-20.800,-7.100,126.900,138980.000,-19590.000,942990.000,-65000.000,-424000.000,-15000.000,-36.232,221.562,163.542,188.935,110.681,-110.573,14700.394,-1224.434,-17852.501
1512177550,20.100,24.400,124.400,-430.000,-14100.000,749940.000,-65000.000,-424000.000,-15000.000,23.158,193.716,245.325,192.237,69.055,-130.406,14924.606,-1449.089,-17404.518
1512177550,-31.400,-25.200,128.400,138180.000,-75070.000,901790.000,-77000.000,-416000.000,-20000.000,80.685,168.037,311.098,170.255,58.937,-155.949,14848.099,-1749.199,-17704.002
1512177550,-6.800,-36.000,113.300,27040.000,-63170.000,989500.000,-77000.000,-416000.000,-20000.000,98.342,201.114,340.250,156.769,77.631,-160.537,14698.517,-1674.431,-17552.711
1512177550,-1.300,-20.000,154.900,70250.000,-10310.000,936280.000,-77000.000,-416000.000,-20000.000,132.915,211.904,313.071,149.560,98.069,-148.343,14696.564,-2124.428,-17402.916
1512177550,-2.700,-27.800,154.600,104550.000,-39120.000,943420.000,-77000.000,-416000.000,-20000.000,177.840,158.714,236.781,153.859,117.630,-119.806,14772.354,-1974.312,-17178.490
1512177550,5.200,-22.600,150.700,119200.000,-23070.000,963990.000,-77000.000,-416000.000,-20000.000,194.271,63.859,140.744,172.937,111.972,-73.375,14697.098,-2049.431,-17027.885
1512177550,-0.300,-33.000,164.700,174440.000,-38760.000,959720.000,-73000.000,-433000.000,-27000.000,171.232,-65.369,109.043,173.752,112.115,-27.365,14621.384,-2199.547,-17102.318
1512177550,22.200,-5.900,175.200,160520.000,-23500.000,936580.000,-73000.000,-433000.000,-27000.000,181.050,-150.896,156.864,118.717,111.621,-8.095,14246.765,-2125.114,-17024.086
1512177550,-5.300,-0.700,182.300,106870.000,-7510.000,922420.000,-73000.000,-433000.000,-27000.000,221.188,-163.697,178.722,36.333,100.508,5.976,13869.019,-2725.670,-17096.184
1512177550,-17.700,26.100,190.800,68180.000,-18550.000,957030.000,-73000.000,-433000.000,-27000.000,240.515,-99.570,172.826,-20.827,85.336,43.022,13646.194,-2276.009,-16794.060
1512177550,-35.200,46.200,194.500,109070.000,-33940.000,1009280.000,-73000.000,-433000.000,-27000.000,136.435,15.673,154.663,-30.964,69.579,76.582,13496.902,-2126.228,-16717.720
1512177550,-31.700,56.300,210.300,70980.000,-5740.000,970460.000,-52000.000,-423000.000,-30000.000,-58.298,109.539,73.280,17.925,86.330,62.166,13196.869,-2126.686,-16790.169
1512177550,-33.000,32.500,212.500,91490.000,-33940.000,878300.000,-52000.000,-423000.000,-30000.000,-155.174,151.193,2.729,103.577,99.487,16.012,13421.860,-2126.350,-16792.076
1512177550,-38.600,-11.300,226.500,71780.000,-39000.000,863890.000,-52000.000,-423000.000,-30000.000,-154.728,150.049,40.043,173.270,91.516,-27.787,13944.534,-2650.566,-16721.779
1512177550,-16.800,-20.100,228.800,99910.000,-54690.000,907170.000,-52000.000,-423000.000,-30000.000,-142.914,220.316,167.319,204.157,70.298,-93.772,14020.248,-2500.450,-16647.346
1512177550,-6.900,-8.100,235.600,67690.000,-54260.000,894230.000,-56000.000,-419000.000,-30000.000,-98.091,295.034,233.260,235.337,63.463,-145.525,14470.703,-2424.767,-16426.140
1512177550,-9.700,-22.900,236.200,96070.000,-88560.000,857180.000,-56000.000,-419000.000,-30000.000,-14.903,334.681,232.469,278.139,105.735,-123.834,14543.900,-2799.660,-16651.955
1512177550,-14.000,-36.600,240.900,197810.000,-92900.000,875120.000,-56000.000,-419000.000,-30000.000,35.877,261.010,252.136,321.686,123.171,-80.252,14918.945,-2799.095,-16580.147
1512177550,-22.500,-34.400,249.000,227290.000,-95700.000,876590.000,-56000.000,-419000.000,-30000.000,142.061,182.899,403.719,235.924,83.419,-77.921,14732.231,-2649.383,-16353.478
1512177550,-1.700,-28.600,257.100,213990.000,-92100.000,838560.000,-56000.000,-419000.000,-30000.000,140.211,274.062,488.229,82.367,28.590,-122.006,14504.639,-3249.718,-16126.838
1512177550,3.500,-12.300,258.600,225950.000,-48030.000,888120.000,-50000.000,-403000.000,-28000.000,128.574,198.472,349.207,101.771,96.892,-84.780,14652.680,-3736.992,-15678.344
1512177550,1.200,-3.700,272.200,127620.000,-64270.000,882080.000,-50000.000,-403000.000,-28000.000,66.919,79.433,267.944,164.950,71.018,-48.030,14536.873,-4487.175,-15527.740
1512177550,-0.500,4.700,274.800,138980.000,-36930.000,838870.000,-50000.000,-403000.000,-28000.000,16.606,122.589,282.824,116.920,46.266,-103.677,14763.924,-4036.834,-15491.943
1512177550,-4.500,-15.700,283.900,111820.000,-36380.000,921810.000,-50000.000,-403000.000,-28000.000,-5.600,123.240,207.348,181.482,98.805,-93.446,14161.819,-4525.238,-15299.568
1512177550,4.100,9.600,289.100,173340.000,-25880.000,967160.000,-50000.000,-403000.000,-28000.000,94.680,13.325,230.273,192.001,103.820,-31.896,13899.086,-4563.126,-15409.859
1512177550,6.500,0.500,286.000,151980.000,-65120.000,986880.000,-45000.000,-419000.000,-37000.000,119.394,46.369,284.582,93.153,65.040,5.290,13824.349,-4525.742,-15221.702
1512177550,-0.100,-4.700,282.300,135010.000,-71350.000,952640.000,-45000.000,-419000.000,-37000.000,29.394,139.700,284.136,41.402,65.967,9.656,13558.083,-5388.642,-14994.873
1512177550,6.500,5.200,286.600,159970.000,-66650.000,955930.000,-45000.000,-419000.000,-37000.000,-65.698,296.663,239.593,64.444,55.550,-54.316,14010.056,-4975.463,-14773.506
1512177550,10.800,21.400,289.900,137880.000,-67690.000,914060.000,-45000.000,-419000.000,-37000.000,-46.005,293.554,209.488,146.840,81.625,-146.304,14421.761,-5162.338,-14664.597
1512177550,29.400,37.000,285.000,182980.000,-45530.000,976620.000,-36000.000,-414000.000,-25000.000,158.788,8.095,220.521,203.099,116.218,-23.943,14495.590,-5424.736,-14665.352
1512177550,35.200,42.500,286.300,92220.000,-8300.000,980590.000,-36000.000,-414000.000,-25000.000,145.342,-32.116,291.081,105.238,67.632,65.803,14269.066,-5762.573,-14663.597
1512177551,31.600,28.000,288.000,71720.000,-10740.000,950070.000,-36000.000,-414000.000,-25000.000,-139.970,356.748,318.148,44.859,-0.699,1.794,14229.691,-6175.133,-14700.966
1512177551,28.600,31.200,290.600,5620.000,-48770.000,865540.000,-36000.000,-414000.000,-25000.000,-258.622,596.981,285.286,93.769,20.103,-96.566,14678.604,-6399.452,-14854.897
1512177551,37.400,18.100,293.600,19840.000,-52860.000,858520.000,-36000.000,-414000.000,-25000.000,-276.899,622.569,295.770,202.496,84.356,-167.508,14679.764,-6174.461,-14554.787
1512177551,36.200,5.700,302.500,4090.000,-102970.000,963440.000,-26000.000,-414000.000,-42000.000,-76.471,475.608,223.539,302.287,133.978,-172.031,15129.959,-6173.775,-14183.617
1512177551,48.600,13.000,302.500,83010.000,-44490.000,867550.000,-26000.000,-414000.000,-42000.000,116.098,219.385,298.995,369.925,139.477,-114.819,15126.907,-6848.793,-14183.922
1512177551,21.700,-13.600,309.200,147340.000,-60300.000,819210.000,-26000.000,-414000.000,-42000.000,248.193,51.498,490.081,296.413,106.001,-83.471,15129.883,-6173.775,-14333.626
1512177551,23.000,-36.600,308.500,118470.000,-65610.000,903810.000,-26000.000,-414000.000,-42000.000,256.264,31.161,516.779,232.390,74.782,-82.766,14453.049,-6624.794,-13953.102
1512177551,15.000,-49.800,309.300,86430.000,-58530.000,938780.000,-26000.000,-414000.000,-42000.000,174.951,117.647,474.326,-0.553,36.563,-102.774,15052.094,-6848.900,-13808.296
1512177551,20.800,-49.900,314.400,91740.000,-32710.000,939760.000,-19000.000,-407000.000,-28000.000,146.140,257.778,353.934,-45.176,67.633,-78.073,14376.801,-6924.919,-13727.592
1512177551,28.100,-31.300,315.900,127010.000,-34610.000,971500.000,-19000.000,-407000.000,-28000.000,47.211,369.928,281.463,3.607,72.516,-45.761,14677.246,-6849.464,-13505.119
1512177551,27.700,4.000,316.600,192200.000,-49870.000,837160.000,-19000.000,-407000.000,-28000.000,-77.637,411.376,290.458,57.878,65.629,-100.968,14601.242,-7074.577,-13504.585
1512177551,22.500,-1.700,324.500,265200.000,-70620.000,862920.000,-19000.000,-407000.000,-28000.000,-86.546,302.628,179.081,104.746,120.997,-162.265,14977.478,-6849.007,-13057.655
1512177551,24.500,2.100,323.300,150330.000,-2690.000,957460.000,-12000.000,-403000.000,-42000.000,78.143,125.763,74.245,190.102,172.900,-81.768,14675.339,-7299.461,-13280.312
1512177551,26.600,-10.000,320.000,170170.000,1220.000,1021300.000,-12000.000,-403000.000,-42000.000,151.516,-75.074,140.706,244.009,145.010,-0.466,14899.246,-7524.132,-13432.335
1512177551,35.300,24.500,330.900,69760.000,-46690.000,908080.000,-12000.000,-403000.000,-42000.000,150.453,-240.628,132.654,236.712,105.262,30.484,14898.315,-7749.123,-13282.433
1512177551,30.400,-2.500,299.700,205870.000,-29240.000,847960.000,-12000.000,-403000.000,-42000.000,131.090,-133.057,277.731,160.671,4.246,23.174,14822.495,-7899.239,-13581.871
1512177551,11.700,-29.400,324.000,94970.000,-31490.000,980350.000,-12000.000,-403000.000,-42000.000,-40.167,114.140,460.537,64.371,2.772,-79.223,15120.956,-8273.796,-13284.599
1512177551,18.500,-51.500,332.800,116880.000,-6960.000,1018310.000,-29000.000,-414000.000,-49000.000,-65.829,484.975,353.783,79.509,51.284,-139.220,15119.827,-8498.802,-13509.697
1512177551,8.400,-46.700,334.800,79650.000,-20020.000,885440.000,-29000.000,-414000.000,-49000.000,0.436,495.911,280.160,201.846,118.368,-97.951,14970.169,-8424.019,-13508.400
1512177551,-0.300,-48.700,326.900,117800.000,-2750.000,949460.000,-29000.000,-414000.000,-49000.000,25.333,421.096,317.570,293.141,154.817,-78.007,15345.947,-8273.460,-13286.507
1512177551,-15.000,-71.800,331.000,140320.000,-18010.000,978640.000,-29000.000,-414000.000,-49000.000,89.035,199.936,387.016,327.240,147.551,-76.617,15117.645,-9023.796,-13134.941
1512177551,-21.200,-46.500,328.900,241150.000,-37170.000,825870.000,-10000.000,-412000.000,-54000.000,169.007,58.005,379.153,282.288,125.863,-61.324,15418.289,-8873.344,-13212.425
1512177551,-23.800,-25.800,332.800,222780.000,-53650.000,873600.000,-10000.000,-412000.000,-54000.000,191.108,-67.093,454.726,170.476,75.868,-75.942,15267.426,-9098.579,-12911.247
1512177551,-3.900,-10.400,330.200,96920.000,14160.000,877010.000,-10000.000,-412000.000,-54000.000,223.738,-87.133,349.589,44.448,121.955,-61.446,15117.538,-9098.808,-12684.975
1512177551,2.700,9.900,345.000,216060.000,-31130.000,1031070.000,-10000.000,-412000.000,-54000.000,296.068,20.970,300.912,19.614,87.904,14.257,14666.229,-9399.483,-12606.285
1512177551,-1.900,36.000,342.100,18190.000,-13060.000,878050.000,-10000.000,-412000.000,-54000.000,102.404,64.633,216.169,36.661,83.250,50.374,14664.429,-9774.483,-12831.459
1512177551,-17.700,8.400,355.700,99240.000,-75680.000,851620.000,8000.000,-428000.000,-55000.000,-109.792,161.627,159.597,88.898,115.197,4.373,14553.467,-9474.648,-12455.368
1512177551,5.100,8.800,349.400,205630.000,-36930.000,968810.000,8000.000,-428000.000,-55000.000,11.093,214.947,297.988,148.714,123.084,-29.487,14702.957,-9586.922,-12456.695
1512177551,14.100,27.200,334.200,156920.000,-2440.000,998470.000,8000.000,-428000.000,-55000.000,-65.668,394.488,469.139,93.647,53.989,-182.492,15075.127,-10223.869,-12385.177
1512177551,12.800,-17.200,350.500,23250.000,-74220.000,979250.000,8000.000,-428000.000,-55000.000,-80.365,387.460,228.504,249.824,197.480,-239.221,15411.743,-10448.364,-12125.656
1512177551,16.800,-66.800,349.400,237000.000,-85270.000,959470.000,8000.000,-428000.000,-55000.000,216.870,-79.059,314.339,329.701,169.582,-147.935,15483.361,-11198.257,-12164.139
1512177551,13.700,-51.400,354.600,255980.000,-49440.000,666810.000,12000.000,-428000.000,-62000.000,240.612,-68.499,394.141,104.220,94.670,-150.467,15444.168,-11610.809,-11826.508
1512177551,12.400,-30.200,363.900,290590.000,-76480.000,792720.000,12000.000,-428000.000,-62000.000,135.980,163.166,383.305,-29.045,120.373,-139.065,15104.264,-12136.322,-11898.888
1512177551,-16.100,0.500,352.600,258790.000,15750.000,807680.000,12000.000,-428000.000,-62000.000,14.914,279.178,231.106,168.250,158.849,-39.568,15327.202,-12585.991,-11976.005
1512177551,-10.400,28.200,352.600,198180.000,9030.000,884520.000,12000.000,-428000.000,-62000.000,19.076,112.894,326.535,204.402,153.389,-124.690,15513.711,-12810.707,-11940.209
1512177551,-14.400,0.300,354.900,177490.000,-10620.000,976930.000,19000.000,-417000.000,-59000.000,79.022,169.499,379.305,167.518,160.515,-100.749,15700.202,-13035.431,-11941.902
1512177551,-21.600,-1.300,408.800,127690.000,31740.000,927730.000,19000.000,-417000.000,-59000.000,114.227,148.383,279.531,195.659,209.600,-27.776,15361.237,-13373.436,-11826.683
1512177551,-23.400,18.500,400.100,85330.000,17460.000,875550.000,19000.000,-417000.000,-59000.000,11.886,289.961,447.509,207.918,147.930,-66.789,15472.427,-13673.272,-11752.785
1512177552,-15.400,7.900,343.000,225890.000,-23800.000,926030.000,19000.000,-417000.000,-59000.000,37.878,372.764,459.368,172.145,156.883,-177.022,15470.535,-14123.283,-11490.486
1512177552,-12.500,0.100,387.800,306090.000,43270.000,925050.000,19000.000,-417000.000,-59000.000,90.325,427.213,513.619,177.582,183.266,-171.033,15470.078,-14273.277,-11040.565
1512177552,1.500,-37.000,398.100,148680.000,82460.000,928220.000,12000.000,-435000.000,-89000.000,144.462,272.395,520.262,181.120,205.557,-169.502,15545.837,-14123.161,-10891.136
1512177552,1.600,-33.800,404.900,244930.000,-18860.000,891050.000,12000.000,-435000.000,-89000.000,247.213,109.312,423.107,183.114,212.223,-123.135,15318.207,-14723.503,-10739.494
1512177552,0.400,-35.000,403.300,307370.000,5070.000,913270.000,12000.000,-435000.000,-89000.000,260.518,18.599,386.734,170.604,184.040,-87.468,15091.324,-15098.839,-11112.755
1512177552,-5.500,-49.300,408.000,261110.000,38090.000,990970.000,12000.000,-435000.000,-89000.000,196.676,49.496,381.656,130.281,153.254,-98.512,14866.028,-15174.187,-11035.881
1512177552,29.300,-16.100,403.700,189760.000,8790.000,1009640.000,12000.000,-435000.000,-89000.000,129.519,104.935,384.074,98.764,134.150,-128.586,14789.108,-15624.290,-10810.448
1512177552,23.300,-1.200,411.700,230470.000,161500.000,967650.000,22000.000,-421000.000,-93000.000,122.691,133.705,410.723,94.417,144.282,-156.994,14939.194,-15624.077,-10661.720
1512177552,27.800,30.600,418.500,259160.000,-45720.000,990050.000,22000.000,-421000.000,-93000.000,144.536,164.782,381.301,113.241,198.337,-154.763,14710.022,-16524.406,-10885.231
1512177552,35.000,71.000,435.800,115420.000,158390.000,806460.000,22000.000,-421000.000,-93000.000,194.412,119.032,328.563,180.678,177.525,-107.615,14862.534,-15999.184,-10586.250
1512177552,20.500,3.500,454.700,148560.000,-3850.000,838990.000,22000.000,-421000.000,-93000.000,162.704,41.041,307.575,197.904,190.035,-78.582,14860.107,-16524.193,-10736.504
1512177552,-26.400,-23.800,449.700,320130.000,87400.000,914120.000,15000.000,-446000.000,-110000.000,134.578,20.657,331.616,210.375,185.080,-79.535,15086.868,-16148.842,-10588.234
1512177552,-27.700,21.800,427.200,230530.000,41320.000,887080.000,15000.000,-446000.000,-110000.000,164.490,5.762,327.737,202.341,173.381,-87.154,14785.507,-16449.303,-10585.823
1512177552,-32.100,13.300,426.600,183040.000,37050.000,858340.000,15000.000,-446000.000,-110000.000,193.690,-9.357,430.446,175.582,149.857,-86.738,14708.557,-16899.422,-10435.402
1512177552,21.600,11.900,357.800,110780.000,43760.000,928530.000,15000.000,-446000.000,-110000.000,224.785,38.649,486.499,130.157,148.357,-105.666,14333.557,-16899.986,-10432.213
1512177552,-7.600,13.800,452.300,109370.000,84720.000,950990.000,15000.000,-446000.000,-110000.000,188.020,136.926,458.592,109.378,145.710,-86.136,14782.028,-17274.300,-10136.223
1512177552,-39.700,28.000,460.600,127200.000,83920.000,934330.000,45000.000,-430000.000,-108000.000,109.314,241.500,452.485,132.658,149.219,-104.193,13955.719,-17575.539,-10054.344
1512177552,-31.800,19.800,466.200,147830.000,78190.000,1094360.000,45000.000,-430000.000,-108000.000,60.468,248.925,441.142,138.366,170.248,-139.405,14179.398,-17875.206,-9981.392
1512177552,-44.300,41.400,449.500,215880.000,44620.000,874570.000,45000.000,-430000.000,-108000.000,126.669,211.652,432.375,166.435,203.791,-146.457,14330.154,-17724.983,-9832.603
1512177552,-36.000,43.100,445.100,234620.000,10930.000,816280.000,45000.000,-430000.000,-108000.000,194.456,111.302,454.330,168.640,181.655,-112.833,13954.208,-17950.539,-9679.512
1512177552,-8.900,65.200,439.200,148010.000,143980.000,889770.000,45000.000,-430000.000,-108000.000,220.194,-8.266,439.362,111.497,193.764,-102.670,13954.926,-17800.545,-9604.454
1512177552,-22.900,62.500,435.300,147520.000,80570.000,924930.000,36000.000,-428000.000,-106000.000,212.850,71.971,371.307,86.584,207.518,-50.030,14251.511,-18550.102,-9682.335
1512177552,-46.900,49.900,439.400,237670.000,17400.000,888180.000,36000.000,-428000.000,-106000.000,150.955,128.347,442.030,107.171,127.529,-25.113,13578.537,-18101.112,-9676.399
1512177552,-38.600,51.500,432.000,163390.000,45720.000,890750.000,36000.000,-428000.000,-106000.000,-31.101,159.078,429.908,54.577,155.822,-103.638,13499.924,-18926.231,-9451.149
1512177552,-24.400,34.900,449.900,155760.000,75740.000,992550.000,36000.000,-428000.000,-106000.000,51.741,283.193,389.963,78.820,161.942,-121.113,13427.292,-18401.344,-9450.264
1512177552,-29.700,22.900,443.800,247500.000,19710.000,819400.000,65000.000,-414000.000,-140000.000,48.646,269.318,383.476,154.722,190.278,-120.667,13424.789,-19001.350,-9075.539
1512177552,-10.000,57.400,450.500,154790.000,67260.000,937380.000,65000.000,-414000.000,-140000.000,144.177,125.751,400.881,200.869,192.079,-74.103,13611.237,-19226.066,-9152.237
1512177552,-31.200,34.100,457.000,207520.000,-16360.000,874760.000,65000.000,-414000.000,-140000.000,156.705,92.028,447.318,163.573,171.916,-51.613,13121.696,-19676.796,-9185.799
1512177552,17.800,50.700,462.200,248780.000,115540.000,808470.000,65000.000,-414000.000,-140000.000,47.124,220.403,537.326,103.659,147.257,-80.754,12821.030,-19827.247,-9145.820
1512177552,-35.300,33.400,438.400,191710.000,31430.000,925660.000,65000.000,-414000.000,-140000.000,88.360,282.500,496.029,121.843,180.859,-119.273,12596.298,-19790.092,-8956.390
1512177552,20.400,53.100,431.200,178100.000,11290.000,866880.000,59000.000,-419000.000,-128000.000,121.925,177.818,524.938,133.877,169.388,-105.892,12180.718,-20503.205,-8690.712
1512177552,7.500,42.500,459.700,171330.000,25940.000,862000.000,59000.000,-419000.000,-128000.000,136.172,115.998,465.761,56.399,172.724,-123.069,11879.967,-20691.155,-8500.756
1512177552,26.100,48.900,471.100,121150.000,22460.000,940980.000,59000.000,-419000.000,-128000.000,161.362,85.144,423.911,66.327,175.099,-74.956,11241.341,-20954.613,-8382.958
1512177552,8.500,47.900,480.000,134220.000,81420.000,942930.000,59000.000,-419000.000,-128000.000,76.867,101.003,441.398,59.852,134.095,-84.895,11053.596,-21029.899,-8193.901
1512177552,-7.200,37.200,482.000,148190.000,53410.000,870610.000,59000.000,-419000.000,-128000.000,101.640,152.340,428.610,74.973,154.069,-98.707,10677.506,-21292.968,-8003.334
1512177552,4.900,45.000,478.400,159120.000,5980.000,857180.000,61000.000,-400000.000,-123000.000,95.748,126.093,460.946,88.764,144.922,-80.747,10414.345,-21443.352,-7963.677
1512177552,44.500,58.200,484.400,217410.000,33200.000,868590.000,61000.000,-400000.000,-123000.000,61.027,225.427,437.868,87.739,154.834,-85.567,10075.256,-21818.863,-7773.475
1512177552,14.600,47.900,479.900,146060.000,41500.000,874020.000,61000.000,-400000.000,-123000.000,67.106,186.476,422.896,102.018,174.039,-96.149,9700.806,-21706.925,-7695.236
1512177553,39.900,63.800,482.800,190550.000,46260.000,874390.000,61000.000,-400000.000,-123000.000,132.745,86.656,445.887,84.447,193.123,-106.728,9137.848,-21857.765,-7240.532
1512177553,26.900,51.100,458.600,146420.000,75500.000,922240.000,72000.000,-393000.000,-120000.000,185.077,125.203,442.518,71.632,160.289,-50.112,8687.515,-21933.449,-7236.732
1512177553,18.600,69.400,450.900,160950.000,64270.000,934810.000,72000.000,-393000.000,-120000.000,123.196,83.315,507.569,53.572,153.988,-63.473,8612.625,-21933.556,-7011.101
1512177553,29.200,65.500,452.100,104490.000,38390.000,903320.000,72000.000,-393000.000,-120000.000,108.396,135.649,503.275,1.074,152.014,-69.225,8162.704,-21934.242,-6857.277
1512177553,35.300,71.100,451.500,106810.000,93380.000,984310.000,72000.000,-393000.000,-120000.000,108.671,158.103,486.295,-5.080,176.033,-90.438,8161.575,-22159.233,-7082.390
1512177553,49.900,79.800,435.300,65000.000,23800.000,918400.000,72000.000,-393000.000,-120000.000,104.227,201.998,435.214,21.178,164.209,-67.625,7935.440,-22459.572,-6630.608
1512177553,24.900,86.200,465.500,125980.000,54630.000,1020320.000,86000.000,-368000.000,-123000.000,80.694,156.150,372.881,55.076,152.935,-65.149,7335.037,-22535.484,-6775.536
1512177553,40.700,94.100,465.100,81050.000,88870.000,957890.000,86000.000,-368000.000,-123000.000,60.697,86.726,354.228,67.673,159.881,-79.365,7706.177,-23359.917,-7079.109
1512177553,27.000,98.000,462.300,115050.000,31070.000,878850.000,86000.000,-368000.000,-123000.000,114.440,28.118,324.955,65.818,170.929,-78.911,7410.782,-22385.368,-6626.122
1512177553,17.000,80.800,459.800,203000.000,79900.000,917480.000,86000.000,-368000.000,-123000.000,198.791,9.034,315.448,72.973,154.351,-33.672,6884.766,-22611.153,-6621.758
1512177553,14.800,74.600,453.400,133790.000,73060.000,925350.000,86000.000,-368000.000,-123000.000,181.854,-21.011,371.600,57.399,130.029,-3.507,7034.775,-22610.924,-6623.039
1512177553,55.700,88.000,456.200,155210.000,65490.000,844970.000,79000.000,-357000.000,-113000.000,159.098,-4.001,394.782,14.880,116.267,0.404,6284.698,-22612.053,-6766.655
1512177553,30.600,69.900,455.400,91670.000,90820.000,848630.000,79000.000,-357000.000,-113000.000,123.717,121.955,412.830,-12.878,95.677,-2.624,6356.735,-23286.949,-6617.607
1512177553,4.100,70.000,459.300,56520.000,53770.000,986820.000,79000.000,-357000.000,-113000.000,42.424,245.698,435.537,-16.160,84.284,-38.945,5981.277,-23362.511,-6839.439
1512177553,16.000,87.500,486.400,66220.000,65980.000,917300.000,79000.000,-357000.000,-113000.000,25.387,315.232,373.703,30.804,97.287,-62.160,5832.809,-23062.737,-6463.036
1512177553,-5.600,53.000,469.400,121090.000,47910.000,860840.000,86000.000,-340000.000,-110000.000,44.436,290.674,380.287,93.388,109.844,-73.075,5906.845,-23287.621,-6388.786
1512177553,11.900,41.100,467.100,106020.000,33080.000,811100.000,86000.000,-340000.000,-110000.000,55.699,240.434,405.860,141.469,112.185,-81.173,5231.201,-23438.637,-6308.113
1512177553,9.100,36.100,467.900,42600.000,56340.000,892090.000,86000.000,-340000.000,-110000.000,105.515,141.146,419.031,142.609,126.218,-88.461,5381.165,-23438.408,-6384.392
1512177553,29.300,42.700,480.200,90150.000,24350.000,862610.000,86000.000,-340000.000,-110000.000,224.765,98.587,425.941,110.309,103.031,-68.507,5155.457,-23588.753,-6457.542
1512177553,7.200,21.300,462.100,-8910.000,17400.000,881710.000,86000.000,-340000.000,-110000.000,223.771,102.734,485.637,71.042,91.166,-52.429,5005.829,-23513.969,-6381.233
1512177553,16.200,16.600,464.100,63780.000,34060.000,803470.000,96000.000,-329000.000,-123000.000,196.371,155.070,469.434,64.770,80.322,-12.045,4778.580,-24039.314,-6154.564
1512177553,16.100,25.300,458.700,62930.000,-19170.000,890690.000,96000.000,-329000.000,-123000.000,122.012,171.005,453.484,77.935,86.248,16.235,4027.298,-24190.437,-7348.259
1512177553,7.200,13.400,459.500,78610.000,29050.000,917050.000,96000.000,-329000.000,-123000.000,55.642,191.169,471.785,91.016,78.297,0.751,3801.178,-24415.779,-7571.449
1512177553,13.400,21.800,454.500,88810.000,26180.000,926030.000,96000.000,-329000.000,-123000.000,20.584,192.201,464.886,101.654,75.882,-28.686,3576.172,-24416.115,-7569.527
1512177553,20.500,52.100,455.000,56700.000,-4390.000,944820.000,108000.000,-320000.000,-111000.000,56.565,115.326,477.935,115.860,70.729,-43.140,3425.537,-24566.338,-7493.324
1512177553,16.400,54.200,454.700,52250.000,-20390.000,923830.000,108000.000,-320000.000,-111000.000,77.912,83.313,473.865,120.169,76.730,-47.267,3350.754,-24491.447,-7717.659
1512177553,-1.200,30.900,460.300,83500.000,-8850.000,908390.000,108000.000,-320000.000,-111000.000,123.875,63.041,497.914,75.518,66.694,-77.456,2938.461,-24492.073,-7301.651
1512177553,26.100,45.700,462.100,109070.000,-21240.000,917970.000,108000.000,-320000.000,-111000.000,166.650,86.147,458.102,-5.386,30.247,-75.039,2300.553,-24605.530,-7108.788
1512177553,26.600,39.300,466.900,77940.000,-19290.000,876830.000,108000.000,-320000.000,-111000.000,117.893,277.702,515.097,-46.499,64.197,-86.397,1586.807,-24906.601,-6877.869
1512177553,34.500,44.500,467.800,90450.000,-37350.000,899720.000,89000.000,-283000.000,-93000.000,51.024,404.865,438.879,-24.162,63.605,-131.501,838.325,-24570.221,-6871.338
1512177553,43.900,38.700,470.000,43700.000,-39250.000,960020.000,89000.000,-283000.000,-93000.000,141.224,311.753,330.593,-63.976,90.034,-162.452,427.734,-24195.839,-6417.656
