time_unix,rotate_x,rotate_y,rotate_z,acc_x,acc_y,acc_z,mag_x,mag_y,mag_z
1512177071,-0.0015,0.0005,-0.0023,0.00,3.05,942.44,5,10,1
1512177071,0.0005,0.0048,0.0009,-7.08,-5.07,879.76,5,10,1
1512177071,0.0103,-0.0091,-0.0013,8.54,6.29,952.51,5,10,1
1512177071,0.0068,-0.0080,-0.0005,-4.70,-2.01,969.06,-8,14,-1
1512177071,-0.0033,0.0055,-0.0003,5.68,3.60,943.85,-8,14,-1
1512177071,0.0039,-0.0005,-0.0001,0.18,3.05,907.04,-8,14,-1
1512177071,0.0064,-0.0084,-0.0017,-0.43,-3.17,952.21,-8,14,-1
1512177071,0.0011,0.0015,-0.0008,6.59,9.40,941.47,-8,14,-1
1512177071,-0.0025,0.0004,-0.0027,-3.48,3.66,905.76,-3,5,3
1512177071,0.0037,-0.0019,-0.0012,0.06,-1.95,930.36,-3,5,3
1512177071,0.0021,-0.0021,-0.0005,7.32,5.13,958.31,-3,5,3
1512177071,0.0001,0.0015,-0.0020,-2.56,4.46,927.43,-3,5,3
1512177071,-0.0008,0.0025,-0.0009,3.11,-4.21,902.47,5,3,5
1512177071,0.0076,-0.0056,-0.0027,0.55,8.36,947.27,5,3,5
1512177071,-0.0020,0.0008,-0.0027,-0.43,-2.56,928.77,5,3,5
1512177071,-0.0084,0.0091,0.0013,3.42,0.12,904.42,5,3,5
1512177071,-0.0007,0.0045,-0.0013,-6.16,6.35,891.05,5,3,5
1512177071,0.0073,-0.0083,-0.0024,-1.65,-2.69,962.16,3,1,6
1512177071,-0.0015,0.0025,-0.0008,7.93,6.47,959.05,3,1,6
1512177071,-0.0075,0.0061,-0.0023,-2.93,3.48,903.20,3,1,6
1512177071,0.0088,-0.0065,0.0001,-0.37,-2.56,921.08,3,1,6
1512177071,0.0081,-0.0089,-0.0011,11.47,4.52,977.84,3,1,6
1512177071,-0.0019,-0.0023,-0.0020,-1.95,9.89,947.20,0,12,6
1512177071,-0.0004,0.0049,-0.0003,-4.03,-4.94,885.44,0,12,6
1512177071,0.0095,-0.0097,-0.0005,3.78,7.57,954.22,0,12,6
1512177071,0.0069,-0.0065,-0.0015,-4.39,2.44,956.24,0,12,6
1512177071,-0.0081,0.0125,0.0013,3.36,-5.31,878.97,8,14,11
1512177071,0.0044,-0.0017,-0.0016,-0.24,2.93,907.78,8,14,11
1512177072,0.0092,-0.0099,-0.0017,1.28,-5.13,940.06,8,14,11
1512177072,-0.0093,0.0083,0.0024,4.33,-0.67,917.18,8,14,11
1512177072,-0.0049,0.0072,-0.0024,-4.39,5.13,888.73,8,14,11
1512177072,0.0035,-0.0017,-0.0003,-5.43,-5.31,896.06,8,-7,1
1512177072,0.0003,0.0001,0.0003,10.86,8.12,966.61,8,-7,1
1512177072,-0.0071,0.0073,-0.0012,-0.98,5.19,905.21,8,-7,1
1512177072,-0.0049,0.0088,-0.0001,-2.20,-1.28,876.59,8,-7,1
1512177072,0.0084,-0.0083,0.0005,13.24,2.38,982.24,12,3,5
1512177072,-0.0007,0.0015,-0.0029,-0.55,7.26,943.73,12,3,5
1512177072,-0.0091,0.0125,0.0021,5.74,-3.60,889.22,12,3,5
1512177072,0.0085,-0.0092,0.0001,5.25,2.81,970.64,12,3,5
1512177072,0.0048,-0.0045,-0.0023,0.85,2.44,957.64,12,3,5
1512177072,-0.0053,0.0080,0.0027,3.78,1.77,917.48,7,-1,3
1512177072,-0.0013,0.0016,-0.0012,-5.31,6.53,895.08,7,-1,3
1512177072,0.0040,-0.0041,-0.0020,0.61,-5.31,949.83,7,-1,3
1512177072,-0.0027,0.0037,-0.0003,2.62,9.83,927.67,7,-1,3
1512177072,-0.0049,0.0041,-0.0008,-1.77,4.94,898.99,7,-1,3
1512177072,0.0064,-0.0052,-0.0004,-0.61,-5.92,938.17,-5,10,8
1512177072,0.0003,-0.0020,0.0005,9.09,3.85,955.44,-5,10,8
1512177072,-0.0011,0.0013,-0.0015,-4.82,7.75,922.73,-5,10,8
1512177072,-0.0045,0.0061,0.0012,4.03,-5.86,893.31,-5,10,8
1512177072,0.0084,-0.0085,-0.0019,6.41,4.82,965.09,7,1,-10
1512177072,0.0049,-0.0053,-0.0027,-4.21,1.22,951.97,7,1,-10
1512177072,-0.0065,0.0084,0.0015,4.46,0.31,924.62,7,1,-10
1512177072,-0.0044,0.0051,-0.0025,-4.27,3.78,894.53,7,1,-10
1512177072,0.0076,-0.0107,-0.0019,-2.20,-4.64,948.61,7,1,-10
1512177072,0.0008,-0.0001,-0.0001,6.29,4.88,963.87,0,1,13
1512177072,0.0015,0.0023,-0.0017,-4.33,4.58,894.78,0,1,13
1512177072,0.0069,-0.0068,-0.0019,-2.93,-3.36,923.89,0,1,13
1512177072,0.0061,-0.0071,-0.0004,11.72,3.36,978.15,0,1,13
1512177072,-0.0025,-0.0001,-0.0016,-0.06,3.05,936.46,0,1,13
1512177072,0.0005,0.0001,0.0017,-4.27,-2.38,893.25,1,0,11
1512177072,0.0083,-0.0097,-0.0005,7.57,2.75,961.98,1,0,11
1512177072,0.0024,-0.0056,-0.0016,-1.89,0.06,954.35,1,0,11
1512177072,-0.0073,0.0083,-0.0003,3.17,1.65,915.53,1,0,11
1512177072,0.0069,-0.0065,-0.0011,3.11,2.20,938.11,7,-5,20
1512177072,0.0093,-0.0107,-0.0024,0.85,0.06,961.73,7,-5,20
1512177072,0.0027,-0.0005,-0.0004,10.19,3.66,958.86,7,-5,20
1512177073,-0.0075,0.0073,-0.0013,-0.49,6.53,903.99,7,-5,20
1512177073,-0.0044,0.0104,0.0001,1.16,-3.11,876.95,7,-5,20
1512177073,0.0104,-0.0084,-0.0023,8.85,3.17,982.67,-7,-1,6
1512177073,-0.0012,0.0024,-0.0017,-1.28,7.32,947.02,-7,-1,6
1512177073,-0.0112,0.0127,0.0020,2.69,-2.69,888.06,-7,-1,6
1512177073,-0.0023,0.0039,-0.0025,-6.77,2.20,882.75,-7,-1,6
1512177073,0.0076,-0.0080,-0.0015,-1.22,-2.56,963.68,-7,-1,6
1512177073,-0.0040,0.0039,-0.0003,5.07,4.58,951.60,21,-1,6
1512177073,-0.0079,0.0061,-0.0029,0.37,4.39,895.32,21,-1,6
1512177073,0.0088,-0.0095,-0.0016,-1.95,-6.23,937.07,21,-1,6
1512177073,0.0053,-0.0059,-0.0017,12.63,5.62,975.52,21,-1,6
1512177073,-0.0047,0.0013,-0.0031,0.61,1.89,926.39,0,-1,10
1512177073,0.0036,-0.0009,0.0007,-0.43,-4.46,901.79,0,-1,10
1512177073,0.0117,-0.0097,-0.0003,10.50,2.81,971.92,0,-1,10
1512177073,0.0016,-0.0043,-0.0031,0.49,2.56,954.71,0,-1,10
1512177073,-0.0084,0.0113,0.0009,3.11,1.22,907.04,0,-1,10
1512177073,0.0085,-0.0077,-0.0011,4.09,5.19,940.19,7,-1,10
1512177073,0.0076,-0.0083,-0.0023,-0.73,0.24,963.01,7,-1,10
1512177073,-0.0008,0.0008,0.0007,4.94,3.85,951.35,7,-1,10
1512177073,0.0016,-0.0017,-0.0003,-1.89,6.65,909.67,7,-1,10
1512177073,0.0076,-0.0073,-0.0009,1.95,-7.57,933.59,-3,8,3
1512177073,0.0039,-0.0061,-0.0004,9.77,4.94,980.35,-3,8,3
1512177073,-0.0063,0.0053,-0.0011,-3.23,5.92,887.88,-3,8,3
1512177073,0.0029,-0.0023,0.0004,-5.13,-2.20,893.37,-3,8,3
1512177073,0.0108,-0.0105,-0.0013,7.39,2.87,963.99,-3,8,3
1512177073,0.0049,-0.0047,-0.0013,-3.30,5.31,963.20,-8,-3,11
1512177073,-0.0055,0.0101,0.0005,2.26,-8.48,876.40,-8,-3,11
1512177073,0.0079,-0.0059,-0.0009,4.09,4.76,929.63,-8,-3,11
1512177073,0.0077,-0.0105,-0.0017,-2.01,-5.37,959.90,-8,-3,11
1512177073,-0.0123,0.0138,0.0020,3.11,-2.69,893.19,-8,-3,11
1512177073,0.0013,0.0035,-0.0009,-1.34,0.85,889.16,-14,-1,10
1512177073,0.0100,-0.0065,0.0004,-1.83,-1.53,921.26,-14,-1,10
1512177073,0.0081,-0.0083,0.0012,12.82,6.96,979.98,-14,-1,10
1512177073,-0.0068,0.0072,-0.0027,-0.31,1.59,890.20,-14,-1,10
1512177073,0.0013,0.0040,0.0015,-4.52,-2.99,887.21,3,12,3
1512177073,0.0093,-0.0100,-0.0016,7.93,5.19,960.27,3,12,3
1512177073,-0.0052,0.0037,-0.0011,-2.32,3.54,914.25,3,12,3
1512177074,-0.0097,0.0113,0.0008,3.17,-4.94,877.62,3,12,3
1512177074,0.0065,-0.0035,-0.0013,1.83,5.13,919.74,3,12,3
1512177074,0.0088,-0.0121,-0.0015,-2.44,-3.42,955.44,0,-1,6
1512177074,-0.0109,0.0120,0.0007,5.31,-2.87,893.80,0,-1,6
1512177074,0.0000,0.0031,-0.0021,-1.95,7.02,894.35,0,-1,6
1512177074,0.0068,-0.0061,0.0001,-0.73,-1.59,915.95,0,-1,6
1512177074,0.0092,-0.0084,-0.0007,10.13,2.08,977.84,0,-1,6
1512177074,-0.0060,0.0088,-0.0019,-3.78,5.86,900.09,10,5,10
1512177074,-0.0004,0.0039,-0.0020,-4.27,-5.74,895.51,10,5,10
1512177074,0.0036,-0.0065,-0.0012,4.33,3.60,965.58,10,5,10
1512177074,-0.0020,0.0027,-0.0019,-2.62,4.82,900.76,10,5,10
1512177074,-0.0004,-0.0001,0.0005,2.62,-4.39,915.10,-14,12,3
1512177074,0.0025,-0.0041,-0.0031,4.39,1.28,949.71,-14,12,3
1512177074,0.0001,-0.0031,-0.0015,1.89,-4.21,934.45,-14,12,3
1512177074,-0.0048,0.0071,0.0005,4.15,-2.81,908.45,-14,12,3
1512177074,0.0009,-0.0009,-0.0003,-1.89,4.82,896.85,-14,12,3
1512177074,0.0069,-0.0037,-0.0007,-2.26,-4.64,923.71,-7,1,3
1512177074,0.0041,-0.0071,-0.0001,9.58,3.72,979.80,-7,1,3
1512177074,-0.0068,0.0059,-0.0020,-4.52,1.40,897.34,-7,1,3
1512177074,0.0009,0.0009,-0.0023,-2.87,-5.07,895.14,-7,1,3
1512177074,0.0052,-0.0060,-0.0011,5.98,5.55,966.98,-7,1,3
1512177074,0.0001,-0.0013,-0.0015,-0.98,-3.85,948.55,1,7,-1
1512177074,-0.0017,0.0035,-0.0009,-0.43,-4.52,896.24,1,7,-1
1512177074,0.0065,-0.0048,0.0007,0.18,5.92,931.76,1,7,-1
1512177074,0.0085,-0.0075,-0.0016,0.73,-2.62,936.77,1,7,-1
1512177074,-0.0051,0.0063,-0.0008,3.78,1.77,923.03,-7,-5,10
1512177074,-0.0044,0.0049,-0.0031,-4.76,7.69,893.01,-7,-5,10
1512177074,0.0024,0.0009,0.0008,-3.54,-3.23,893.31,-7,-5,10
1512177074,0.0017,-0.0029,0.0013,9.70,3.91,972.29,-7,-5,10
1512177074,-0.0064,0.0051,-0.0009,-1.53,2.08,918.27,-7,-5,10
1512177074,-0.0111,0.0091,0.0008,3.23,-1.71,880.49,-3,1,-10
1512177074,0.0044,-0.0025,-0.0020,-0.37,4.70,904.48,-3,1,-10
1512177074,0.0033,-0.0063,0.0000,-3.85,3.72,958.01,-3,1,-10
1512177074,-0.0069,0.0080,-0.0005,2.50,0.37,922.97,-3,1,-10
1512177074,-0.0076,0.0056,-0.0043,-6.04,7.02,885.93,-3,1,-10
1512177074,-0.0044,-0.0025,-0.0040,15.26,-24.90,949.40,7,12,6
1512177074,-0.0044,0.0036,0.0009,16.17,-22.09,947.20,7,12,6
1512177074,-0.0055,-0.0027,0.0007,-0.85,-26.49,917.54,7,12,6
1512177075,-0.0036,-0.0044,0.0033,-4.52,-48.52,921.26,7,12,6
1512177075,-0.0032,-0.0015,0.0064,14.83,-42.48,956.30,-3,-5,3
1512177075,0.0001,0.0003,0.0083,-17.94,-35.95,911.87,-3,-5,3
1512177075,-0.0097,0.0072,0.0064,4.76,-52.86,901.92,-3,-5,3
1512177075,0.0027,-0.0080,0.0031,2.14,-47.00,956.60,-3,-5,3
1512177075,0.0047,-0.0075,0.0020,1.34,-40.22,932.07,-3,-5,3
1512177075,-0.0077,0.0041,0.0005,3.36,-52.31,937.13,-5,10,1
1512177075,0.0035,-0.0028,0.0031,5.49,-33.26,934.88,-5,10,1
1512177075,0.0035,-0.0051,0.0069,0.61,-38.09,938.84,-5,10,1
1512177075,-0.0091,0.0087,0.0075,7.26,-44.98,936.16,-5,10,1
1512177075,-0.0059,0.0027,0.0099,8.73,-31.62,953.80,1,0,8
1512177075,-0.0028,0.0023,0.0127,-2.62,-40.83,923.77,1,0,8
1512177075,-0.0013,0.0029,0.0148,6.90,-56.64,911.62,1,0,8
1512177075,-0.0016,-0.0017,0.0141,7.39,-35.77,942.81,1,0,8
1512177075,-0.0005,0.0015,0.0129,-6.65,-47.61,910.83,1,0,8
1512177075,0.0003,-0.0012,0.0100,3.66,-62.74,923.58,10,5,3
1512177075,0.0037,-0.0067,0.0101,3.85,-38.57,947.63,10,5,3
1512177075,0.0000,-0.0005,0.0141,-8.24,-47.18,923.77,10,5,3
1512177075,-0.0056,0.0067,0.0168,1.46,-60.24,920.29,10,5,3
1512177075,-0.0003,0.0031,0.0164,12.21,-35.40,945.01,10,5,3
1512177075,-0.0035,0.0021,0.0146,7.08,-38.21,932.74,-12,24,-5
1512177075,-0.0048,0.0009,0.0177,11.29,-60.18,918.33,-12,24,-5
1512177075,-0.0027,-0.0005,0.0201,10.44,-34.73,951.60,-12,24,-5
1512177075,-0.0057,0.0020,0.0212,7.69,-37.54,939.94,-12,24,-5
1512177075,-0.0043,0.0067,0.0244,1.95,-64.76,919.43,-1,14,1
1512177075,-0.0015,0.0068,0.0240,10.31,-39.67,939.09,-1,14,1
1512177075,0.0011,-0.0011,0.0245,1.95,-39.55,950.99,-1,14,1
1512177075,-0.0020,-0.0012,0.0244,1.83,-60.42,909.55,-1,14,1
1512177075,-0.0008,0.0023,0.0277,7.08,-59.33,920.35,-1,14,1
1512177075,-0.0008,0.0005,0.0300,1.71,-48.52,960.39,-8,3,18
1512177075,-0.0016,0.0023,0.0328,4.33,-42.42,941.71,-8,3,18
1512177075,-0.0048,0.0061,0.0349,3.36,-78.74,895.87,-8,3,18
1512177075,-0.0044,-0.0007,0.0348,10.56,-58.72,927.98,-8,3,18
1512177075,-0.0033,-0.0093,0.0318,22.16,-61.71,970.28,-8,3,18
1512177075,0.0025,-0.0039,0.0390,14.47,-66.77,937.19,-8,21,11
1512177075,-0.0104,0.0092,0.0443,13.24,-85.88,881.35,-8,21,11
1512177075,-0.0095,0.0109,0.0469,21.85,-104.86,916.75,-8,21,11
1512177075,-0.0065,0.0049,0.0461,13.92,-86.49,972.35,-8,21,11
1512177076,-0.0027,-0.0009,0.0487,-5.43,-97.29,964.72,-12,10,18
1512177076,-0.0032,-0.0073,0.0509,18.68,-75.74,977.78,-12,10,18
1512177076,-0.0009,-0.0079,0.0565,12.63,-93.87,922.85,-12,10,18
1512177076,0.0007,-0.0064,0.0650,18.31,-102.48,937.50,-12,10,18
1512177076,-0.0067,0.0015,0.0684,28.75,-116.76,894.71,-12,10,18
1512177076,-0.0103,-0.0001,0.0711,37.96,-120.18,900.51,-8,3,15
1512177076,-0.0142,0.0000,0.0699,50.29,-133.36,881.35,-8,3,15
1512177076,-0.0091,-0.0044,0.0788,38.02,-134.09,903.14,-8,3,15
1512177076,-0.0156,-0.0095,0.0835,44.19,-145.45,969.97,-8,3,15
1512177076,-0.0133,0.0013,0.0908,41.32,-143.98,907.84,-8,3,15
1512177076,-0.0158,0.0073,0.0996,35.10,-132.75,942.44,-19,-10,8
1512177076,-0.0123,0.0080,0.1044,38.02,-140.93,955.32,-19,-10,8
1512177076,-0.0146,0.0065,0.1052,40.28,-140.08,965.58,-19,-10,8
1512177076,-0.0103,0.0044,0.1123,38.27,-142.64,955.20,-19,-10,8
1512177076,-0.0121,0.0031,0.1173,35.83,-138.31,940.37,-12,0,8
1512177076,-0.0124,0.0069,0.1230,37.41,-146.30,926.33,-12,0,8
1512177076,-0.0123,0.0035,0.1305,32.53,-159.55,945.56,-12,0,8
1512177076,-0.0123,0.0033,0.1368,41.14,-170.53,948.61,-12,0,8
1512177076,-0.0146,0.0028,0.1453,25.39,-176.03,943.97,-12,0,8
1512177076,-0.0176,0.0025,0.1547,26.55,-167.97,929.32,-24,5,0
1512177076,-0.0184,-0.0007,0.1571,37.84,-176.45,915.28,-24,5,0
1512177076,-0.0144,-0.0019,0.1611,21.97,-176.64,917.85,-24,5,0
1512177076,-0.0216,-0.0043,0.1611,62.99,-205.69,997.38,-24,5,0
1512177076,-0.0150,0.0091,0.1703,32.35,-176.57,966.74,-21,-1,-3
1512177076,-0.0241,0.0108,0.1786,63.23,-181.88,942.08,-21,-1,-3
1512177076,-0.0198,0.0067,0.1820,56.52,-207.46,924.13,-21,-1,-3
1512177076,-0.0197,0.0083,0.1883,62.68,-209.53,948.73,-21,-1,-3
1512177076,-0.0181,0.0079,0.1956,44.98,-182.19,950.56,-21,-1,-3
1512177076,-0.0149,0.0067,0.2035,36.32,-198.30,936.52,-31,-12,13
1512177076,-0.0185,0.0092,0.2084,64.51,-212.16,947.51,-31,-12,13
1512177076,-0.0170,0.0085,0.2180,52.67,-189.76,943.42,-31,-12,13
1512177076,-0.0136,0.0117,0.2241,65.37,-208.74,917.60,-31,-12,13
1512177076,-0.0201,0.0128,0.2272,87.83,-225.71,942.99,-31,-12,13
1512177076,-0.0099,0.0176,0.2321,40.47,-202.27,977.17,-45,-5,-3
1512177076,-0.0079,0.0087,0.2376,75.44,-208.13,922.97,-45,-5,-3
1512177076,-0.0037,0.0004,0.2442,47.24,-194.15,930.79,-45,-5,-3
1512177076,-0.0044,0.0056,0.2469,47.18,-201.84,945.31,-45,-5,-3
1512177076,-0.0008,0.0105,0.2517,29.72,-192.14,951.48,-28,-5,10
1512177077,-0.0031,0.0085,0.2575,59.20,-156.68,898.62,-28,-5,10
1512177077,0.0051,0.0107,0.2621,33.45,-150.09,925.29,-28,-5,10
1512177077,0.0037,0.0031,0.2627,34.12,-161.87,941.35,-28,-5,10
1512177077,0.0023,0.0068,0.2686,47.42,-144.29,965.76,-28,-5,10
1512177077,-0.0079,0.0170,0.2711,46.08,-135.68,898.50,-24,-8,3
1512177077,-0.0105,0.0145,0.2675,79.77,-159.06,948.73,-24,-8,3
1512177077,-0.0093,0.0101,0.2714,35.89,-144.41,941.47,-24,-8,3
1512177077,-0.0134,0.0085,0.2738,77.27,-176.70,975.77,-24,-8,3
1512177077,-0.0111,0.0184,0.2759,78.67,-153.08,957.15,-38,-12,3
1512177077,-0.0145,0.0290,0.2808,66.65,-139.40,934.69,-38,-12,3
1512177077,-0.0212,0.0309,0.2807,66.47,-161.56,905.09,-38,-12,3
1512177077,-0.0220,0.0352,0.2810,53.47,-174.74,896.73,-38,-12,3
1512177077,-0.0128,0.0274,0.2830,21.91,-158.63,964.29,-38,-12,3
1512177077,-0.0119,0.0368,0.2831,41.50,-149.66,959.47,-43,-10,-15
1512177077,-0.0141,0.0302,0.2838,51.51,-133.30,892.58,-43,-10,-15
1512177077,-0.0184,0.0258,0.2860,12.33,-156.37,897.09,-43,-10,-15
1512177077,-0.0185,0.0296,0.2847,41.02,-151.37,899.84,-43,-10,-15
1512177077,-0.0154,0.0222,0.2884,6.29,-160.89,958.98,-43,-10,-15
1512177077,-0.0188,0.0220,0.2898,79.65,-144.29,927.55,-59,-15,-6
1512177077,-0.0202,0.0264,0.2894,59.33,-134.77,922.12,-59,-15,-6
1512177077,-0.0105,0.0129,0.2925,30.03,-132.02,919.92,-59,-15,-6
1512177077,-0.0055,-0.0009,0.2911,53.65,-162.48,951.72,-59,-15,-6
1512177077,0.0016,-0.0040,0.2923,23.56,-148.44,940.19,-54,-14,5
1512177077,-0.0016,0.0132,0.2932,32.17,-140.69,936.52,-54,-14,5
1512177077,-0.0103,0.0162,0.2906,88.01,-140.44,914.49,-54,-14,5
1512177077,-0.0097,0.0156,0.2943,63.23,-151.67,924.01,-54,-14,5
1512177077,-0.0065,0.0178,0.2953,44.19,-151.37,917.48,-54,-14,5
1512177077,0.0017,0.0142,0.2988,84.23,-157.59,923.22,-54,-17,-11
1512177077,-0.0004,0.0144,0.2947,122.92,-173.52,872.31,-54,-17,-11
1512177077,0.0117,-0.0008,0.3007,95.09,-155.21,936.89,-54,-17,-11
1512177077,0.0165,-0.0044,0.2964,101.68,-175.05,916.20,-54,-17,-11
1512177077,0.0173,-0.0007,0.2961,46.39,-136.29,935.67,-54,-17,-11
1512177077,0.0107,-0.0083,0.2972,51.94,-133.36,899.35,-66,-12,0
1512177077,0.0153,-0.0081,0.2947,60.18,-127.20,921.20,-66,-12,0
1512177077,0.0165,-0.0063,0.2911,73.55,-164.86,956.30,-66,-12,0
1512177077,0.0080,0.0242,0.2847,102.54,-167.11,858.70,-66,-12,0
1512177077,-0.0071,0.0137,0.2807,103.88,-141.78,916.14,-84,-29,0
1512177078,0.0017,0.0080,0.2762,77.33,-157.65,936.10,-84,-29,0
1512177078,-0.0007,0.0141,0.2758,61.40,-125.06,882.57,-84,-29,0
1512177078,-0.0019,0.0059,0.2718,74.40,-155.27,878.48,-84,-29,0
1512177078,0.0103,0.0017,0.2702,58.78,-140.69,934.14,-84,-29,0
1512177078,0.0149,-0.0197,0.2680,69.82,-137.70,946.04,-93,-28,-1
1512177078,0.0142,-0.0152,0.2660,20.69,-126.65,952.39,-93,-28,-1
1512177078,0.0193,-0.0067,0.2643,35.83,-131.84,949.10,-93,-28,-1
1512177078,0.0230,-0.0019,0.2613,50.35,-127.62,911.07,-93,-28,-1
1512177078,0.0217,0.0109,0.2517,77.45,-119.57,915.47,-93,-28,-1
1512177078,-0.0015,0.0274,0.2417,84.23,-102.91,1016.11,-107,-38,15
1512177078,0.0084,0.0405,0.2353,112.06,-143.68,1040.89,-107,-38,15
1512177078,0.0083,0.0499,0.2329,54.93,-117.07,993.29,-107,-38,15
1512177078,0.0031,0.0489,0.2290,25.33,-125.98,934.69,-107,-38,15
1512177078,0.0176,0.0401,0.2256,16.24,-105.90,907.47,-117,-35,-5
1512177078,0.0164,0.0352,0.2213,54.38,-176.09,876.22,-117,-35,-5
1512177078,0.0296,0.0356,0.2139,-1.95,-139.83,920.10,-117,-35,-5
1512177078,0.0108,0.0277,0.2037,65.25,-152.22,910.22,-117,-35,-5
1512177078,0.0285,-0.0011,0.1965,37.35,-149.54,904.24,-117,-35,-5
1512177078,0.0032,0.0075,0.1941,-18.74,-119.08,956.60,-107,-24,15
1512177078,0.0052,0.0044,0.1856,9.34,-124.57,904.30,-107,-24,15
1512177078,-0.0007,-0.0052,0.1859,2.14,-121.70,875.18,-107,-24,15
1512177078,-0.0280,-0.0048,0.1800,0.37,-112.79,921.75,-107,-24,15
1512177078,-0.0225,-0.0132,0.1771,18.86,-133.61,948.30,-117,-24,22
1512177078,-0.0334,-0.0189,0.1692,32.96,-118.29,940.73,-117,-24,22
1512177078,-0.0461,-0.0169,0.1691,43.40,-102.17,951.72,-117,-24,22
1512177078,-0.0401,-0.0105,0.1630,9.95,-146.48,989.56,-117,-24,22
1512177078,-0.0330,-0.0107,0.1611,3.97,-84.72,976.50,-117,-24,22
1512177078,-0.0387,-0.0083,0.1619,-5.19,-118.04,1011.35,-126,-54,-6
1512177078,-0.0458,-0.0001,0.1571,5.80,-149.29,933.90,-126,-54,-6
1512177078,-0.0582,0.0069,0.1511,49.74,-112.00,845.09,-126,-54,-6
1512177078,-0.0481,-0.0369,0.1518,53.65,-149.66,1055.73,-126,-54,-6
1512177078,-0.0322,-0.0109,0.1455,16.60,-108.83,958.13,-126,-54,-6
1512177078,-0.0310,-0.0079,0.1380,25.88,-112.98,942.87,-100,-49,-5
1512177078,-0.0174,-0.0053,0.1320,-12.88,-120.79,994.08,-100,-49,-5
1512177078,-0.0152,0.0115,0.1160,-2.56,-94.48,898.01,-100,-49,-5
1512177078,-0.0173,0.0080,0.1150,4.46,-100.71,911.07,-100,-49,-5
1512177078,-0.0124,0.0127,0.1117,42.91,-94.18,890.99,-114,-45,11
1512177078,-0.0079,-0.0009,0.1075,13.61,-160.95,909.61,-114,-45,11
1512177079,-0.0133,-0.0060,0.1071,28.99,-129.21,932.74,-114,-45,11
1512177079,-0.0137,-0.0057,0.1025,18.01,-97.66,955.51,-114,-45,11
1512177079,-0.0048,-0.0134,0.1028,-14.47,-77.21,983.70,-114,-45,11
1512177079,-0.0060,0.0007,0.0937,-22.46,-111.88,950.13,-117,-45,15
1512177079,-0.0250,0.0212,0.0983,-14.34,-59.27,850.34,-117,-45,15
1512177079,-0.0150,-0.0169,0.0924,-45.35,-119.20,907.96,-117,-45,15
1512177079,-0.0198,-0.0262,0.0892,-3.91,-109.19,892.27,-117,-45,15
1512177079,-0.0168,-0.0297,0.0933,21.67,-124.57,961.12,-117,-45,15
1512177079,0.0009,-0.0178,0.0895,5.86,-105.77,946.96,-117,-35,15
1512177079,-0.0076,-0.0029,0.0909,22.40,-88.26,954.83,-117,-35,15
1512177079,-0.0017,0.0055,0.0815,-3.91,-101.99,993.10,-117,-35,15
1512177079,0.0154,0.0073,0.0790,-23.38,-97.72,948.79,-117,-35,15
1512177079,0.0198,0.0185,0.0807,-34.97,-78.80,904.79,-112,-54,-10
1512177079,0.0273,0.0091,0.0734,-38.70,-114.01,927.06,-112,-54,-10
1512177079,0.0213,-0.0184,0.0724,-53.28,-102.72,961.73,-112,-54,-10
1512177079,0.0039,-0.0297,0.0626,-10.44,-108.15,938.11,-112,-54,-10
1512177079,0.0021,-0.0358,0.0618,-8.00,-75.50,966.55,-112,-54,-10
1512177079,0.0117,-0.0119,0.0575,63.48,41.14,943.24,-103,-49,22
1512177079,-0.0240,0.0116,0.0589,2.99,24.96,945.86,-103,-49,22
1512177079,-0.0421,0.0198,0.0543,33.51,15.01,915.28,-103,-49,22
1512177079,-0.0354,0.0008,0.0427,40.16,-60.85,911.44,-103,-49,22
1512177079,-0.0313,-0.0138,0.0350,8.12,-83.19,928.53,-124,-56,1
1512177079,-0.0273,-0.0237,0.0364,-28.87,-39.31,911.62,-124,-56,1
1512177079,-0.0438,-0.0276,0.0329,21.42,-45.47,949.65,-124,-56,1
1512177079,-0.0438,-0.0150,0.0336,31.07,-61.22,916.02,-124,-56,1
1512177079,-0.0256,0.0096,0.0314,66.96,-39.06,899.17,-124,-56,1
1512177079,-0.0093,0.0342,0.0277,49.68,-42.42,918.70,-121,-45,5
1512177079,0.0173,0.0172,0.0280,36.19,-37.72,757.39,-121,-45,5
1512177079,-0.0150,0.0158,0.0176,48.71,-70.37,877.75,-121,-45,5
1512177079,0.0033,0.0145,0.0225,25.33,-25.94,896.30,-121,-45,5
1512177079,0.0069,0.0093,0.0237,-5.43,-7.57,920.04,-121,-45,5
1512177079,0.0072,-0.0051,0.0236,-18.55,-17.21,943.54,-112,-58,-10
1512177079,0.0007,-0.0104,0.0201,15.56,-5.62,940.92,-112,-58,-10
1512177079,0.0605,-0.0759,0.0250,-24.11,12.27,966.67,-112,-58,-10
1512177079,-0.0031,-0.0511,0.0169,-6.59,3.23,973.94,-112,-58,-10
1512177079,-0.0051,-0.0354,0.0186,5.55,-8.36,896.73,-103,-45,8
1512177079,-0.0039,-0.0088,0.0172,32.29,-1.28,891.66,-103,-45,8
1512177079,-0.0213,0.0321,0.0128,42.79,6.23,916.50,-103,-45,8
1512177080,0.0017,0.0087,0.0156,68.12,29.54,961.06,-103,-45,8
1512177080,0.0016,-0.0148,0.0144,28.93,30.21,970.21,-103,-45,8
1512177080,-0.0012,-0.0068,0.0188,6.35,38.64,914.31,-105,-75,-16
1512177080,0.0129,0.0124,0.0178,1.28,45.84,857.85,-105,-75,-16
1512177080,0.0281,-0.0080,0.0265,-4.21,21.12,920.10,-105,-75,-16
1512177080,0.0254,-0.0075,0.0288,48.03,35.77,822.63,-105,-75,-16
1512177080,0.0096,-0.0027,0.0264,42.18,42.79,891.36,-105,-75,-16
1512177080,0.0003,-0.0107,0.0160,0.49,18.01,908.14,-103,-56,-8
1512177080,-0.0036,-0.0289,0.0137,18.49,30.52,932.86,-103,-56,-8
1512177080,0.0065,-0.0276,0.0119,30.82,33.57,947.27,-103,-56,-8
1512177080,0.0011,-0.0091,0.0152,46.88,51.39,960.75,-103,-56,-8
1512177080,-0.0049,-0.0092,0.0198,22.52,45.23,946.35,-108,-47,0
1512177080,0.0029,-0.0248,0.0218,26.31,56.88,920.72,-108,-47,0
1512177080,0.0113,-0.0226,0.0225,54.93,40.16,960.82,-108,-47,0
1512177080,0.0200,-0.0087,0.0202,92.59,52.55,921.81,-108,-47,0
1512177080,0.0186,-0.0188,0.0221,50.96,48.95,939.58,-108,-47,0
1512177080,0.0134,-0.0189,0.0146,63.66,65.19,885.31,-107,-77,-5
1512177080,0.0137,-0.0029,0.0051,28.63,79.28,874.76,-107,-77,-5
1512177080,0.0168,0.0224,0.0169,53.96,88.01,911.93,-107,-77,-5
1512177080,0.0091,0.0160,0.0237,32.23,57.19,918.76,-107,-77,-5
1512177080,0.0067,-0.0044,0.0141,-9.46,51.45,944.70,-107,-77,-5
1512177080,0.0084,-0.0169,-0.0650,34.30,113.16,1000.18,-100,-70,-42
1512177080,0.0157,0.0072,0.0225,-5.43,46.88,892.94,-100,-70,-42
1512177080,0.0113,0.0067,0.0233,-11.41,83.31,911.87,-100,-70,-42
1512177080,0.0127,0.0173,0.0180,-25.15,89.17,845.15,-100,-70,-42
1512177080,0.0164,0.0185,0.0192,39.31,59.39,891.30,-103,-63,-28
1512177080,0.0238,0.0119,0.0190,-0.92,100.22,868.84,-103,-63,-28
1512177080,0.0140,-0.0084,0.0240,-2.56,62.99,881.04,-103,-63,-28
1512177080,0.0085,-0.0123,0.0225,14.59,53.16,939.94,-103,-63,-28
1512177080,0.0033,-0.0108,0.0284,30.46,94.48,938.72,-103,-63,-28
1512177080,0.0073,-0.0257,0.0329,56.64,84.66,981.38,-107,-59,-35
1512177080,-0.0036,-0.0304,0.0277,57.07,67.02,923.16,-107,-59,-35
1512177080,-0.0032,-0.0302,0.0293,65.06,71.78,935.97,-107,-59,-35
1512177080,-0.0200,-0.0049,0.0252,78.92,43.76,892.46,-107,-59,-35
1512177080,-0.0253,-0.0061,0.0316,56.27,27.22,868.16,-117,-63,-38
1512177080,-0.0226,-0.0202,0.0344,85.21,50.29,905.76,-117,-63,-38
1512177080,-0.0250,-0.0172,0.0358,114.07,40.77,888.55,-117,-63,-38
1512177080,-0.0268,-0.0064,0.0403,77.58,68.66,919.92,-117,-63,-38
1512177081,-0.0369,0.0085,0.0352,115.23,27.04,915.77,-117,-63,-38
1512177081,-0.0268,0.0246,0.0418,75.26,-0.24,935.30,-117,-74,-38
1512177081,-0.0158,0.0250,0.0442,43.82,33.08,901.25,-117,-74,-38
1512177081,0.0033,0.0240,0.0418,26.12,74.04,1015.08,-117,-74,-38
1512177081,0.0019,0.0116,0.0479,-24.29,63.11,996.34,-117,-74,-38
1512177081,0.0025,0.0093,0.0494,-40.10,84.78,903.02,-117,-74,-38
1512177081,-0.0044,-0.0091,0.0445,-23.38,32.29,932.86,-121,-66,-42
1512177081,-0.0178,-0.0019,0.0246,-26.61,42.54,869.26,-121,-66,-42
1512177081,-0.0325,-0.0077,0.0407,23.62,32.84,936.16,-121,-66,-42
1512177081,-0.0322,-0.0063,0.0345,36.93,23.38,955.02,-121,-66,-42
1512177081,-0.0141,0.0031,0.0403,51.70,50.96,930.30,-122,-75,-57
1512177081,-0.0241,0.0085,0.0462,35.89,27.10,883.54,-122,-75,-57
1512177081,-0.0099,0.0145,0.0433,35.83,53.10,936.04,-122,-75,-57
1512177081,-0.0041,-0.0031,0.0470,45.04,36.74,981.93,-122,-75,-57
1512177081,0.0250,0.0095,0.0562,61.52,30.94,987.49,-122,-75,-57
1512177081,0.0177,0.0256,0.0575,98.51,32.29,929.44,-121,-63,-45
1512177081,0.0029,0.0431,0.0614,89.90,66.04,928.77,-121,-63,-45
1512177081,-0.0004,0.0409,0.0589,87.77,53.28,924.44,-121,-63,-45
1512177081,-0.0200,0.0302,0.0586,92.22,32.35,922.30,-121,-63,-45
1512177081,-0.0152,0.0158,0.0571,62.50,39.61,946.84,-121,-63,-45
1512177081,-0.0008,0.0117,0.0614,54.20,30.64,923.58,-122,-82,-54
1512177081,0.0148,0.0120,0.0662,58.65,44.13,898.62,-122,-82,-54
1512177081,0.0160,0.0257,0.0648,39.37,25.15,873.11,-122,-82,-54
1512177081,0.0174,0.0152,0.0631,22.83,37.23,860.60,-122,-82,-54
1512177081,0.0194,-0.0061,0.0635,36.68,41.44,879.39,-126,-86,-30
1512177081,0.0205,-0.0240,0.0630,16.60,9.46,899.48,-126,-86,-30
1512177081,0.0354,-0.0244,0.0712,-13.92,61.46,934.75,-126,-86,-30
1512177081,0.0353,-0.0236,0.0715,-6.96,37.84,966.37,-126,-86,-30
1512177081,0.0304,0.0108,0.0695,49.50,58.59,909.97,-126,-86,-30
1512177081,0.0103,0.0270,0.0658,51.27,20.45,929.63,-122,-58,-6
1512177081,0.0061,0.0407,0.0800,92.47,42.11,940.19,-122,-58,-6
1512177081,-0.0189,0.0103,0.0975,41.50,68.91,936.04,-122,-58,-6
1512177081,-0.0208,0.0091,0.0473,22.03,22.28,908.20,-122,-58,-6
1512177081,0.0316,0.0080,0.0578,111.63,49.93,926.15,-101,-68,-67
1512177081,0.0257,0.0248,-0.0427,100.40,64.76,906.92,-101,-68,-67
1512177081,0.0137,0.0153,0.0860,72.08,61.95,921.02,-101,-68,-67
1512177081,0.0132,0.0206,0.1077,69.15,88.81,958.68,-101,-68,-67
1512177082,0.0253,0.0153,0.0840,45.53,72.08,974.79,-101,-68,-67
1512177082,0.0368,-0.0039,0.0490,51.33,61.58,957.28,-115,-68,-60
1512177082,0.0236,0.0266,0.0682,76.35,59.02,899.05,-115,-68,-60
1512177082,0.0225,0.0411,0.0679,64.94,53.96,896.12,-115,-68,-60
1512177082,-0.0133,0.0300,0.0595,84.90,61.83,899.11,-115,-68,-60
1512177082,-0.0103,0.0107,0.0639,58.35,45.29,914.00,-115,-68,-60
1512177082,-0.0037,-0.0037,0.0728,42.97,70.62,940.49,-117,-66,-72
1512177082,0.0041,0.0015,0.0868,53.83,31.49,880.62,-117,-66,-72
1512177082,0.0134,0.0145,0.0847,57.56,50.42,831.05,-117,-66,-72
1512177082,-0.0101,-0.0061,0.0883,60.18,61.83,868.47,-117,-66,-72
1512177082,-0.0173,-0.0073,0.0999,66.89,56.95,909.48,-117,-70,-66
1512177082,-0.0178,0.0137,0.0979,89.42,51.94,897.95,-117,-70,-66
1512177082,-0.0125,0.0454,0.0983,71.35,62.38,902.28,-117,-70,-66
1512177082,-0.0156,0.0314,0.0750,110.90,83.07,993.59,-117,-70,-66
1512177082,-0.0068,0.0546,0.0843,98.08,64.33,1009.70,-117,-70,-66
1512177082,0.0087,0.0097,0.0860,73.36,75.13,989.01,-115,-72,-98
1512177082,-0.0068,-0.0735,0.0005,101.01,126.83,1048.10,-115,-72,-98
1512177082,-0.0193,-0.0129,-0.0156,69.27,51.64,915.04,-115,-72,-98
1512177082,-0.0005,-0.0213,0.0021,-81.54,134.58,888.49,-115,-72,-98
1512177082,-0.0144,0.0162,0.1244,93.14,53.22,901.12,-115,-72,-98
1512177082,-0.0028,0.0053,0.1244,126.53,49.80,894.41,-133,-65,-81
1512177082,-0.0096,0.0056,0.1218,68.48,47.97,896.18,-133,-65,-81
1512177082,0.0003,0.0198,0.1208,56.58,49.26,859.31,-133,-65,-81
1512177082,0.0164,0.0182,0.0787,60.49,77.09,945.31,-133,-65,-81
1512177082,-0.0081,-0.0602,0.1360,71.90,59.02,1028.44,-135,-63,-93
1512177082,0.0123,-0.0057,0.1430,67.93,56.40,913.70,-135,-63,-93
1512177082,0.0136,-0.0092,0.1479,83.01,39.92,935.36,-135,-63,-93
1512177082,0.0029,-0.0166,0.1485,128.78,6.71,908.26,-135,-63,-93
1512177082,0.0130,-0.0181,0.1418,167.24,77.09,899.90,-135,-63,-93
1512177082,0.0109,-0.0197,0.1593,135.68,66.28,877.69,-144,-79,-88
1512177082,0.0229,-0.0181,0.1614,88.62,103.03,990.72,-144,-79,-88
1512177082,-0.0056,-0.0133,0.1633,125.31,63.72,893.43,-144,-79,-88
1512177082,0.0269,0.0150,0.1678,134.52,33.69,880.68,-144,-79,-88
1512177082,0.0132,0.0274,0.1712,133.61,54.44,893.92,-142,-66,-86
1512177082,-0.0075,0.0149,0.1751,110.11,75.44,969.48,-142,-66,-86
1512177082,-0.0011,-0.0417,0.1442,174.93,81.12,977.78,-142,-66,-86
1512177082,-0.0338,0.0549,0.1748,122.86,74.34,917.97,-142,-66,-86
1512177082,-0.0084,0.0108,0.1778,80.32,35.64,850.59,-142,-66,-86
1512177083,0.0193,0.0029,0.1739,111.88,52.00,954.83,-151,-86,-111
1512177083,0.0158,-0.0055,0.2105,118.47,84.47,893.13,-151,-86,-111
1512177083,0.0361,-0.0007,0.1967,124.69,38.88,925.05,-151,-86,-111
1512177083,0.0032,-0.0186,0.1216,120.06,50.05,887.63,-151,-86,-111
1512177083,0.0088,-0.0212,0.2104,216.43,58.23,839.72,-151,-86,-111
1512177083,0.0015,-0.0087,0.2161,211.24,44.07,923.58,-145,-88,-69
1512177083,-0.0153,-0.0132,0.2127,220.40,54.75,874.27,-145,-88,-69
1512177083,0.0069,0.0160,0.1896,199.77,55.66,960.63,-145,-88,-69
1512177083,0.0117,-0.0253,0.2133,139.89,61.10,961.67,-145,-88,-69
1512177083,-0.0057,-0.0088,0.2254,172.91,93.02,930.42,-159,-84,-113
1512177083,-0.1052,-0.0108,0.2154,185.73,72.63,909.79,-159,-84,-113
1512177083,-0.0274,0.0091,0.2445,169.80,84.59,848.27,-159,-84,-113
1512177083,-0.1161,-0.0329,0.2441,136.35,45.10,912.90,-159,-84,-113
1512177083,0.0386,0.0132,0.2629,135.68,72.69,953.80,-159,-84,-113
1512177083,0.0397,0.0019,0.2684,135.99,57.50,940.67,-152,-88,-116
1512177083,-0.0169,-0.0108,0.2718,145.81,59.63,943.18,-152,-88,-116
1512177083,-0.0381,-0.0092,0.2802,183.90,117.61,930.66,-152,-88,-116
1512177083,-0.0573,-0.0192,0.2814,212.89,59.69,897.89,-152,-88,-116
1512177083,-0.0482,-0.0196,0.2836,162.90,77.03,921.39,-152,-88,-116
1512177083,-0.0617,-0.0305,0.2887,115.97,69.40,907.47,-140,-86,-108
1512177083,-0.0405,-0.0254,0.2888,138.85,25.51,1036.74,-140,-86,-108
1512177083,-0.0282,-0.0261,0.2973,182.25,92.35,904.72,-140,-86,-108
1512177083,-0.0390,-0.0253,0.3053,197.02,36.13,918.64,-140,-86,-108
1512177083,-0.0340,-0.0141,0.3027,186.04,55.11,900.39,-172,-96,-118
1512177083,-0.0401,-0.0076,0.2995,182.80,46.69,846.56,-172,-96,-118
1512177083,-0.0293,-0.0064,0.3125,159.97,36.19,881.16,-172,-96,-118
1512177083,-0.0389,-0.0300,0.3147,208.19,61.77,853.88,-172,-96,-118
1512177083,-0.0212,-0.0312,0.3238,228.15,12.82,880.98,-172,-96,-118
1512177083,0.0138,-0.0193,0.3390,187.87,40.71,916.26,-159,-109,-103
1512177083,0.0129,-0.0297,0.3457,186.58,73.00,876.59,-159,-109,-103
1512177083,0.0153,-0.0418,0.3422,209.59,-38.09,908.81,-159,-109,-103
1512177083,0.0205,-0.0523,0.3486,192.57,88.20,885.31,-159,-109,-103
1512177083,-0.0111,-0.0446,0.3393,238.95,26.67,925.35,-158,-118,-94
1512177083,0.0100,-0.0145,0.3338,245.42,48.03,1000.12,-158,-118,-94
1512177083,0.0016,0.0173,0.3290,239.38,41.87,946.04,-158,-118,-94
1512177083,-0.0115,0.0238,0.3357,223.27,56.52,981.93,-158,-118,-94
1512177083,-0.0092,0.0427,0.3317,220.21,37.60,1053.77,-158,-118,-94
1512177083,-0.0370,0.0469,0.3377,202.88,88.75,965.82,-159,-119,-99
1512177084,-0.0387,0.0704,0.3354,205.26,-24.11,884.95,-159,-119,-99
1512177084,-0.0550,0.0380,0.3442,173.89,85.94,815.80,-159,-119,-99
1512177084,-0.0644,-0.0156,0.3293,201.29,28.56,878.48,-159,-119,-99
1512177084,-0.0242,0.0003,0.3381,206.24,24.60,834.53,-159,-119,-99
1512177084,0.0004,0.0205,0.3425,177.80,28.69,862.37,-166,-133,-106
1512177084,-0.0055,0.0029,0.3388,131.65,14.28,875.49,-166,-133,-106
1512177084,0.0232,0.0127,0.3437,91.37,44.25,954.96,-166,-133,-106
1512177084,0.0045,0.0244,0.3414,175.72,53.16,966.80,-166,-133,-106
1512177084,0.0398,0.0586,0.3469,128.23,30.03,1034.24,-156,-123,-89
1512177084,-0.0182,0.0799,0.3320,124.39,80.99,920.90,-156,-123,-89
1512177084,-0.0622,0.0494,0.3269,185.24,95.64,946.90,-156,-123,-89
1512177084,-0.0985,0.0292,0.3261,129.94,57.25,1053.28,-156,-123,-89
1512177084,-0.1173,0.0246,0.3245,178.59,39.79,924.07,-156,-123,-89
1512177084,-0.0140,0.0535,0.3404,117.92,64.21,879.52,-163,-155,-93
1512177084,-0.0109,0.0314,0.3378,73.79,34.36,976.68,-163,-155,-93
1512177084,-0.0230,0.0282,0.3317,128.60,72.14,907.65,-163,-155,-93
1512177084,-0.0360,0.0180,0.3405,184.69,31.98,859.74,-163,-155,-93
1512177084,-0.0064,0.0316,0.3431,70.37,49.13,861.63,-163,-155,-93
1512177084,-0.0274,0.0374,0.3310,151.67,42.91,867.80,-161,-153,-84
1512177084,-0.0382,0.0277,0.3289,137.02,75.74,1002.26,-161,-153,-84
1512177084,-0.0269,0.0497,0.3337,157.41,69.95,1052.67,-161,-153,-84
1512177084,0.0049,0.0607,0.3332,178.47,36.01,988.53,-161,-153,-84
1512177084,0.0013,0.0640,0.3314,210.88,73.36,940.67,-152,-176,-106
1512177084,0.0060,0.0453,0.3278,196.90,45.41,938.23,-152,-176,-106
1512177084,0.0079,0.0483,0.3230,177.98,65.92,871.89,-152,-176,-106
1512177084,0.0007,0.0198,0.3278,156.68,53.34,851.81,-152,-176,-106
1512177084,-0.0019,-0.0035,0.3301,169.37,37.60,901.12,-152,-176,-106
1512177084,-0.0107,-0.0097,0.2874,116.82,56.15,943.18,-147,-174,-98
1512177084,-0.0097,-0.0349,0.3336,115.97,69.70,963.44,-147,-174,-98
1512177084,-0.0033,-0.0077,0.3513,194.95,51.94,908.51,-147,-174,-98
1512177084,0.0061,-0.0120,0.3603,127.50,55.54,913.76,-147,-174,-98
1512177084,-0.0276,-0.0071,0.3522,220.76,9.77,806.76,-147,-174,-98
1512177084,-0.0518,-0.0013,0.3502,212.52,47.55,856.75,-144,-188,-104
1512177084,-0.0507,-0.0021,0.3429,175.05,40.71,914.61,-144,-188,-104
1512177084,0.0265,-0.0125,0.3217,168.76,75.20,1013.92,-144,-188,-104
1512177084,-0.0065,0.0157,0.3361,173.71,37.05,899.90,-144,-188,-104
1512177084,-0.0011,-0.0108,0.3431,170.17,56.27,925.66,-152,-193,-99
1512177085,-0.0079,0.0011,0.3497,228.76,35.83,867.43,-152,-193,-99
1512177085,-0.0192,0.0079,0.3485,211.30,76.23,870.54,-152,-193,-99
1512177085,0.0116,0.0453,0.3493,194.70,42.66,954.96,-152,-193,-99
1512177085,0.0033,0.0485,0.3439,280.40,80.51,858.34,-152,-193,-99
1512177085,0.0025,0.0361,0.3449,206.48,63.11,953.06,-144,-192,-101
1512177085,0.0063,0.0369,0.3475,196.23,28.38,896.42,-144,-192,-101
1512177085,-0.0092,0.0313,0.3510,209.17,72.27,868.90,-144,-192,-101
1512177085,0.0133,0.0338,0.3493,148.07,27.59,876.89,-144,-192,-101
1512177085,0.0370,0.0477,0.3438,93.81,68.73,962.83,-145,-208,-103
1512177085,0.0491,0.0417,0.3487,105.65,46.08,952.03,-145,-208,-103
1512177085,0.0210,0.0545,0.3539,94.79,18.55,816.59,-145,-208,-103
1512177085,0.0158,0.0284,0.3526,102.48,66.65,956.60,-145,-208,-103
1512177085,0.0292,0.0393,0.3507,119.08,13.00,920.23,-145,-208,-103
1512177085,0.0350,0.0518,0.3434,51.82,39.92,955.75,-154,-199,-84
1512177085,-0.0068,0.0364,0.3344,73.73,63.54,920.59,-154,-199,-84
1512177085,0.0060,0.0302,0.3385,98.14,34.24,1041.69,-154,-199,-84
1512177085,0.0075,0.0242,0.3471,116.39,44.13,897.28,-154,-199,-84
1512177085,-0.0005,0.0264,0.3486,141.36,36.56,909.55,-154,-199,-84
1512177085,0.0072,0.0240,0.3454,125.24,41.08,913.51,-145,-239,-96
1512177085,-0.0009,0.0144,0.3426,149.66,4.58,929.08,-145,-239,-96
1512177085,0.0112,0.0137,0.3449,86.61,39.43,939.70,-145,-239,-96
1512177085,0.0055,0.0137,0.3349,149.11,8.73,939.58,-145,-239,-96
1512177085,0.0064,0.0121,0.3406,136.11,22.89,932.98,-152,-222,-96
1512177085,0.0130,0.0044,0.3427,85.02,49.13,926.57,-152,-222,-96
1512177085,0.0221,0.0120,0.3346,81.73,45.41,993.65,-152,-222,-96
1512177085,0.0120,0.0015,0.3297,127.44,25.15,967.65,-152,-222,-96
1512177085,0.0092,0.0025,0.3354,66.83,35.22,892.82,-152,-222,-96
1512177085,0.0169,0.0184,0.3334,112.00,48.71,947.33,-140,-237,-91
1512177085,0.0178,0.0249,0.3301,140.26,33.02,959.84,-140,-237,-91
1512177085,0.0069,0.0152,0.3228,101.20,51.94,920.10,-140,-237,-91
1512177085,-0.0113,0.0216,0.3226,119.63,21.18,935.73,-140,-237,-91
1512177085,0.0008,0.0322,0.3166,84.23,31.07,955.51,-140,-237,-91
1512177085,-0.0091,0.0184,0.3210,116.76,31.92,958.07,-159,-239,-89
1512177085,-0.0246,0.0100,0.3261,144.47,36.50,919.31,-159,-239,-89
1512177085,-0.0160,0.0310,0.3222,126.65,42.42,869.08,-159,-239,-89
1512177085,-0.0084,0.0370,0.3205,86.67,56.82,916.14,-159,-239,-89
1512177085,-0.0063,0.0353,0.3177,154.17,16.78,933.35,-140,-241,-101
1512177085,-0.0220,0.0064,0.3217,124.63,67.26,875.24,-140,-241,-101
1512177086,-0.0059,0.0036,0.3209,38.70,21.06,992.61,-140,-241,-101
1512177086,0.0277,0.0112,0.3169,54.32,74.28,944.40,-140,-241,-101
1512177086,-0.0092,-0.0001,0.3067,113.22,12.08,891.97,-140,-241,-101
1512177086,0.0023,0.0514,0.3151,85.21,-13.49,945.98,-142,-253,-82
1512177086,-0.0236,0.0045,0.3186,146.55,40.22,918.03,-142,-253,-82
1512177086,-0.0172,0.0021,0.3157,149.78,-3.23,940.73,-142,-253,-82
1512177086,-0.0253,-0.0025,0.3147,179.38,41.26,946.78,-142,-253,-82
1512177086,-0.0237,0.0015,0.3103,171.20,14.22,944.76,-142,-253,-82
1512177086,-0.0044,0.0152,0.3085,147.71,42.42,903.26,-131,-253,-96
1512177086,-0.0013,0.0261,0.3076,107.36,39.67,968.14,-131,-253,-96
1512177086,0.0061,0.0185,0.3068,128.72,10.50,926.39,-131,-253,-96
1512177086,0.0007,0.0190,0.3025,163.21,8.67,868.90,-131,-253,-96
1512177086,-0.0116,0.0076,0.3045,132.02,0.92,857.42,-137,-262,-101
1512177086,0.0052,0.0123,0.2995,104.74,7.26,957.64,-137,-262,-101
1512177086,0.0016,0.0162,0.3017,108.03,-7.26,941.59,-137,-262,-101
1512177086,0.0055,0.0266,0.3041,96.07,25.94,925.78,-137,-262,-101
1512177086,-0.0206,0.0130,0.2985,155.33,-4.46,877.87,-137,-262,-101
1512177086,-0.0249,0.0013,0.2952,126.28,4.03,912.66,-137,-273,-84
1512177086,-0.0137,0.0053,0.2933,152.40,-7.45,850.89,-137,-273,-84
1512177086,-0.0218,0.0007,0.2956,137.45,30.46,897.34,-137,-273,-84
1512177086,-0.0061,0.0099,0.2932,136.78,-12.88,924.26,-137,-273,-84
1512177086,-0.0093,0.0073,0.2921,114.81,18.19,925.23,-145,-285,-89
1512177086,-0.0120,0.0096,0.2892,112.85,-19.04,949.71,-145,-285,-89
1512177086,0.0093,0.0160,0.2925,74.10,25.94,897.03,-145,-285,-89
1512177086,-0.0023,0.0072,0.2927,103.33,38.39,919.68,-145,-285,-89
1512177086,0.0019,0.0101,0.2878,155.82,34.42,886.47,-145,-285,-89
1512177086,0.0033,0.0256,0.2828,148.74,70.74,892.76,-122,-290,-101
1512177086,-0.0130,0.0133,0.2787,102.42,59.02,962.40,-122,-290,-101
1512177086,0.0188,0.0272,0.2796,107.67,69.46,1014.04,-122,-290,-101
1512177086,0.0039,0.0262,0.2831,114.56,64.82,870.48,-122,-290,-101
1512177086,-0.0297,0.0001,0.2839,137.33,20.14,900.09,-122,-290,-101
1512177086,-0.0136,0.0146,0.2851,140.69,37.11,933.53,-121,-303,-113
1512177086,0.0036,0.0249,0.2876,163.27,42.54,990.23,-121,-303,-113
1512177086,-0.0105,0.0172,0.2856,171.75,42.85,860.35,-121,-303,-113
1512177086,-0.0039,0.0360,0.2830,96.44,72.75,909.30,-121,-303,-113
1512177086,0.0023,0.0333,0.2836,134.34,57.56,959.29,-114,-289,-116
1512177086,-0.0290,-0.0095,0.2720,142.70,68.66,904.72,-114,-289,-116
1512177086,0.0111,0.0035,0.2756,118.77,42.18,866.33,-114,-289,-116
1512177087,0.0146,0.0285,0.2746,86.24,84.17,1042.72,-114,-289,-116
1512177087,0.0048,0.0356,0.2728,137.63,67.08,897.28,-114,-289,-116
1512177087,-0.0085,0.0320,0.2748,101.68,58.65,865.48,-103,-313,-110
1512177087,-0.0044,0.0269,0.2385,150.15,42.42,872.56,-103,-313,-110
1512177087,-0.0237,0.0079,0.2724,151.00,38.27,871.40,-103,-313,-110
1512177087,-0.0045,0.0277,0.2698,148.56,77.70,908.33,-103,-313,-110
1512177087,0.0075,0.0181,0.2668,86.85,71.53,914.12,-103,-313,-110
1512177087,-0.0063,0.0117,0.2603,109.92,63.29,997.25,-101,-319,-108
1512177087,0.0029,0.0228,0.2312,117.13,71.35,889.53,-101,-319,-108
1512177087,-0.0083,0.0284,0.2469,69.82,47.00,889.71,-101,-319,-108
1512177087,-0.0228,0.0258,0.2467,118.04,77.45,944.21,-101,-319,-108
1512177087,-0.0459,0.0127,0.2537,118.47,60.18,898.32,-100,-310,-110
1512177087,-0.0405,0.0052,0.2421,96.98,30.58,890.75,-100,-310,-110
1512177087,-0.0434,0.0008,0.2157,152.53,91.55,881.23,-100,-310,-110
1512177087,-0.0009,0.0244,0.2585,79.47,73.30,991.46,-100,-310,-110
1512177087,0.0394,0.0522,0.1836,99.55,59.81,997.99,-100,-310,-110
1512177087,0.0016,0.0166,0.1474,105.41,83.37,912.41,-84,-319,-98
1512177087,-0.0085,0.0020,0.2527,87.46,57.56,942.26,-84,-319,-98
1512177087,0.0060,0.0153,0.2523,122.62,53.47,878.17,-84,-319,-98
1512177087,-0.0027,0.0168,0.2471,129.03,33.87,823.67,-84,-319,-98
1512177087,-0.0079,0.0245,0.2394,174.50,69.40,894.53,-84,-319,-98
1512177087,-0.0152,0.0321,0.2431,120.42,98.27,882.93,-108,-322,-101
1512177087,-0.0605,0.0124,0.2294,144.59,56.64,951.84,-108,-322,-101
1512177087,-0.0204,0.0301,0.2120,134.52,74.16,912.78,-108,-322,-101
1512177087,0.0294,0.0433,0.2021,125.31,66.53,935.97,-108,-322,-101
1512177087,0.0116,0.0305,0.2132,111.21,74.10,917.97,-101,-333,-108
1512177087,0.0077,0.0188,0.2100,119.02,91.86,963.99,-101,-333,-108
1512177087,0.0104,0.0265,0.1905,90.94,31.43,907.29,-101,-333,-108
1512177087,0.0008,0.0112,0.2043,129.09,86.36,922.79,-101,-333,-108
1512177087,0.0170,0.0152,0.1859,18.86,112.92,911.13,-101,-333,-108
1512177087,-0.0056,-0.0073,0.2306,177.61,71.47,939.09,-96,-313,-76
1512177087,-0.0105,-0.0186,0.2273,167.05,85.14,910.89,-96,-313,-76
1512177087,-0.0125,-0.0180,0.2304,139.83,47.55,879.27,-96,-313,-76
1512177087,0.0015,-0.0075,0.2288,114.07,85.08,921.02,-96,-313,-76
1512177087,-0.0076,0.0095,0.2289,113.22,92.59,934.14,-94,-312,-81
1512177087,-0.0349,0.0146,0.2201,102.66,82.82,873.78,-94,-312,-81
1512177087,-0.0165,-0.0381,0.2209,105.77,66.41,908.33,-94,-312,-81
1512177087,-0.0184,-0.0405,0.2177,72.75,77.88,883.73,-94,-312,-81
1512177088,-0.0130,-0.0142,0.2276,97.78,47.00,910.16,-94,-312,-81
1512177088,-0.0075,0.0005,0.2242,128.23,101.26,884.09,-87,-336,-101
1512177088,-0.0037,-0.0268,0.2407,145.75,78.31,933.65,-87,-336,-101
1512177088,-0.0182,0.0069,0.2377,135.80,131.65,955.44,-87,-336,-101
1512177088,-0.0278,-0.0056,0.2309,133.85,56.95,894.90,-87,-336,-101
1512177088,-0.0157,0.0027,0.2374,134.09,71.53,878.36,-87,-336,-101
1512177088,-0.0148,-0.0241,0.2362,166.93,60.67,865.84,-82,-327,-106
1512177088,0.0061,-0.0218,0.2422,129.94,81.73,891.11,-82,-327,-106
1512177088,-0.0056,-0.0297,0.2449,125.79,75.93,839.11,-82,-327,-106
1512177088,-0.0055,-0.0321,0.2459,115.30,71.11,890.44,-82,-327,-106
1512177088,-0.0108,-0.0376,0.2461,128.54,63.11,919.25,-86,-349,-93
1512177088,-0.0129,-0.0334,0.2502,99.49,54.63,943.66,-86,-349,-93
1512177088,-0.0037,-0.0150,0.2550,73.12,90.45,905.94,-86,-349,-93
1512177088,-0.0174,-0.0087,0.2470,69.82,74.58,925.11,-86,-349,-93
1512177088,-0.0222,0.0145,0.2314,65.12,67.08,911.44,-86,-349,-93
1512177088,-0.0445,0.0021,0.2386,174.01,83.86,950.74,-75,-349,-106
1512177088,0.1197,-0.0252,0.2264,182.74,52.73,945.37,-75,-349,-106
1512177088,-0.0218,0.0178,0.2434,122.56,113.65,899.23,-75,-349,-106
1512177088,-0.0092,0.0099,0.2529,130.92,73.79,952.09,-75,-349,-106
1512177088,-0.0031,0.0084,0.2545,110.05,69.76,927.55,-75,-349,-106
1512177088,0.0144,-0.0020,0.2578,88.13,94.73,974.79,-80,-354,-98
1512177088,0.0178,0.0198,0.2611,152.89,66.59,921.20,-80,-354,-98
1512177088,0.0044,0.0337,0.2597,117.31,93.87,900.51,-80,-354,-98
1512177088,-0.0083,0.0282,0.2534,149.48,77.64,901.31,-80,-354,-98
1512177088,-0.0016,0.0486,0.2563,150.33,78.49,906.56,-52,-347,-91
1512177088,-0.0092,0.0537,0.2575,182.86,67.93,835.39,-52,-347,-91
1512177088,-0.0011,0.0647,0.2586,177.67,70.56,889.16,-52,-347,-91
1512177088,-0.0095,0.0382,0.2618,150.27,78.06,899.96,-52,-347,-91
1512177088,0.0007,0.0330,0.2657,142.58,72.51,915.89,-52,-347,-91
1512177088,0.0130,0.0368,0.2760,125.85,95.46,934.51,-54,-352,-110
1512177088,0.0244,0.0337,0.2815,69.58,72.51,930.18,-54,-352,-110
1512177088,0.0208,0.0264,0.2794,98.69,109.86,932.13,-54,-352,-110
1512177088,0.0060,0.0220,0.2820,119.93,72.57,986.15,-54,-352,-110
1512177088,0.0107,0.0193,0.2790,116.27,94.73,917.18,-54,-352,-110
1512177088,-0.0111,0.0244,0.2844,78.86,108.34,920.10,-66,-343,-67
1512177088,-0.0039,0.0298,0.2810,90.09,78.80,968.38,-66,-343,-67
1512177088,0.0008,0.0535,0.2794,102.72,78.98,935.18,-66,-343,-67
1512177089,-0.0037,0.0716,0.2852,130.13,40.77,890.08,-66,-343,-67
1512177089,0.0447,-0.0172,0.3017,84.66,98.75,948.79,-35,-371,-101
1512177089,0.0123,0.0071,0.2876,98.57,112.79,965.33,-35,-371,-101
1512177089,0.0146,-0.0162,0.3027,87.52,82.76,892.15,-35,-371,-101
1512177089,0.0301,-0.0312,0.3025,95.46,57.37,930.60,-35,-371,-101
1512177089,0.0350,-0.0162,0.3060,92.53,60.00,919.49,-35,-371,-101
1512177089,0.0092,0.0004,0.3040,118.53,34.12,905.03,-40,-352,-82
1512177089,-0.0003,-0.0181,0.3025,124.82,37.05,910.83,-40,-352,-82
1512177089,-0.0149,-0.0280,0.3095,153.50,42.60,940.86,-40,-352,-82
1512177089,-0.0128,-0.0246,0.3120,144.65,36.93,915.04,-40,-352,-82
1512177089,0.0079,-0.0060,0.3180,130.19,93.63,947.94,-29,-363,-69
1512177089,0.0341,-0.0325,0.3172,110.78,-4.82,867.07,-29,-363,-69
1512177089,0.0084,0.0043,0.3127,137.94,42.60,858.83,-29,-363,-69
1512177089,-0.0061,-0.0204,0.3043,144.53,38.57,902.83,-29,-363,-69
1512177089,-0.0111,-0.0230,0.2929,145.14,41.93,895.02,-29,-363,-69
1512177089,-0.0021,-0.0181,0.3084,126.28,26.12,970.52,-29,-384,-66
1512177089,0.0346,0.0008,0.3184,135.38,29.17,958.25,-29,-384,-66
1512177089,0.0398,0.0064,0.3217,137.27,14.04,910.77,-29,-384,-66
1512177089,0.0427,0.0174,0.3210,118.23,25.76,869.51,-29,-384,-66
1512177089,0.0240,0.0057,0.3181,119.14,21.18,938.11,-29,-384,-66
1512177089,0.0013,-0.0146,0.3186,154.42,13.37,874.51,-36,-356,-69
1512177089,0.0120,-0.0189,0.3253,106.93,31.07,927.55,-36,-356,-69
1512177089,0.0182,-0.0201,0.3260,61.52,29.48,940.12,-36,-356,-69
1512177089,0.0338,0.0063,0.3274,64.09,35.34,952.03,-36,-356,-69
1512177089,0.0258,0.0125,0.3250,69.21,33.57,965.70,-15,-373,-69
1512177089,0.0158,0.0234,0.3218,106.02,58.72,986.88,-15,-373,-69
1512177089,-0.0036,0.0349,0.3147,156.80,85.08,979.98,-15,-373,-69
1512177089,-0.0067,0.0617,0.3084,134.22,108.22,980.83,-15,-373,-69
1512177089,-0.0225,0.0858,0.3005,134.40,67.14,1007.32,-15,-373,-69
1512177089,-0.0346,0.0967,0.2996,175.96,52.31,923.58,-8,-380,-79
1512177089,-0.0684,0.0676,0.3080,178.47,1.83,920.84,-8,-380,-79
1512177089,-0.1414,0.0113,0.3111,116.27,1.83,787.41,-8,-380,-79
1512177089,-0.1566,-0.0220,0.3214,83.92,-0.49,792.24,-8,-380,-79
1512177089,0.0883,-0.0087,0.3169,65.06,-13.37,881.59,-8,-380,-79
1512177089,0.1060,-0.0119,0.3376,16.66,-36.80,884.16,3,-386,-81
1512177089,0.0933,0.0011,0.3614,47.61,-14.89,916.69,3,-386,-81
1512177089,0.0466,0.0005,0.3418,44.80,-42.48,915.71,3,-386,-81
1512177089,0.0526,-0.0121,0.3270,79.65,2.01,935.42,3,-386,-81
1512177090,0.0212,-0.0407,0.3201,114.14,19.78,991.15,1,-373,-62
1512177090,-0.0089,-0.0446,0.3186,130.43,24.35,971.98,1,-373,-62
1512177090,-0.0079,-0.0784,0.3192,174.80,0.98,971.25,1,-373,-62
1512177090,-0.0182,-0.0630,0.3249,135.93,-22.77,899.05,1,-373,-62
1512177090,0.0027,-0.0361,0.3334,77.33,-8.12,881.41,1,-373,-62
1512177090,-0.0268,-0.0156,0.3304,169.43,-8.18,924.62,14,-389,-60
1512177090,-0.0222,-0.0609,0.3352,149.48,-45.59,927.92,14,-389,-60
1512177090,-0.0252,-0.0662,0.3225,156.43,9.58,863.59,14,-389,-60
1512177090,-0.0193,-0.0611,0.3369,175.35,-22.09,882.87,14,-389,-60
1512177090,-0.0012,-0.0449,0.3447,149.84,-17.33,943.73,14,-389,-60
1512177090,0.0166,-0.0329,0.3526,225.59,-49.80,931.95,29,-391,-79
1512177090,0.0332,-0.0313,0.3533,156.19,-25.09,950.56,29,-391,-79
1512177090,0.0193,-0.0326,0.3491,223.57,-35.46,920.23,29,-391,-79
1512177090,-0.0009,-0.0455,0.3426,195.98,-47.79,914.92,29,-391,-79
1512177090,-0.0168,-0.0426,0.3413,174.74,-35.71,930.24,45,-400,-84
1512177090,0.0945,-0.0517,0.3362,187.32,-23.56,978.15,45,-400,-84
1512177090,0.0246,-0.0072,0.3486,166.63,4.33,951.60,45,-400,-84
1512177090,0.0324,0.0109,0.3511,192.57,-20.75,964.29,45,-400,-84
1512177090,0.0124,0.0057,0.3581,124.51,-16.97,919.01,45,-400,-84
1512177090,-0.0124,-0.0011,0.3617,174.38,-48.77,888.12,42,-400,-81
1512177090,-0.0016,-0.0091,0.3674,201.66,-6.29,894.65,42,-400,-81
1512177090,-0.0146,-0.0117,0.3658,216.67,-7.93,877.87,42,-400,-81
1512177090,-0.0033,-0.0154,0.3614,223.33,-24.23,929.63,42,-400,-81
1512177090,0.0007,-0.0073,0.3756,195.80,5.80,855.41,52,-393,-77
1512177090,0.0012,0.0025,0.3724,203.31,-31.74,923.95,52,-393,-77
1512177090,0.0162,0.0016,0.3743,212.40,16.72,973.14,52,-393,-77
1512177090,0.0212,-0.0049,0.3724,177.37,-57.62,977.60,52,-393,-77
1512177090,0.0292,0.0158,0.3751,238.95,11.41,919.01,52,-393,-77
1512177090,0.0256,0.0265,0.3695,262.15,-28.50,950.44,61,-394,-66
1512177090,0.0173,0.0326,0.3669,274.72,-11.54,891.17,61,-394,-66
1512177090,0.0123,0.0258,0.3645,228.45,5.07,929.44,61,-394,-66
1512177090,0.0288,0.0387,0.3619,222.23,30.27,980.10,61,-394,-66
1512177090,0.0617,0.0728,0.3538,189.27,19.47,885.38,61,-394,-66
1512177090,0.0634,0.1100,0.3510,181.15,0.98,1020.81,80,-400,-88
1512177090,0.0663,0.1233,0.3562,203.31,16.85,882.14,80,-400,-88
1512177090,0.0591,0.1146,0.3599,117.49,-0.98,834.35,80,-400,-88
1512177090,0.0310,0.0703,0.3637,157.10,-10.68,858.22,80,-400,-88
1512177090,-0.0123,0.0076,0.3707,141.54,-31.49,797.30,94,-400,-88
1512177091,0.0037,-0.0132,0.3782,101.38,-24.78,903.26,94,-400,-88
1512177091,-0.0364,-0.0284,0.3874,120.61,-7.69,953.00,94,-400,-88
1512177091,-0.0531,-0.0089,0.3933,94.85,-47.55,880.00,94,-400,-88
1512177091,-0.0499,-0.0180,0.3828,229.98,-30.09,854.49,94,-400,-88
1512177091,-0.0431,-0.0116,0.3790,206.24,-19.17,926.39,86,-394,-69
1512177091,-0.0282,0.0354,0.3676,160.89,6.10,990.23,86,-394,-69
1512177091,-0.0085,0.0115,0.3591,181.09,-12.15,921.57,86,-394,-69
1512177091,-0.0041,0.0105,0.3412,145.39,-35.83,940.49,86,-394,-69
1512177091,0.0238,-0.0041,0.3348,171.87,2.14,1051.33,86,-394,-69
1512177091,-0.0276,-0.0273,0.3426,167.11,-25.94,966.92,101,-386,-64
1512177091,-0.0409,-0.0045,0.3506,207.34,-48.58,919.74,101,-386,-64
1512177091,-0.0096,-0.0144,0.3731,191.22,-33.20,930.05,101,-386,-64
1512177091,0.0031,-0.0081,0.3707,223.57,-20.20,938.84,101,-386,-64
1512177091,-0.0032,-0.0023,0.3630,221.86,-28.81,893.68,117,-391,-66
1512177091,-0.0442,0.0407,0.3511,198.79,-21.67,909.24,117,-391,-66
1512177091,-0.0398,0.0190,0.3450,185.85,-78.67,1021.91,117,-391,-66
1512177091,-0.0326,0.0300,0.3390,152.04,-46.69,885.80,117,-391,-66
1512177091,-0.0113,0.0418,0.3404,92.29,-86.67,916.38,117,-391,-66
1512177091,-0.0272,-0.0060,0.3304,168.40,-73.73,946.35,130,-379,-74
1512177091,-0.0241,-0.0377,0.3328,117.49,-15.08,952.39,130,-379,-74
1512177091,-0.0345,-0.0180,0.3298,114.56,-107.60,1003.78,130,-379,-74
1512177091,0.0104,0.0053,0.3447,106.99,-40.71,943.60,130,-379,-74
1512177091,0.0105,0.0092,0.3431,147.09,-84.35,890.62,138,-373,-52
1512177091,-0.0099,-0.0087,0.3200,204.96,-78.67,852.84,138,-373,-52
1512177091,-0.0241,-0.0109,0.3081,205.20,-77.76,914.55,138,-373,-52
1512177091,-0.0381,-0.0240,0.2949,207.34,-57.07,908.14,138,-373,-52
1512177091,-0.0256,-0.0254,0.2867,200.93,-67.63,954.65,138,-373,-52
1512177091,-0.0069,0.0222,0.2792,218.02,-74.34,851.20,131,-387,-79
1512177091,-0.0097,0.0202,0.2904,226.81,-69.09,907.29,131,-387,-79
1512177091,-0.0274,0.0149,0.2736,221.98,-62.07,934.39,131,-387,-79
1512177091,-0.0312,0.0136,0.2834,217.47,-42.91,968.57,131,-387,-79
1512177091,-0.0282,0.0052,0.2871,148.32,-117.68,965.27,131,-387,-79
1512177091,0.0124,0.0314,0.2890,139.65,-51.15,905.82,121,-380,-86
1512177091,0.0056,0.0411,0.2891,172.18,-84.90,922.97,121,-380,-86
1512177091,-0.0076,0.0458,0.2727,188.96,-99.43,925.96,121,-380,-86
1512177091,-0.0176,0.0445,0.2680,185.67,-71.84,911.62,121,-380,-86
1512177091,-0.0214,0.0517,0.2626,186.52,-106.69,920.84,144,-364,-60
1512177091,-0.0119,0.0482,0.2565,189.76,-72.08,903.63,144,-364,-60
1512177092,-0.0242,0.0233,0.2514,158.87,-103.21,957.58,144,-364,-60
1512177092,-0.0220,0.0333,0.2437,186.16,-142.15,928.71,144,-364,-60
1512177092,-0.0386,0.0457,0.2388,171.26,-92.96,887.88,144,-364,-60
1512177092,-0.0148,0.0659,0.2370,146.73,-82.28,976.62,161,-364,-54
1512177092,0.0005,0.0875,0.2245,152.28,-71.84,961.49,161,-364,-54
1512177092,-0.0176,0.0815,0.2208,173.52,-75.68,903.14,161,-364,-54
1512177092,-0.0229,0.0551,0.2121,187.56,-130.62,906.07,161,-364,-54
1512177092,-0.0172,0.0390,0.2013,151.00,-104.92,871.77,161,-364,-54
1512177092,-0.0188,0.0474,0.1984,86.18,-77.94,952.94,156,-338,-42
1512177092,-0.0173,0.0621,0.1908,105.16,-75.26,996.58,156,-338,-42
1512177092,-0.0121,0.0509,0.1835,96.68,-88.87,994.32,156,-338,-42
1512177092,-0.0170,0.0467,0.1774,105.22,-84.17,973.75,156,-338,-42
1512177092,-0.0077,0.0445,0.1739,121.70,-103.21,1014.65,161,-340,-54
1512177092,0.0047,0.0609,0.1683,111.94,-65.55,974.49,161,-340,-54
1512177092,-0.0072,0.0598,0.1561,148.50,-97.29,919.13,161,-340,-54
1512177092,-0.0100,0.0566,0.1554,112.30,-80.57,911.38,161,-340,-54
1512177092,-0.0093,0.0495,0.1491,101.44,-86.91,897.58,161,-340,-54
1512177092,-0.0119,0.0419,0.1406,103.76,-105.96,945.86,168,-336,-40
1512177092,-0.0133,0.0321,0.1344,93.51,-89.97,883.97,168,-336,-40
1512177092,-0.0130,0.0049,0.1333,124.63,-67.08,925.35,168,-336,-40
1512177092,-0.0043,0.0141,0.1234,117.25,-85.88,966.31,168,-336,-40
1512177092,-0.0035,0.0130,0.1165,106.51,-77.21,915.16,168,-336,-40
1512177092,-0.0152,0.0142,0.1136,99.43,-101.44,934.88,154,-333,-27
1512177092,-0.0168,0.0136,0.1023,118.77,-115.84,874.94,154,-333,-27
1512177092,-0.0234,0.0035,0.0981,133.79,-75.62,926.51,154,-333,-27
1512177092,-0.0229,0.0168,0.0912,122.07,-106.99,925.48,154,-333,-27
1512177092,-0.0212,0.0262,0.0909,107.85,-65.19,916.81,179,-336,-40
1512177092,-0.0233,0.0332,0.0835,61.46,-102.91,984.01,179,-336,-40
1512177092,-0.0443,0.0427,0.0806,56.03,-66.41,916.08,179,-336,-40
1512177092,-0.0326,-0.0313,0.0735,69.58,-122.62,943.97,179,-336,-40
1512177092,-0.0109,0.0325,0.0732,49.93,-69.52,919.19,179,-336,-40
1512177092,-0.0244,0.0358,0.0654,47.18,-113.83,838.07,182,-343,-37
1512177092,-0.0172,0.0622,0.0597,114.87,-80.63,932.56,182,-343,-37
1512177092,-0.0402,0.0467,0.0565,144.59,-91.92,842.10,182,-343,-37
1512177092,-0.0310,0.0080,0.0523,101.07,-79.16,950.44,182,-343,-37
1512177092,-0.0182,0.0350,0.0474,87.34,-59.08,960.51,177,-334,-32
1512177092,-0.0265,0.0431,0.0443,51.39,-104.25,942.63,177,-334,-32
1512177093,-0.0276,0.0471,0.0322,57.98,-108.15,899.78,177,-334,-32
1512177093,-0.0160,0.0547,0.0260,31.01,-78.80,944.89,177,-334,-32
1512177093,-0.0264,0.0465,0.0145,55.42,-116.33,953.49,177,-334,-32
1512177093,-0.0213,0.0503,0.0081,32.71,-82.76,953.67,188,-320,-38
1512177093,-0.0277,0.0345,-0.0049,7.51,-112.92,905.09,188,-320,-38
1512177093,-0.0165,0.0244,-0.0019,-1.89,-114.26,933.11,188,-320,-38
1512177093,-0.0256,0.0498,-0.0096,36.87,-66.59,908.20,188,-320,-38
1512177093,-0.0212,0.0458,-0.0028,10.50,-105.29,997.01,188,-320,-38
1512177093,-0.0246,0.0354,-0.0039,65.80,-106.51,933.90,172,-336,-27
1512177093,-0.0282,0.0312,-0.0083,-25.51,-59.63,913.15,172,-336,-27
1512177093,-0.0328,0.0256,-0.0103,17.82,-71.59,940.19,172,-336,-27
1512177093,-0.0212,0.0185,-0.0137,13.31,-49.50,937.32,172,-336,-27
1512177093,-0.0132,0.0316,-0.0162,30.46,-73.00,875.18,168,-333,-54
1512177093,0.0036,0.0168,-0.0185,21.55,-78.86,978.76,168,-333,-54
1512177093,0.0248,0.0003,-0.0150,65.12,-37.60,954.16,168,-333,-54
1512177093,0.0200,0.0025,-0.0217,-31.07,-171.87,915.83,168,-333,-54
1512177093,0.0040,-0.0071,-0.0272,74.77,-38.33,703.12,168,-333,-54
1512177093,-0.0268,-0.0152,-0.0200,17.88,-166.87,952.64,166,-324,-45
1512177093,0.0029,-0.0107,-0.0269,68.36,-30.21,1003.17,166,-324,-45
1512177093,-0.0012,0.0099,-0.0365,84.05,-112.67,898.62,166,-324,-45
1512177093,0.0210,0.0438,-0.0459,-77.39,-173.89,1037.41,166,-324,-45
1512177093,0.0462,0.0352,-0.0451,-44.98,-37.41,899.60,166,-324,-45
1512177093,0.0164,0.0092,-0.0418,-45.35,-120.54,989.14,170,-320,-49
1512177093,0.0403,0.0196,-0.0427,-5.07,-90.33,927.67,170,-320,-49
1512177093,0.0172,-0.0130,-0.0413,3.48,-87.46,913.02,170,-320,-49
1512177093,0.0233,-0.0005,-0.0478,-23.93,-107.30,894.71,170,-320,-49
1512177093,0.0174,-0.0047,-0.0527,47.67,-75.01,884.95,182,-329,-50
1512177093,0.0101,-0.0116,-0.0595,29.48,-84.11,911.13,182,-329,-50
1512177093,0.0233,0.0040,-0.0639,87.83,-83.74,868.84,182,-329,-50
1512177093,0.0390,0.0377,-0.0643,91.86,-49.93,885.07,182,-329,-50
1512177093,0.0261,0.0325,-0.0634,56.46,-77.39,931.40,182,-329,-50
1512177093,0.0346,0.0253,-0.0642,79.10,-96.31,918.82,166,-338,-59
1512177093,0.0324,0.0230,-0.0617,-10.93,-44.62,869.26,166,-338,-59
1512177093,0.0209,0.0115,-0.0642,32.23,-93.93,907.71,166,-338,-59
1512177093,0.0264,0.0040,-0.0606,13.18,-43.09,922.79,166,-338,-59
1512177093,0.0213,-0.0021,-0.0553,39.67,-20.69,934.45,166,-338,-59
1512177093,0.0365,-0.0101,-0.0495,-13.18,10.93,926.15,170,-334,-42
1512177093,0.0201,0.0023,-0.0441,-5.07,11.11,888.12,170,-334,-42
1512177094,0.0234,0.0092,-0.0447,-43.95,-14.59,874.57,170,-334,-42
1512177094,0.0221,-0.0047,-0.0774,-50.48,-78.31,903.08,170,-334,-42
1512177094,0.0345,-0.0085,-0.0782,-2.75,-93.38,870.24,152,-334,-76
1512177094,0.0296,0.0055,-0.0856,-9.58,-80.57,845.52,152,-334,-76
1512177094,0.0212,-0.0021,-0.0798,8.12,-44.31,910.77,152,-334,-76
1512177094,0.0348,0.0149,-0.0752,5.49,-5.19,937.07,152,-334,-76
1512177094,0.0382,0.0305,-0.0840,27.59,-21.42,937.99,152,-334,-76
1512177094,0.0391,0.0080,-0.0779,5.49,-18.74,939.27,149,-334,-55
1512177094,0.0208,0.0206,-0.0836,3.17,-24.11,893.31,149,-334,-55
1512177094,0.0383,-0.0005,-0.0889,-40.47,-2.20,968.08,149,-334,-55
1512177094,0.0485,-0.0044,-0.0883,25.63,-8.42,916.50,149,-334,-55
1512177094,0.0526,-0.0170,-0.0888,-25.76,-4.94,918.09,149,-352,-66
1512177094,0.0443,-0.0121,-0.0917,2.87,-0.18,908.75,149,-352,-66
1512177094,0.0320,-0.0238,-0.0876,-2.26,5.43,946.41,149,-352,-66
1512177094,0.0449,-0.0172,-0.0879,0.73,25.45,917.72,149,-352,-66
1512177094,0.0406,-0.0181,-0.0835,-0.55,6.59,935.55,149,-352,-66
1512177094,0.0487,-0.0152,-0.0867,-24.35,-41.20,894.71,156,-331,-69
1512177094,0.0333,-0.0146,-0.0864,19.71,0.98,955.38,156,-331,-69
1512177094,0.0318,-0.0115,-0.0832,29.36,26.67,861.94,156,-331,-69
1512177094,0.0210,-0.0099,-0.0875,-6.59,5.80,878.30,156,-331,-69
1512177094,0.0160,-0.0274,-0.0878,4.21,3.66,877.20,156,-331,-69
1512177094,0.0028,-0.0530,-0.0957,41.02,29.72,964.66,159,-356,-86
1512177094,0.0210,-0.0264,-0.0875,12.33,5.62,920.41,159,-356,-86
1512177094,0.0213,-0.0238,-0.0880,34.79,-20.26,899.78,159,-356,-86
1512177094,0.0220,-0.0182,-0.0872,10.99,41.44,905.46,159,-356,-86
1512177094,0.0092,-0.0160,-0.0895,-49.50,35.16,957.28,149,-345,-86
1512177094,0.0385,0.0001,-0.0912,0.18,45.72,889.47,149,-345,-86
1512177094,0.0168,0.0052,-0.0925,23.01,10.93,907.59,149,-345,-86
1512177094,0.0092,-0.0100,-0.0971,21.85,-9.95,899.60,149,-345,-86
1512177094,0.0031,-0.0185,-0.0965,18.86,48.34,921.26,149,-345,-86
1512177094,0.0043,-0.0210,-0.0929,27.53,-6.04,910.28,151,-357,-74
1512177094,0.0192,-0.0137,-0.0854,-10.56,-2.26,885.62,151,-357,-74
1512177094,0.0201,-0.0068,-0.0863,14.53,44.01,865.36,151,-357,-74
1512177094,0.0116,-0.0129,-0.0858,13.49,33.39,921.26,151,-357,-74
1512177094,-0.0040,-0.0246,-0.0903,8.24,22.03,913.02,151,-357,-74
1512177094,0.0134,-0.0204,-0.0864,22.77,41.69,911.74,135,-356,-82
1512177094,0.0268,-0.0246,-0.0903,17.70,4.46,908.33,135,-356,-82
1512177094,0.0170,-0.0178,-0.0919,3.72,29.36,879.39,135,-356,-82
1512177095,-0.0031,-0.0181,-0.0957,-21.67,11.35,852.17,135,-356,-82
1512177095,-0.0017,-0.0294,-0.0971,18.13,-12.63,947.20,145,-359,-82
1512177095,0.0320,-0.0081,-0.0927,9.16,29.91,879.03,145,-359,-82
1512177095,0.0190,-0.0125,-0.0952,-22.77,-33.33,932.92,145,-359,-82
1512177095,0.0320,-0.0304,-0.0928,-8.24,22.52,965.21,145,-359,-82
1512177095,0.0182,-0.0377,-0.0893,-2.20,66.28,935.42,145,-359,-82
1512177095,0.0362,-0.0180,-0.0971,-54.08,46.51,948.79,124,-356,-66
1512177095,0.0328,-0.0282,-0.1056,-82.21,42.36,930.85,124,-356,-66
1512177095,0.0156,-0.0487,-0.1063,-60.18,73.73,958.68,124,-356,-66
1512177095,0.0133,-0.0517,-0.0977,-1.83,6.65,989.81,124,-356,-66
1512177095,0.0266,-0.0233,-0.1031,-53.71,56.40,959.29,124,-356,-66
1512177095,0.0033,-0.0103,-0.1055,-10.44,69.64,968.26,126,-350,-47
1512177095,-0.0242,0.0051,-0.1093,65.12,35.89,974.73,126,-350,-47
1512177095,-0.0394,0.0049,-0.1149,35.16,74.89,961.67,126,-350,-47
1512177095,-0.0005,-0.0190,-0.1181,-38.09,39.67,968.02,126,-350,-47
1512177095,-0.0178,0.0075,-0.1294,-24.84,20.94,859.68,128,-352,-42
1512177095,-0.0036,-0.0021,-0.1237,-50.42,49.19,911.87,128,-352,-42
1512177095,0.0190,-0.0041,-0.1242,-16.97,38.02,859.50,128,-352,-42
1512177095,0.0148,-0.0238,-0.1234,-71.04,39.49,862.73,128,-352,-42
1512177095,0.0222,-0.0374,-0.1274,-27.16,26.92,933.35,128,-352,-42
1512177095,0.0185,-0.0165,-0.1300,-23.80,26.43,851.14,140,-350,-23
1512177095,-0.0221,-0.0240,-0.1348,-8.85,56.03,908.33,140,-350,-23
1512177095,-0.0100,-0.0129,-0.1381,17.03,18.31,891.17,140,-350,-23
1512177095,-0.0326,-0.0120,-0.1443,11.96,53.96,913.76,140,-350,-23
1512177095,-0.0229,-0.0150,-0.1475,-23.32,22.89,943.66,140,-350,-23
1512177095,-0.0232,-0.0024,-0.1466,-8.30,14.34,910.77,170,-342,-49
1512177095,-0.0100,-0.0113,-0.1581,-28.20,53.47,986.02,170,-342,-49
1512177095,-0.0111,0.0065,-0.1519,-10.50,22.03,867.92,170,-342,-49
1512177095,-0.0008,-0.0085,-0.1555,-18.86,25.76,929.20,170,-342,-49
1512177095,0.0029,-0.0449,-0.1467,-27.28,5.13,927.06,159,-359,-55
1512177095,0.0162,-0.0430,-0.1397,-26.00,31.56,907.10,159,-359,-55
1512177095,0.0228,-0.0157,-0.1486,-20.02,36.38,899.78,159,-359,-55
1512177095,0.0360,-0.0031,-0.1587,34.48,40.65,969.18,159,-359,-55
1512177095,-0.0035,-0.0035,-0.1538,13.49,-8.36,935.73,159,-359,-55
1512177095,0.0394,0.0013,-0.1601,-27.34,83.56,995.24,149,-349,-59
1512177095,0.0385,0.0107,-0.1609,-9.16,26.73,920.17,149,-349,-59
1512177095,0.0218,0.0306,-0.1742,20.63,64.51,907.29,149,-349,-59
1512177095,-0.0192,-0.0059,-0.1635,-23.07,21.61,889.53,149,-349,-59
1512177096,-0.0003,-0.0063,-0.1527,-35.16,70.01,889.83,149,-349,-59
1512177096,-0.0290,-0.0668,-0.1333,-56.52,27.10,866.58,140,-357,-84
1512177096,0.0007,-0.0529,-0.1297,-59.02,59.81,939.39,140,-357,-84
1512177096,0.0253,-0.0105,-0.1434,-36.19,70.31,952.21,140,-357,-84
1512177096,0.0341,0.0017,-0.1429,-35.58,72.33,939.09,140,-357,-84
1512177096,0.0124,-0.0029,-0.1514,9.09,26.61,907.71,126,-357,-67
1512177096,0.0127,-0.0016,-0.1486,-57.56,47.61,887.08,126,-357,-67
1512177096,-0.0499,-0.0007,-0.1646,-7.26,78.25,893.74,126,-357,-67
1512177096,-0.0302,-0.0332,-0.1756,-44.43,39.25,953.49,126,-357,-67
1512177096,-0.0257,-0.0117,-0.1672,-23.93,66.53,927.92,126,-357,-67
1512177096,-0.0024,0.0015,-0.1732,-35.58,59.14,891.72,128,-359,-89
1512177096,-0.0133,0.0043,-0.1796,-35.71,58.53,878.72,128,-359,-89
1512177096,-0.0107,-0.0130,-0.1750,-86.79,74.95,932.19,128,-359,-89
1512177096,0.0168,-0.0120,-0.1722,-50.29,47.24,858.52,128,-359,-89
1512177096,0.0205,-0.0084,-0.1759,-67.81,76.78,893.43,128,-359,-89
1512177096,0.0132,-0.0039,-0.1802,-8.67,77.15,973.14,115,-357,-67
1512177096,0.0180,0.0169,-0.1842,-12.51,79.16,955.44,115,-357,-67
1512177096,0.0246,0.0152,-0.1882,-9.40,50.23,902.28,115,-357,-67
1512177096,-0.0297,0.0079,-0.2091,-4.64,107.06,948.91,115,-357,-67
1512177096,-0.0273,0.0101,-0.2025,-16.05,76.23,982.60,114,-356,-72
1512177096,-0.0189,0.0129,-0.2060,-18.68,48.83,959.53,114,-356,-72
1512177096,-0.0008,0.0104,-0.2028,-44.86,66.10,1004.76,114,-356,-72
1512177096,0.0055,0.0109,-0.2112,-47.73,67.08,996.95,114,-356,-72
1512177096,-0.0060,-0.0007,-0.2085,-86.06,78.55,935.12,114,-356,-72
1512177096,0.0004,0.0121,-0.2156,-72.69,100.04,937.13,101,-357,-60
1512177096,-0.0273,-0.0041,-0.2198,-29.30,59.81,900.09,101,-357,-60
1512177096,-0.0308,-0.0057,-0.2140,-0.37,75.26,924.93,101,-357,-60
1512177096,-0.0055,-0.0021,-0.2218,-29.54,68.66,950.81,101,-357,-60
1512177096,0.0196,-0.0067,-0.2116,-49.26,31.13,895.08,101,-357,-60
1512177096,-0.0569,-0.0047,-0.2322,-28.02,27.16,879.15,112,-347,-71
1512177096,-0.0325,-0.0087,-0.2414,-37.17,84.96,903.44,112,-347,-71
1512177096,-0.0252,-0.0112,-0.2439,-33.51,55.60,886.11,112,-347,-71
1512177096,-0.0111,-0.0069,-0.2461,-36.80,101.32,934.88,112,-347,-71
1512177096,-0.0427,-0.0079,-0.2454,-55.18,36.87,901.49,101,-354,-54
1512177096,-0.0357,-0.0068,-0.2559,-37.11,78.43,970.40,101,-354,-54
1512177096,-0.0550,-0.0052,-0.2567,-70.37,52.31,916.99,101,-354,-54
1512177096,-0.0489,0.0035,-0.2558,-51.39,52.25,919.01,101,-354,-54
1512177096,-0.0477,0.0005,-0.2510,-81.54,84.17,946.17,101,-354,-54
1512177097,-0.0302,0.0144,-0.2585,-70.80,51.45,960.69,89,-377,-59
1512177097,-0.0276,0.0382,-0.2670,-25.15,53.65,970.58,89,-377,-59
1512177097,-0.0289,0.0373,-0.2634,-30.15,51.51,909.30,89,-377,-59
1512177097,-0.0510,0.0234,-0.2635,-43.88,50.17,910.03,89,-377,-59
1512177097,-0.0330,0.0274,-0.2641,-75.01,49.01,937.44,87,-364,-81
1512177097,-0.0206,0.0206,-0.2630,-96.74,40.53,954.16,87,-364,-81
1512177097,0.0378,0.0236,-0.2635,-100.89,48.52,928.10,87,-364,-81
1512177097,0.0272,0.0206,-0.2645,-86.24,65.06,981.99,87,-364,-81
1512177097,0.0245,0.0048,-0.2597,-56.34,53.04,929.93,87,-364,-81
1512177097,-0.0013,-0.0064,-0.2570,-74.83,65.31,906.31,77,-361,-60
1512177097,0.0055,-0.0173,-0.2638,-111.02,76.42,951.05,77,-361,-60
1512177097,-0.0053,-0.0269,-0.2567,-90.03,74.10,980.22,77,-361,-60
1512177097,0.0293,-0.0005,-0.2598,-100.65,54.93,941.41,77,-361,-60
1512177097,0.0081,0.0192,-0.2518,-70.31,18.25,873.29,77,-361,-60
1512177097,-0.0525,0.0249,-0.2627,-88.20,25.94,892.64,70,-361,-47
1512177097,-0.0181,-0.0361,-0.2562,-38.15,42.30,957.95,70,-361,-47
1512177097,-0.0294,-0.0129,-0.2618,-96.56,37.11,889.89,70,-361,-47
1512177097,0.0039,-0.0156,-0.2603,-55.97,75.44,959.11,70,-361,-47
1512177097,0.0197,0.0001,-0.2534,-75.62,32.78,940.19,72,-373,-72
1512177097,0.0065,0.0021,-0.2542,-39.79,62.68,939.76,72,-373,-72
1512177097,0.0037,0.0083,-0.2514,-123.41,37.11,947.02,72,-373,-72
1512177097,0.0084,0.0124,-0.2666,-109.56,63.96,902.53,72,-373,-72
1512177097,-0.0108,0.0032,-0.2601,-85.69,59.51,907.35,72,-373,-72
1512177097,-0.0348,-0.0136,-0.2657,-103.21,10.74,929.87,61,-349,-59
1512177097,-0.0083,-0.0092,-0.2581,-88.13,35.10,892.58,61,-349,-59
1512177097,0.0068,0.0144,-0.2534,-82.58,44.19,924.38,61,-349,-59
1512177097,0.0226,0.0117,-0.2599,-43.46,64.15,916.26,61,-349,-59
1512177097,0.0104,0.0190,-0.2550,-73.49,9.22,875.31,61,-349,-59
1512177097,0.0059,0.0130,-0.2622,-37.78,12.94,896.61,52,-357,-67
1512177097,0.0154,-0.0037,-0.2621,-75.44,35.46,887.39,52,-357,-67
1512177097,0.0248,-0.0073,-0.2453,-50.11,43.95,880.74,52,-357,-67
1512177097,0.0293,-0.0117,-0.2427,-110.17,58.11,926.70,52,-357,-67
1512177097,0.0186,-0.0217,-0.2337,-62.62,77.21,963.20,38,-364,-67
1512177097,0.0289,-0.0113,-0.2298,-55.36,13.67,877.38,38,-364,-67
1512177097,0.0133,-0.0249,-0.2356,-54.81,55.48,930.18,38,-364,-67
1512177097,-0.0007,-0.0369,-0.2350,-51.82,37.96,903.63,38,-364,-67
1512177097,0.0158,-0.0177,-0.2318,-39.00,39.49,909.85,38,-364,-67
1512177097,0.0133,-0.0073,-0.2357,-83.56,24.48,932.25,38,-375,-67
1512177098,-0.0004,-0.0154,-0.2198,-8.12,66.71,936.40,38,-375,-67
1512177098,0.0196,-0.0233,-0.2123,-22.83,65.49,932.80,38,-375,-67
1512177098,-0.0012,-0.0249,-0.2096,-35.77,21.42,909.36,38,-375,-67
1512177098,-0.0088,-0.0266,-0.2043,-22.22,72.51,933.23,38,-375,-67
1512177098,0.0063,-0.0426,-0.2005,-16.24,27.77,955.14,35,-368,-91
1512177098,0.0133,0.0144,-0.1991,35.71,64.88,892.70,35,-368,-91
1512177098,-0.0262,0.0025,-0.1988,-10.99,8.42,915.71,35,-368,-91
1512177098,-0.0049,0.0004,-0.2119,-24.54,27.28,956.73,35,-368,-91
1512177098,-0.0133,-0.0047,-0.2080,-51.39,50.17,953.12,26,-373,-96
1512177098,0.0138,-0.0049,-0.1862,-70.86,56.95,957.76,26,-373,-96
1512177098,0.0380,-0.0001,-0.1687,-62.26,52.19,898.56,26,-373,-96
1512177098,0.0337,-0.0138,-0.1656,-99.98,63.23,922.24,26,-373,-96
1512177098,-0.0064,-0.0149,-0.1517,-40.95,50.60,879.64,26,-373,-96
1512177098,0.0043,-0.0116,-0.1578,-33.57,56.40,930.24,14,-379,-67
1512177098,-0.0067,-0.0309,-0.1633,-31.98,11.90,925.35,14,-379,-67
1512177098,0.0198,-0.0190,-0.1585,19.65,23.68,884.46,14,-379,-67
1512177098,-0.0108,0.0128,-0.2306,-7.69,15.81,882.87,14,-379,-67
1512177098,-0.0178,-0.0091,-0.2186,-9.58,23.32,903.87,14,-379,-67
1512177098,-0.0005,-0.0426,-0.1680,-23.01,29.54,876.22,3,-368,-64
1512177098,-0.0387,-0.0450,-0.1470,1.40,34.67,968.20,3,-368,-64
1512177098,-0.0149,-0.0570,-0.1437,24.90,7.75,958.80,3,-368,-64
1512177098,0.0080,-0.0229,-0.1442,44.19,20.81,900.02,3,-368,-64
1512177098,0.0200,0.0011,-0.1803,-1.04,-66.71,778.32,1,-359,-66
1512177098,-0.0316,-0.0979,-0.2348,19.53,82.09,958.80,1,-359,-66
1512177098,-0.0438,-0.0903,-0.1160,73.49,31.80,885.01,1,-359,-66
1512177098,-0.0041,-0.0272,-0.0928,22.64,30.70,1033.57,1,-359,-66
1512177098,0.0282,0.0024,-0.1065,121.77,3.11,990.05,1,-359,-66
1512177098,-0.0242,0.0385,-0.1965,47.12,-1.16,884.22,0,-368,-67
1512177098,-0.0474,-0.1007,-0.1244,115.05,63.42,1003.97,0,-368,-67
1512177098,-0.1253,-0.0708,-0.1028,105.65,68.73,1006.04,0,-368,-67
1512177098,-0.0887,0.0156,-0.0756,133.48,-5.25,959.11,0,-368,-67
1512177098,0.0487,0.0646,-0.0619,39.55,36.44,974.06,3,-371,-132
1512177098,0.0225,0.0341,-0.0569,177.06,-15.50,821.23,3,-371,-132
1512177098,-0.0190,-0.0064,-0.0358,76.17,2.50,946.35,3,-371,-132
1512177098,-0.0133,0.0051,-0.0306,57.37,8.54,893.49,3,-371,-132
1512177098,0.0060,0.0182,-0.0246,57.56,35.64,900.70,3,-371,-132
1512177098,0.0365,0.0594,-0.0157,10.56,11.96,1010.38,-17,-354,-118
1512177099,0.0096,0.0389,-0.0087,67.14,32.90,972.96,-17,-354,-118
1512177099,-0.0240,0.0534,-0.0108,66.71,4.88,930.66,-17,-354,-118
1512177099,-0.0342,0.0586,-0.0169,60.24,42.11,937.93,-17,-354,-118
1512177099,-0.0630,0.0250,-0.0129,54.57,3.78,964.72,-17,-354,-118
1512177099,-0.0201,0.0422,-0.0025,21.61,4.82,954.04,-3,-361,-121
1512177099,-0.0028,0.0341,0.0051,51.51,3.30,938.60,-3,-361,-121
1512177099,0.0096,0.0246,0.0073,62.26,-1.46,881.77,-3,-361,-121
1512177099,-0.0036,0.0150,0.0182,70.56,29.05,924.13,-3,-361,-121
1512177099,-0.0242,-0.0129,0.0225,47.91,12.45,946.11,-7,-340,-104
1512177099,-0.0051,-0.0099,0.0282,77.64,15.44,917.85,-7,-340,-104
1512177099,-0.0133,-0.0081,0.0344,74.95,14.04,952.58,-7,-340,-104
1512177099,0.0053,0.0101,0.0405,76.97,-10.68,875.67,-7,-340,-104
1512177099,-0.0285,0.0080,0.0405,-3.91,5.25,871.28,-7,-340,-104
1512177099,-0.0700,-0.0621,0.0547,41.02,-25.39,958.86,-5,-363,-113
1512177099,-0.0208,-0.0261,0.0663,133.97,13.18,1003.05,-5,-363,-113
1512177099,-0.0041,0.0352,0.0587,156.74,-41.08,1010.07,-5,-363,-113
1512177099,-0.0088,0.0471,0.0344,122.19,-6.10,849.43,-5,-363,-113
1512177099,0.0308,0.0206,0.0654,-2.01,-32.41,841.92,-5,-363,-113
1512177099,-0.0318,0.0156,0.0949,46.57,61.71,900.82,5,-345,-103
1512177099,-0.0546,0.0176,0.0523,62.93,5.68,1024.96,5,-345,-103
1512177099,0.1354,0.1048,0.0778,75.81,-19.23,1031.80,5,-345,-103
1512177099,0.0678,0.0352,0.0887,53.71,-25.39,867.49,5,-345,-103
1512177099,0.0101,0.0221,0.0832,24.90,-13.61,821.29,1,-345,-123
1512177099,-0.0140,-0.0208,0.0723,33.63,34.42,913.94,1,-345,-123
1512177099,0.0067,-0.0205,0.1217,24.60,-33.20,897.64,1,-345,-123
1512177099,0.0372,0.0333,0.0750,78.00,-61.46,874.63,1,-345,-123
1512177099,0.0481,0.0194,0.0538,66.96,20.39,898.38,1,-345,-123
1512177099,0.0079,-0.0186,0.0878,128.36,-20.75,1000.79,1,-345,-89
1512177099,0.0120,0.0015,0.0791,80.44,-8.97,947.94,1,-345,-89
1512177099,-0.0017,-0.0031,0.0787,71.47,-12.08,950.38,1,-345,-89
1512177099,-0.0133,-0.0007,0.0707,85.27,-32.17,968.87,1,-345,-89
1512177099,-0.0033,0.0176,0.0736,150.27,-25.21,1006.77,1,-345,-89
1512177099,-0.0112,0.0281,0.1031,121.83,4.27,962.52,3,-343,-91
1512177099,-0.0174,0.0232,0.1103,138.85,-17.09,932.92,3,-343,-91
1512177099,-0.0382,0.0380,0.1115,125.79,-24.05,917.91,3,-343,-91
1512177099,-0.0369,0.0185,0.1205,96.86,-2.99,956.91,3,-343,-91
1512177099,-0.0184,-0.0029,0.1240,77.21,-39.73,907.53,5,-338,-96
1512177099,-0.0229,-0.0312,0.1212,34.12,-44.01,932.92,5,-338,-96
1512177100,-0.0161,-0.0214,0.1276,56.09,-39.86,860.17,5,-338,-96
1512177100,-0.0017,0.0024,0.1232,61.10,-24.17,897.03,5,-338,-96
1512177100,0.0025,-0.0016,0.1317,114.14,-33.81,843.32,5,-338,-96
1512177100,-0.0103,-0.0040,0.1216,132.93,-13.24,867.25,10,-336,-88
1512177100,0.0083,-0.0221,0.1181,86.85,-26.49,841.98,10,-336,-88
1512177100,-0.0076,-0.0093,0.1210,87.40,8.79,885.68,10,-336,-88
1512177100,-0.0372,-0.0515,0.1398,190.31,-7.32,954.53,10,-336,-88
1512177100,0.0314,-0.0157,0.1684,164.86,-32.59,958.50,0,-340,-91
1512177100,0.0224,0.0148,0.1828,117.68,-0.37,872.50,0,-340,-91
1512177100,-0.0105,-0.0127,0.2013,162.29,-7.87,937.07,0,-340,-91
1512177100,-0.0189,-0.0505,0.1975,245.54,-18.25,912.23,0,-340,-91
1512177100,-0.0244,-0.0257,0.2089,192.93,-6.96,925.23,0,-340,-91
1512177100,-0.0341,-0.0358,0.2221,135.93,15.08,956.73,26,-334,-106
1512177100,-0.0032,-0.0039,0.2294,125.79,8.12,1001.83,26,-334,-106
1512177100,0.0123,-0.0069,0.2443,112.24,-4.03,931.03,26,-334,-106
1512177100,0.0158,0.0008,0.2569,98.39,31.80,984.31,26,-334,-106
1512177100,0.0015,0.0047,0.2613,103.33,-3.23,916.75,26,-334,-106
1512177100,-0.0059,0.0104,0.2609,119.02,-19.71,930.73,31,-354,-111
1512177100,-0.0286,-0.0184,0.2619,193.12,-2.56,940.25,31,-354,-111
1512177100,0.0136,0.0037,0.2663,154.54,1.89,982.67,31,-354,-111
1512177100,0.0435,0.0304,0.2694,181.52,-7.75,919.31,31,-354,-111
1512177100,0.0350,0.0111,0.2694,185.85,18.62,922.30,35,-357,-115
1512177100,0.0316,0.0125,0.2684,172.00,-5.80,885.74,35,-357,-115
1512177100,0.0434,0.0221,0.2692,112.12,-23.19,911.56,35,-357,-115
1512177100,0.0205,0.0047,0.2638,130.49,-15.38,872.86,35,-357,-115
1512177100,0.0190,-0.0193,0.2683,152.71,31.37,918.88,35,-357,-115
1512177100,0.0329,0.0067,0.2796,131.41,20.32,967.10,43,-345,-126
1512177100,0.0546,0.0160,0.2831,205.63,21.61,910.28,43,-345,-126
1512177100,0.0278,0.0005,0.2834,179.81,6.77,873.78,43,-345,-126
1512177100,0.0129,-0.0197,0.2827,176.15,52.43,914.49,43,-345,-126
1512177100,-0.0011,-0.0652,0.2953,169.37,19.47,898.68,43,-345,-126
1512177100,0.0330,-0.0405,0.2936,125.61,39.55,960.33,43,-349,-113
1512177100,0.0245,-0.0333,0.3031,216.19,28.14,867.80,43,-349,-113
1512177100,-0.0007,-0.0337,0.3067,218.57,-3.17,853.03,43,-349,-113
1512177100,-0.0072,-0.0433,0.2900,205.44,44.80,763.49,43,-349,-113
1512177100,-0.0582,-0.0190,0.3320,251.89,56.58,947.88,65,-345,-140
1512177100,-0.0028,-0.0553,0.3465,214.54,14.71,1019.17,65,-345,-140
1512177100,-0.1352,-0.0646,0.3659,173.89,24.90,932.62,65,-345,-140
1512177101,0.0269,-0.0210,0.2503,233.15,127.62,946.41,65,-345,-140
1512177101,0.0051,0.0153,0.3093,256.53,19.59,869.81,65,-345,-140
1512177101,0.0067,0.0077,0.3075,186.65,36.62,868.65,52,-347,-176
1512177101,0.0465,-0.0130,0.3091,229.92,34.55,898.99,52,-347,-176
1512177101,0.0298,-0.0369,0.3021,221.50,0.67,892.88,52,-347,-176
1512177101,0.0326,0.0032,0.3072,220.21,47.18,939.70,52,-347,-176
1512177101,-0.0013,-0.0197,0.3056,209.23,51.94,947.45,65,-356,-164
1512177101,0.0282,-0.0003,0.3053,172.00,63.84,946.11,65,-356,-164
1512177101,-0.0012,-0.0256,0.2714,140.01,95.15,969.48,65,-356,-164
1512177101,-0.0150,-0.0372,0.2907,142.21,58.59,938.35,65,-356,-164
1512177101,-0.0011,-0.0103,0.2896,159.48,21.24,940.06,65,-356,-164
1512177101,-0.0048,-0.0076,0.2864,157.47,6.10,857.36,66,-347,-176
1512177101,0.0142,0.0088,0.2852,180.54,51.39,894.71,66,-347,-176
1512177101,-0.0237,-0.0387,0.2859,116.46,89.72,988.89,66,-347,-176
1512177101,-0.0188,-0.0068,0.2722,185.36,5.07,964.78,66,-347,-176
1512177101,0.0186,0.0188,0.2879,121.15,26.86,865.11,66,-347,-176
1512177101,-0.0615,-0.0256,0.2799,162.48,44.74,980.65,84,-361,-162
1512177101,-0.0350,0.0021,0.2754,143.74,53.59,948.61,84,-361,-162
1512177101,-0.0281,0.0040,0.2759,151.73,63.42,963.32,84,-361,-162
1512177101,-0.0009,-0.0043,0.2770,205.32,31.74,885.56,84,-361,-162
1512177101,0.0342,-0.0146,0.2792,147.28,23.38,910.95,96,-342,-150
1512177101,0.0108,-0.0308,0.2776,207.40,31.62,899.66,96,-342,-150
1512177101,0.0121,-0.0240,0.2684,179.20,9.28,847.05,96,-342,-150
1512177101,0.0390,0.0370,0.2756,136.11,47.97,834.66,96,-342,-150
1512177101,-0.0077,0.0201,0.2670,217.71,46.75,902.71,96,-342,-150
1512177101,-0.0587,-0.0024,0.2626,195.86,34.48,894.35,89,-345,-157
1512177101,-0.0473,-0.0491,0.2595,167.42,77.64,933.72,89,-345,-157
1512177101,-0.0190,-0.0288,0.2591,169.80,63.78,961.55,89,-345,-157
1512177101,-0.0096,-0.0120,0.2702,158.26,40.04,919.25,89,-345,-157
1512177101,0.0061,0.0145,0.2718,86.55,80.44,953.25,89,-345,-157
1512177101,-0.0120,-0.0021,0.2826,124.51,28.93,939.45,100,-349,-164
1512177101,-0.0071,-0.0310,0.2883,212.59,85.82,913.94,100,-349,-164
1512177101,-0.0184,-0.0658,0.2902,234.86,40.34,994.38,100,-349,-164
1512177101,0.0091,-0.0647,0.3033,145.20,72.20,1001.53,100,-349,-164
1512177101,0.0013,-0.0483,0.3037,284.91,16.78,871.22,89,-349,-157
1512177101,-0.0005,-0.0465,0.3092,264.28,87.40,946.04,89,-349,-157
1512177101,-0.0204,-0.0346,0.3149,226.38,92.22,990.23,89,-349,-157
1512177101,-0.0230,-0.0224,0.3216,228.58,39.43,1005.43,89,-349,-157
1512177102,0.0912,-0.0573,0.2967,121.95,39.98,966.43,89,-349,-157
1512177102,0.0007,-0.0394,0.3238,193.91,43.95,925.90,108,-343,-165
1512177102,0.0173,-0.0333,0.3233,218.87,128.30,906.49,108,-343,-165
1512177102,0.0049,0.0113,0.3344,218.38,46.94,878.72,108,-343,-165
1512177102,0.0214,0.0525,0.2992,282.84,148.99,825.32,108,-343,-165
1512177102,0.0720,-0.0254,0.2902,291.50,88.26,872.19,114,-345,-177
1512177102,-0.0377,-0.0368,0.3245,154.24,78.25,893.98,114,-345,-177
1512177102,-0.0198,-0.0099,0.3285,158.08,75.62,996.34,114,-345,-177
1512177102,0.0092,0.0233,0.3555,129.27,93.81,941.28,114,-345,-177
1512177102,0.0288,0.0248,0.3565,149.84,51.64,965.21,114,-345,-177
1512177102,0.1148,0.0498,0.3511,205.75,73.67,895.39,117,-345,-170
1512177102,-0.0321,-0.0068,0.3703,219.18,38.94,845.70,117,-345,-170
1512177102,-0.0659,-0.0157,0.3719,237.92,145.45,896.91,117,-345,-170
1512177102,-0.0429,-0.0232,0.3831,171.39,84.96,1063.84,117,-345,-170
1512177102,-0.0150,0.0051,0.3894,278.32,74.52,945.56,117,-345,-170
1512177102,-0.0264,0.0188,0.3976,263.06,127.20,863.10,137,-333,-179
1512177102,-0.0438,0.0274,0.4007,233.09,83.68,960.33,137,-333,-179
1512177102,-0.0486,0.0356,0.4198,253.91,80.63,923.65,137,-333,-179
1512177102,-0.1575,-0.0148,0.4160,271.12,113.10,840.76,137,-333,-179
1512177102,-0.0077,-0.0064,0.3244,296.45,115.72,1020.14,145,-327,-198
1512177102,-0.0218,0.0332,0.4087,193.24,68.42,986.57,145,-327,-198
1512177102,0.0324,0.0465,0.4077,256.65,70.86,959.84,145,-327,-198
1512177102,-0.0182,0.0306,0.4269,218.20,108.28,920.47,145,-327,-198
1512177102,0.0079,0.0590,0.4257,220.89,47.30,928.22,145,-327,-198
1512177102,0.0071,0.0282,0.4356,264.89,86.43,837.59,168,-308,-176
1512177102,-0.0386,0.0398,0.4332,243.16,32.04,870.91,168,-308,-176
1512177102,0.0041,0.0483,0.4381,299.26,83.50,928.96,168,-308,-176
1512177102,-0.0031,0.0573,0.4408,253.78,74.65,842.16,168,-308,-176
1512177102,-0.0334,0.0393,0.4357,251.53,89.11,914.55,168,-308,-176
1512177102,-0.0405,0.0292,0.4424,200.99,51.33,952.94,147,-294,-182
1512177102,-0.0140,0.0373,0.4479,112.18,26.31,1019.90,147,-294,-182
1512177102,0.0298,0.0514,0.4530,90.76,65.86,981.63,147,-294,-182
1512177102,0.0036,0.0501,0.4563,126.28,67.14,862.61,147,-294,-182
1512177102,0.0097,0.0771,0.4561,101.68,40.47,926.21,151,-290,-162
1512177102,-0.0024,0.0513,0.4531,229.49,79.77,877.50,151,-290,-162
1512177102,-0.0345,0.0353,0.4521,229.49,32.78,817.75,151,-290,-162
1512177102,0.0009,0.0470,0.4565,180.18,80.93,855.22,151,-290,-162
1512177103,-0.0081,0.0289,0.4515,191.89,33.75,911.93,151,-290,-162
1512177103,0.0261,0.0486,0.4622,145.39,65.43,917.97,175,-287,-176
1512177103,0.0626,0.0678,0.4611,136.84,3.54,992.55,175,-287,-176
1512177103,0.0216,0.0798,0.4603,138.24,12.45,908.20,175,-287,-176
1512177103,0.0337,0.0570,0.4609,200.38,62.99,914.98,175,-287,-176
1512177103,0.0119,0.0549,0.4575,204.90,68.24,927.86,175,-287,-176
1512177103,0.0276,0.0698,0.4562,212.71,51.70,933.65,170,-275,-167
1512177103,0.0064,0.0522,0.4554,175.48,50.96,898.93,170,-275,-167
1512177103,0.0200,0.0559,0.4561,116.09,49.93,991.70,170,-275,-167
1512177103,0.0221,0.0646,0.4618,185.36,36.13,941.96,170,-275,-167
1512177103,-0.0011,0.0415,0.4629,229.13,55.05,887.15,180,-264,-154
1512177103,0.0119,0.0507,0.4635,218.14,42.60,889.04,180,-264,-154
1512177103,-0.0150,0.0427,0.4613,258.67,60.61,847.90,180,-264,-154
1512177103,0.0049,0.0543,0.4686,179.99,46.33,921.02,180,-264,-154
1512177103,0.0407,0.0772,0.4666,148.56,26.25,909.73,180,-264,-154
1512177103,0.0216,0.0583,0.4658,134.46,81.24,948.43,196,-252,-159
1512177103,0.0200,0.0724,0.4630,171.20,37.23,938.54,196,-252,-159
1512177103,0.0364,0.0884,0.4654,155.58,45.78,939.21,196,-252,-159
1512177103,0.0037,0.0642,0.4698,213.75,82.64,893.86,196,-252,-159
1512177103,0.0012,0.0541,0.4723,210.63,23.38,917.18,188,-239,-160
1512177103,-0.0007,0.0583,0.4715,189.64,53.28,884.89,188,-239,-160
1512177103,-0.0028,0.0443,0.4759,179.57,34.61,854.61,188,-239,-160
1512177103,0.0196,0.0278,0.4742,164.55,10.56,963.87,188,-239,-160
1512177103,0.0292,0.0401,0.4747,135.99,17.88,883.00,188,-239,-160
1512177103,0.0053,0.0344,0.4766,104.19,11.41,887.27,200,-220,-155
1512177103,0.0061,0.0218,0.4819,125.73,21.06,917.05,200,-220,-155
1512177103,0.0119,0.0236,0.4836,143.19,28.99,863.77,200,-220,-155
1512177103,0.0137,0.0238,0.4874,68.24,9.95,958.98,200,-220,-155
1512177103,0.0212,0.0260,0.4847,106.75,3.66,967.71,200,-220,-155
1512177103,-0.0088,0.0216,0.4882,109.86,-7.93,937.38,202,-208,-170
1512177103,-0.0041,0.0447,0.4896,113.04,20.26,978.64,202,-208,-170
1512177103,-0.0136,0.0293,0.4957,204.28,6.04,910.95,202,-208,-170
1512177103,-0.0526,0.0160,0.4968,195.50,-23.07,886.47,202,-208,-170
1512177103,0.0170,0.0091,0.5069,120.97,0.98,955.26,212,-200,-160
1512177103,0.0019,0.0157,0.5071,125.24,-36.93,898.50,212,-200,-160
1512177103,0.0120,0.0204,0.5121,194.52,-24.66,848.02,212,-200,-160
1512177103,0.0198,0.0298,0.5113,104.25,-16.36,947.14,212,-200,-160
1512177103,0.0526,0.0543,0.5153,98.94,6.90,909.55,212,-200,-160
1512177104,0.0305,0.0344,0.5143,104.06,-17.76,968.14,207,-192,-172
1512177104,0.0233,0.0562,0.5151,69.40,15.56,917.91,207,-192,-172
1512177104,0.0574,0.0372,0.5286,94.42,31.92,1074.89,207,-192,-172
1512177104,0.0127,0.0116,0.5160,100.40,31.80,957.03,207,-192,-172
1512177104,0.0084,-0.0314,0.4799,91.00,70.19,1013.06,207,-192,-172
1512177104,-0.0092,-0.0514,0.4919,75.56,66.65,995.00,195,-186,-167
1512177104,-0.0077,-0.0955,0.4541,168.70,27.34,961.43,195,-186,-167
1512177104,0.0642,-0.1099,0.3389,51.15,72.45,1011.96,195,-186,-167
1512177104,-0.0593,-0.1559,0.3728,60.49,103.52,996.64,195,-186,-167
1512177104,-0.0622,-0.1879,0.4651,152.28,65.31,1029.05,188,-144,-96
1512177104,-0.0872,-0.1935,0.4971,83.31,25.57,951.29,188,-144,-96
1512177104,-0.0754,-0.1617,0.4939,137.76,-2.44,925.96,188,-144,-96
1512177104,-0.0879,-0.1459,0.4783,172.12,6.84,922.79,188,-144,-96
1512177104,-0.0589,-0.1091,0.4638,171.94,6.65,864.50,188,-144,-96
1512177104,-0.0466,-0.0776,0.4547,247.74,23.99,853.03,188,-151,-133
1512177104,-0.0184,-0.0791,0.5173,227.84,-10.44,903.81,188,-151,-133
1512177104,-0.0955,-0.0774,0.4778,249.69,41.44,1033.94,188,-151,-133
1512177104,-0.0860,0.0063,0.4507,287.72,20.81,992.07,188,-151,-133
1512177104,-0.0627,0.0352,0.4714,220.52,72.63,996.70,188,-151,-133
1512177104,-0.0905,0.0517,0.4795,212.22,74.95,988.28,202,-162,-187
1512177104,-0.0907,0.0802,0.4945,217.65,59.88,959.78,202,-162,-187
1512177104,-0.1292,0.0939,0.4674,200.01,25.15,879.09,202,-162,-187
1512177104,-0.0854,0.1338,0.4657,201.60,31.56,915.22,202,-162,-187
1512177104,-0.0887,0.1786,0.4633,156.98,-16.60,978.15,195,-130,-177
1512177104,-0.1268,0.1767,0.4682,169.31,-13.06,869.32,195,-130,-177
1512177104,-0.1135,0.1714,0.4643,127.87,-32.04,833.44,195,-130,-177
1512177104,-0.0960,0.1473,0.4489,58.11,-65.92,886.29,195,-130,-177
1512177104,-0.0218,0.1245,0.4221,88.87,20.26,867.68,195,-130,-177
1512177104,0.0037,0.0993,0.4822,39.06,-55.30,850.83,212,-116,-154
1512177104,-0.0024,0.0639,0.4569,56.15,-28.56,898.32,212,-116,-154
1512177104,-0.0277,0.0418,0.4236,17.46,-10.44,931.09,212,-116,-154
1512177104,-0.0541,0.0165,0.4060,46.75,-40.28,958.56,212,-116,-154
1512177104,-0.0581,-0.0068,0.4172,51.09,32.71,899.78,212,-116,-154
1512177104,-0.1108,-0.0348,0.4357,112.92,-9.34,970.09,205,-95,-106
1512177104,-0.1016,-0.0300,0.4469,132.45,-45.41,909.00,205,-95,-106
1512177104,-0.0882,-0.0672,0.4202,84.78,-0.06,959.59,205,-95,-106
1512177104,-0.0997,-0.0751,0.4156,137.15,-24.72,882.63,205,-95,-106
1512177104,-0.1197,-0.0599,0.4252,151.06,10.68,888.12,203,-104,-145
1512177105,-0.0830,-0.0463,0.4240,204.65,3.97,863.46,203,-104,-145
1512177105,-0.0639,-0.0280,0.4346,127.87,-0.79,917.05,203,-104,-145
1512177105,-0.0443,-0.0232,0.4128,178.65,-15.26,911.13,203,-104,-145
1512177105,-0.0442,-0.0185,0.4273,121.52,20.51,941.59,203,-104,-145
1512177105,-0.0726,-0.0228,0.4230,92.41,5.68,935.18,203,-75,-138
1512177105,-0.0702,-0.0146,0.4181,68.12,3.60,963.75,203,-75,-138
1512177105,-0.0483,0.0045,0.4104,48.28,-39.25,943.60,203,-75,-138
1512177105,-0.0409,0.0040,0.4100,58.78,-15.56,954.16,203,-75,-138
1512177105,-0.0566,-0.0031,0.4089,72.57,-5.86,919.92,203,-75,-138
1512177105,-0.0718,-0.0194,0.4103,82.64,-28.50,910.64,209,-66,-150
1512177105,-0.0471,-0.0174,0.4141,44.98,-20.69,936.83,209,-66,-150
1512177105,-0.0080,-0.0338,0.4233,92.71,6.65,990.05,209,-66,-150
1512177105,0.0124,-0.0298,0.4340,94.36,-14.53,945.25,209,-66,-150
1512177105,0.0029,-0.0426,0.4314,49.26,-3.17,878.66,202,-66,-133
1512177105,0.0073,-0.0834,0.4091,63.11,0.37,892.64,202,-66,-133
1512177105,0.0176,-0.1077,0.3826,47.18,-5.80,938.90,202,-66,-133
1512177105,0.0052,-0.1177,0.3919,67.69,13.79,1054.63,202,-66,-133
1512177105,0.0570,-0.0900,0.4045,163.70,20.14,1060.97,202,-66,-133
1512177105,0.0848,-0.0502,0.3912,167.79,2.62,1038.57,177,-49,-116
1512177105,0.0672,-0.0134,0.4445,138.37,-26.98,1054.69,177,-49,-116
1512177105,0.0688,-0.0712,0.4009,194.95,58.53,1000.37,177,-49,-116
1512177105,0.0390,-0.0077,0.3194,145.75,93.20,939.94,177,-49,-116
1512177105,0.0382,0.0273,0.3178,114.93,54.93,904.24,177,-49,-116
1512177105,0.0372,0.0447,0.3242,155.15,18.43,879.39,168,-54,-155
1512177105,0.0860,0.0543,0.3342,81.24,30.15,920.17,168,-54,-155
1512177105,0.0449,0.0322,0.3269,49.80,28.69,898.38,168,-54,-155
1512177105,0.0703,0.0551,0.3396,65.86,8.00,854.25,168,-54,-155
1512177105,0.0208,0.0462,0.3388,113.71,-3.78,846.07,170,-45,-140
1512177105,0.0213,0.0509,0.3412,76.29,-12.76,837.52,170,-45,-140
1512177105,0.0538,0.0728,0.3372,49.87,-9.58,912.60,170,-45,-140
1512177105,0.0378,0.0525,0.3253,71.04,-32.96,845.58,170,-45,-140
1512177105,0.0185,0.0494,0.3159,65.37,-18.62,889.71,170,-45,-140
1512177105,0.0494,0.0739,0.2818,43.95,-12.39,922.30,165,-37,-132
1512177105,0.0393,0.0698,0.2365,47.91,-5.55,928.10,165,-37,-132
1512177105,0.0144,0.0483,0.2738,53.89,4.09,857.36,165,-37,-132
1512177105,-0.0165,0.0202,0.3008,62.19,8.79,890.26,165,-37,-132
1512177105,-0.0328,0.0112,0.2977,58.72,-8.85,916.26,165,-37,-132
1512177105,-0.0261,-0.0037,0.2957,58.47,-11.11,919.13,159,-28,-123
1512177106,-0.0145,0.0033,0.2979,64.03,-27.47,919.31,159,-28,-123
1512177106,-0.0166,0.0009,0.2937,43.09,-15.56,921.20,159,-28,-123
1512177106,-0.0073,0.0127,0.2900,48.16,-33.51,910.71,159,-28,-123
1512177106,-0.0192,0.0080,0.2839,71.78,-45.17,902.34,133,-15,-138
1512177106,-0.0142,0.0258,0.2799,43.40,-34.61,906.68,133,-15,-138
1512177106,0.0071,0.0285,0.2752,39.37,-25.57,948.43,133,-15,-138
1512177106,0.0153,0.0334,0.2714,69.46,-21.30,898.62,133,-15,-138
1512177106,-0.0035,0.0221,0.2668,33.39,-73.12,893.13,133,-15,-138
1512177106,-0.0073,0.0204,0.2642,31.25,-59.14,914.18,142,3,-126
1512177106,0.0027,0.0186,0.2611,32.90,-31.37,924.26,142,3,-126
1512177106,-0.0064,0.0063,0.2613,67.08,-50.54,933.29,142,3,-126
1512177106,-0.0117,0.0013,0.2654,50.60,-67.38,907.53,142,3,-126
1512177106,-0.0087,-0.0096,0.2641,54.63,-79.90,840.76,142,3,-126
1512177106,0.0059,0.0128,0.2582,38.70,-58.59,944.34,126,-1,-142
1512177106,-0.0024,0.0144,0.2486,41.75,-89.29,927.80,126,-1,-142
1512177106,-0.0125,0.0068,0.2482,48.10,-66.89,935.55,126,-1,-142
1512177106,0.0004,0.0140,0.2489,55.48,-83.37,945.92,126,-1,-142
1512177106,0.0045,0.0188,0.2506,49.01,-65.73,961.43,126,8,-138
1512177106,0.0085,0.0133,0.2513,43.03,-70.92,925.54,126,8,-138
1512177106,0.0025,0.0123,0.2493,35.46,-94.18,936.77,126,8,-138
1512177106,0.0092,0.0073,0.2497,70.92,-104.80,915.16,126,8,-138
1512177106,-0.0184,-0.0083,0.2441,62.38,-110.05,911.01,126,8,-138
1512177106,-0.0043,0.0019,0.2413,57.07,-127.56,927.19,135,3,-137
1512177106,0.0053,0.0052,0.2402,60.36,-120.73,958.25,135,3,-137
1512177106,0.0097,0.0043,0.2479,75.56,-129.58,923.03,135,3,-137
1512177106,-0.0111,-0.0061,0.2494,69.82,-148.74,928.59,135,3,-137
1512177106,0.0003,-0.0105,0.2505,84.78,-135.56,918.15,135,3,-137
1512177106,0.0020,-0.0116,0.2491,66.83,-155.09,935.67,128,10,-147
1512177106,0.0052,-0.0012,0.2491,60.24,-160.52,927.92,128,10,-147
1512177106,-0.0011,0.0032,0.2449,51.21,-152.65,960.39,128,10,-147
1512177106,-0.0192,-0.0113,0.2433,98.08,-171.33,928.10,128,10,-147
1512177106,-0.0170,-0.0146,0.2438,85.94,-158.94,890.14,128,24,-137
1512177106,-0.0180,-0.0055,0.2458,57.56,-142.33,875.24,128,24,-137
1512177106,-0.0672,-0.0481,0.2430,117.68,-158.57,876.04,128,24,-137
1512177106,-0.0304,-0.0294,0.2530,92.71,-178.47,858.52,128,24,-137
1512177106,0.0091,0.0024,0.2549,98.63,-153.87,951.66,128,24,-137
1512177106,0.0495,0.0356,0.2614,54.93,-138.12,984.99,130,26,-155
1512177106,0.0254,0.0241,0.2571,107.42,-131.47,943.73,130,26,-155
1512177107,0.0101,0.0153,0.2585,38.21,-152.10,955.08,130,26,-155
1512177107,-0.0049,0.0013,0.2553,84.23,-137.57,939.33,130,26,-155
1512177107,0.0205,0.0180,0.2581,58.35,-159.48,971.62,130,26,-155
1512177107,0.0100,0.0148,0.2581,56.21,-161.19,856.63,115,33,-138
1512177107,0.0170,0.0352,0.2577,51.94,-189.64,964.60,115,33,-138
1512177107,0.0238,0.0425,0.2595,34.97,-164.43,947.27,115,33,-138
1512177107,0.0128,0.0410,0.2589,50.72,-169.56,941.28,115,33,-138
1512177107,-0.0170,0.0095,0.2615,114.62,-169.98,873.90,114,42,-160
1512177107,-0.0531,-0.0055,0.2650,89.66,-165.71,923.10,114,42,-160
1512177107,0.0092,0.0253,0.2672,60.30,-153.02,918.82,114,42,-160
1512177107,-0.0240,0.0093,0.2605,91.98,-128.91,903.75,114,42,-160
1512177107,-0.0085,0.0185,0.2654,66.22,-127.99,946.11,114,42,-160
1512177107,0.0039,0.0262,0.2663,67.20,-177.80,947.51,114,52,-157
1512177107,-0.0088,0.0156,0.2650,89.66,-148.93,918.76,114,52,-157
1512177107,-0.0332,-0.0013,0.2675,93.51,-159.48,906.68,114,52,-157
1512177107,0.0115,0.0433,0.2607,112.18,-147.09,967.83,114,52,-157
1512177107,0.0019,0.0309,0.2671,108.40,-145.26,970.70,98,37,-159
1512177107,-0.0334,0.0004,0.2664,55.48,-159.00,915.65,98,37,-159
1512177107,0.0044,0.0284,0.2678,80.57,-156.37,924.26,98,37,-159
1512177107,0.0036,0.0221,0.2702,63.29,-142.09,947.14,98,37,-159
1512177107,0.0249,0.0274,0.2723,75.93,-171.33,882.08,98,37,-159
1512177107,0.0265,0.0253,0.2688,62.87,-161.07,933.04,98,58,-148
1512177107,-0.0104,0.0031,0.2688,81.36,-153.50,900.57,98,58,-148
1512177107,0.0052,0.0081,0.2687,62.26,-143.98,937.56,98,58,-148
1512177107,0.0044,0.0061,0.2686,48.58,-108.89,973.69,98,58,-148
1512177107,0.0059,0.0100,0.2687,35.40,-151.18,919.31,98,58,-148
1512177107,0.0224,0.0230,0.2676,32.10,-134.28,925.23,96,56,-167
1512177107,0.0028,0.0225,0.2664,39.49,-144.17,929.50,96,56,-167
1512177107,-0.0157,0.0157,0.2610,75.01,-116.64,901.06,96,56,-167
1512177107,-0.0296,0.0103,0.2586,69.82,-160.77,931.58,96,56,-167
1512177107,-0.0037,0.0071,0.2607,116.09,-151.49,904.05,87,65,-155
1512177107,-0.0096,0.0104,0.2558,79.59,-146.73,917.85,87,65,-155
1512177107,0.0238,0.0391,0.2489,89.23,-145.57,973.21,87,65,-155
1512177107,0.0451,0.0426,0.2510,63.48,-189.03,930.54,87,65,-155
1512177107,0.0108,0.0160,0.2522,85.39,-157.04,904.42,87,65,-155
1512177107,0.0156,0.0292,0.2503,48.28,-156.56,911.38,89,56,-150
1512177107,0.0069,0.0180,0.2441,55.97,-160.95,901.61,89,56,-150
1512177107,0.0071,0.0232,0.2365,38.33,-150.82,921.75,89,56,-150
1512177108,-0.0111,0.0095,0.2292,53.77,-139.16,937.99,89,56,-150
1512177108,-0.0096,0.0051,0.2241,36.93,-135.25,941.53,89,56,-150
1512177108,0.0037,0.0190,0.2214,6.77,-121.52,934.08,84,61,-159
1512177108,-0.0048,0.0117,0.2154,33.33,-149.17,927.25,84,61,-159
1512177108,0.0088,0.0218,0.2139,42.79,-137.02,952.82,84,61,-159
1512177108,-0.0063,0.0109,0.2141,47.97,-135.62,943.48,84,61,-159
1512177108,0.0048,0.0017,0.2061,49.26,-124.15,903.20,87,65,-155
1512177108,-0.0141,-0.0067,0.2048,59.45,-136.78,887.02,87,65,-155
1512177108,-0.0019,-0.0152,0.2039,28.32,-118.16,910.40,87,65,-155
1512177108,-0.0073,-0.0225,0.2015,41.50,-171.33,920.35,87,65,-155
1512177108,0.0328,-0.0130,0.2029,14.28,-108.89,931.15,87,65,-155
1512177108,0.0204,-0.0125,0.2015,24.17,-144.78,895.75,70,72,-155
1512177108,0.0245,0.0004,0.1921,56.76,-183.11,864.50,70,72,-155
1512177108,0.0393,-0.0105,0.1896,56.64,-164.98,810.30,70,72,-155
1512177108,-0.0047,-0.0595,0.1839,20.32,-159.67,865.42,70,72,-155
1512177108,0.0320,-0.0517,0.1941,4.52,-121.64,988.71,70,72,-155
1512177108,0.0505,-0.0330,0.1983,43.64,-103.09,1056.58,50,66,-143
1512177108,0.0462,-0.0069,0.1883,31.68,-123.41,1030.33,50,66,-143
1512177108,0.0234,0.0229,0.1768,87.40,-129.94,979.13,50,66,-143
1512177108,-0.0136,0.0242,0.1732,115.78,-102.23,978.45,50,66,-143
1512177108,-0.0356,0.0361,0.1683,72.02,-146.79,1041.93,54,81,-167
1512177108,-0.0144,0.0434,0.1595,71.35,-149.72,946.41,54,81,-167
1512177108,-0.0461,0.0205,0.1587,67.99,-159.67,901.25,54,81,-167
1512177108,0.0103,0.0499,0.1593,45.65,-125.49,919.43,54,81,-167
1512177108,-0.0044,0.0566,0.1613,27.28,-134.89,896.67,54,81,-167
1512177108,0.0017,0.0521,0.1613,11.78,-115.48,894.17,56,61,-148
1512177108,-0.0230,0.0370,0.1735,20.45,-130.00,933.41,56,61,-148
1512177108,-0.0100,0.0473,0.1485,-65.37,-130.07,888.61,56,61,-148
1512177108,0.0033,0.0475,0.1384,-25.51,-143.92,884.03,56,61,-148
1512177108,0.0173,0.0398,0.1261,-24.11,-129.46,888.12,56,61,-148
1512177108,0.0128,0.0222,0.1208,7.39,-142.64,908.08,31,89,-138
1512177108,0.0061,0.0214,0.1189,-26.06,-124.39,908.63,31,89,-138
1512177108,-0.0060,0.0092,0.1222,-29.05,-121.95,943.91,31,89,-138
1512177108,-0.0033,0.0161,0.1153,-22.83,-128.91,901.55,31,89,-138
1512177108,-0.0039,0.0116,0.1146,4.70,-118.16,883.48,49,86,-148
1512177108,-0.0092,-0.0028,0.1080,11.05,-140.75,897.09,49,86,-148
1512177108,-0.0057,0.0005,0.1072,46.88,-115.66,845.76,49,86,-148
1512177108,-0.0160,-0.0003,0.1035,29.30,-148.56,864.87,49,86,-148
1512177109,-0.0087,0.0015,0.0991,49.74,-95.70,807.92,49,86,-148
1512177109,-0.0225,-0.0033,0.0975,32.90,-112.67,910.58,29,81,-130
1512177109,-0.0088,-0.0192,0.0960,7.51,-121.64,899.72,29,81,-130
1512177109,-0.0039,-0.0273,0.0992,24.17,-93.32,913.27,29,81,-130
1512177109,0.0049,-0.0097,0.0891,41.50,-104.98,971.68,29,81,-130
1512177109,0.0571,0.0162,0.0803,41.26,-93.69,970.64,31,79,-142
1512177109,0.0294,0.0108,0.0736,1.22,-102.66,973.33,31,79,-142
1512177109,0.0409,0.0112,0.0686,22.58,-114.69,918.64,31,79,-142
1512177109,0.0077,-0.0007,0.0594,-5.92,-87.59,927.80,31,79,-142
1512177109,0.0119,-0.0007,0.0603,-27.89,-126.65,879.21,31,79,-142
1512177109,0.0385,0.0015,0.0597,-16.72,-68.30,957.34,42,82,-159
1512177109,0.0485,0.0142,0.0582,-22.40,-75.26,916.99,42,82,-159
1512177109,0.0579,0.0178,0.0535,-24.05,-57.25,892.88,42,82,-159
1512177109,0.0242,0.0297,0.0550,-15.32,-39.92,895.63,42,82,-159
1512177109,0.0184,0.0125,0.0469,-20.51,-46.39,881.47,42,82,-159
1512177109,0.0426,-0.0016,0.0439,-16.60,-54.81,910.10,29,84,-154
1512177109,0.0229,0.0047,0.0369,-3.36,-26.61,973.45,29,84,-154
1512177109,0.0558,0.0084,0.0382,34.91,-46.69,963.75,29,84,-154
1512177109,0.0691,0.0045,0.0346,-24.66,-24.96,940.55,29,84,-154
1512177109,0.0466,0.0091,0.0377,-6.41,-4.03,931.09,33,95,-150
1512177109,0.0226,0.0113,0.0340,-39.55,-21.79,889.59,33,95,-150
1512177109,0.0115,0.0158,0.0360,2.20,9.03,911.68,33,95,-150
1512177109,0.0084,0.0142,0.0310,-15.08,-26.18,845.95,33,95,-150
1512177109,0.0105,0.0017,0.0278,-72.63,-30.94,933.84,33,95,-150
1512177109,0.0145,0.0011,0.0281,15.75,-5.37,873.72,10,72,-138
1512177109,-0.0043,0.0013,0.0258,-14.22,-42.30,888.18,10,72,-138
1512177109,0.0256,0.0008,0.0277,-20.51,18.37,899.54,10,72,-138
1512177109,0.0016,-0.0005,0.0265,20.32,0.79,858.76,10,72,-138
1512177109,0.0008,0.0104,0.0200,38.64,-17.40,928.10,10,72,-138
1512177109,0.0087,0.0268,0.0216,29.60,-5.07,950.68,24,79,-165
1512177109,-0.0125,0.0184,0.0206,-11.54,-19.90,891.54,24,79,-165
1512177109,-0.0097,0.0137,0.0168,-7.51,-9.64,918.09,24,79,-165
1512177109,-0.0119,-0.0001,0.0157,-38.15,-5.43,971.56,24,79,-165
1512177109,-0.0032,-0.0111,0.0178,-16.30,23.56,978.82,3,86,-169
1512177109,-0.0059,0.0035,0.0269,-44.68,7.81,858.83,3,86,-169
1512177109,-0.0205,-0.0049,0.0153,-37.66,15.08,889.71,3,86,-169
1512177109,-0.0216,0.0053,0.0133,-41.75,15.81,927.86,3,86,-169
1512177110,-0.0088,-0.0011,0.0129,-46.94,26.73,935.42,3,86,-169
1512177110,0.0181,0.0033,0.0016,-49.32,24.48,937.50,17,86,-165
1512177110,-0.0001,0.0115,-0.0013,-29.91,-3.91,904.91,17,86,-165
1512177110,0.0044,-0.0013,0.0036,-44.74,-22.83,874.08,17,86,-165
1512177110,0.0075,-0.0149,-0.0032,-4.94,23.74,883.30,17,86,-165
1512177110,-0.0104,-0.0173,0.0029,4.39,-5.86,919.43,17,86,-165
1512177110,-0.0093,-0.0108,0.0043,18.19,9.83,937.56,24,100,-152
1512177110,0.0173,-0.0073,0.0032,52.37,37.11,945.43,24,100,-152
1512177110,0.0202,-0.0044,-0.0017,30.33,41.99,885.31,24,100,-152
1512177110,-0.0119,-0.0127,-0.0085,-36.74,14.77,927.98,24,100,-152
1512177110,0.0076,-0.0001,-0.0052,-7.51,57.07,905.58,26,95,-164
1512177110,0.0103,-0.0011,-0.0064,22.89,17.33,916.56,26,95,-164
1512177110,-0.0009,-0.0089,-0.0077,61.46,6.96,943.48,26,95,-164
1512177110,-0.0041,-0.0035,0.0000,14.83,102.05,938.23,26,95,-164
1512177110,-0.0150,-0.0033,-0.0057,-28.69,35.34,961.00,26,95,-164
1512177110,0.0345,-0.0021,-0.0096,-46.75,26.61,915.65,24,96,-159
1512177110,0.0224,0.0069,-0.0165,-33.57,-12.02,882.93,24,96,-159
1512177110,0.0174,0.0141,-0.0240,-8.36,-5.68,909.55,24,96,-159
1512177110,0.0220,0.0013,-0.0200,-36.19,11.90,876.89,24,96,-159
1512177110,0.0180,-0.0051,-0.0080,-25.94,23.32,891.24,24,96,-159
1512177110,0.0150,-0.0166,-0.0173,-12.27,65.06,922.67,1,81,-147
1512177110,0.0249,-0.0140,-0.0137,-31.37,27.10,881.16,1,81,-147
1512177110,0.0361,0.0005,-0.0200,-0.43,59.94,870.79,1,81,-147
1512177110,0.0214,-0.0156,-0.0164,-2.44,62.26,938.66,1,81,-147
1512177110,0.0067,-0.0077,-0.0164,19.96,24.66,885.31,15,91,-130
1512177110,0.0097,0.0049,-0.0214,-21.42,27.89,888.67,15,91,-130
1512177110,0.0071,-0.0176,-0.0305,-20.45,-14.16,869.87,15,91,-130
1512177110,0.0093,-0.0314,-0.0252,-53.65,14.83,952.15,15,91,-130
1512177110,0.0168,-0.0204,-0.0252,-50.60,-28.32,866.70,15,91,-130
1512177110,0.0178,-0.0326,-0.0273,10.99,40.59,901.18,1,84,-143
1512177110,0.0028,-0.0320,-0.0172,22.83,-3.78,869.14,1,84,-143
1512177110,0.0101,-0.0297,-0.0241,-14.10,3.36,929.08,1,84,-143
1512177110,0.0314,-0.0209,-0.0313,-67.20,66.77,944.95,1,84,-143
1512177110,0.0133,-0.0154,-0.0269,-9.40,48.22,1004.27,17,89,-138
1512177110,0.0144,-0.0101,-0.0237,-28.20,25.76,901.49,17,89,-138
1512177110,-0.0193,-0.0044,-0.0225,-35.46,15.69,895.87,17,89,-138
1512177110,0.0009,-0.0031,-0.0189,-23.13,26.00,866.03,17,89,-138
1512177110,-0.0059,-0.0089,-0.0260,4.70,35.46,921.26,17,89,-138
1512177111,0.0032,-0.0088,-0.0201,39.37,83.86,882.14,7,68,-152
1512177111,0.0043,-0.0031,-0.0249,-14.59,73.61,957.21,7,68,-152
1512177111,0.0201,-0.0076,-0.0230,11.90,44.80,924.38,7,68,-152
1512177111,0.0162,-0.0044,-0.0208,21.24,70.92,880.00,7,68,-152
1512177111,-0.0011,0.0027,-0.0213,-24.23,59.63,880.55,7,68,-152
1512177111,-0.0169,-0.0048,-0.0256,21.61,49.80,890.01,1,88,-140
1512177111,-0.0129,-0.0128,-0.0249,-31.43,0.55,985.90,1,88,-140
1512177111,0.0220,-0.0037,-0.0225,-11.23,20.32,877.81,1,88,-140
1512177111,-0.0056,-0.0185,-0.0224,-11.96,37.84,880.55,1,88,-140
1512177111,-0.0158,-0.0322,-0.0234,27.59,63.60,904.36,-7,100,-128
1512177111,0.0084,-0.0016,-0.0225,-17.27,69.09,887.57,-7,100,-128
1512177111,-0.0003,0.0013,-0.0273,-11.84,23.01,938.54,-7,100,-128
1512177111,-0.0101,-0.0160,-0.0286,2.08,43.03,989.50,-7,100,-128
1512177111,-0.0116,-0.0180,-0.0234,-16.60,50.48,942.69,-7,100,-128
1512177111,-0.0217,-0.0154,-0.0289,4.03,37.41,956.73,1,95,-130
1512177111,-0.0192,-0.0148,-0.0256,-34.42,29.85,943.73,1,95,-130
1512177111,-0.0150,-0.0119,-0.0218,-64.88,26.37,891.36,1,95,-130
1512177111,-0.0152,-0.0127,-0.0292,-55.05,20.51,893.25,1,95,-130
1512177111,-0.0031,-0.0201,-0.0241,-80.99,78.43,1004.09,1,95,-130
1512177111,-0.0072,-0.0166,-0.0217,-68.85,-15.75,913.02,19,81,-120
1512177111,-0.0013,-0.0205,-0.0288,-70.68,5.31,869.51,19,81,-120
1512177111,-0.0061,-0.0071,-0.0254,-38.94,40.16,937.87,19,81,-120
1512177111,0.0125,-0.0016,-0.0312,-65.43,24.29,916.87,19,81,-120
1512177111,-0.0003,-0.0015,-0.0342,-61.77,44.56,878.17,26,84,-110
1512177111,-0.0285,-0.0060,-0.0349,-7.87,22.46,874.39,26,84,-110
1512177111,-0.0337,-0.0088,-0.0244,-32.04,14.83,914.79,26,84,-110
1512177111,-0.0115,-0.0190,-0.0309,5.49,10.01,938.54,26,84,-110
1512177111,-0.0008,-0.0132,-0.0245,-14.34,10.80,920.53,26,84,-110
1512177111,-0.0020,0.0011,-0.0208,-9.64,7.87,888.12,21,82,-128
1512177111,0.0146,0.0079,-0.0213,-20.81,38.94,917.05,21,82,-128
1512177111,-0.0027,-0.0039,-0.0313,43.46,70.07,932.80,21,82,-128
1512177111,-0.0198,-0.0109,-0.0182,22.77,-0.37,905.21,21,82,-128
1512177111,-0.0043,-0.0180,-0.0244,-13.49,62.81,932.50,21,82,-128
1512177111,-0.0169,-0.0246,-0.0218,-19.84,44.13,917.11,36,74,-133
1512177111,-0.0357,-0.0214,-0.0265,28.56,48.16,921.26,36,74,-133
1512177111,-0.0284,-0.0161,-0.0220,7.32,20.87,909.67,36,74,-133
1512177111,0.0084,-0.0008,-0.0210,41.81,34.30,882.87,36,74,-133
1512177111,-0.0055,-0.0089,-0.0225,-5.19,43.09,939.21,28,72,-132
1512177112,-0.0021,-0.0115,-0.0302,0.61,37.90,909.42,28,72,-132
1512177112,-0.0031,-0.0095,-0.0316,25.09,39.61,939.27,28,72,-132
1512177112,-0.0178,-0.0109,-0.0217,35.28,20.45,906.62,28,72,-132
1512177112,-0.0148,-0.0064,-0.0189,-24.54,35.64,912.17,28,72,-132
1512177112,-0.0060,-0.0084,-0.0300,12.27,21.55,914.18,35,68,-132
1512177112,-0.0165,-0.0218,-0.0256,-6.53,15.32,872.62,35,68,-132
1512177112,0.0021,-0.0140,-0.0241,3.30,-21.85,860.11,35,68,-132
1512177112,0.0015,-0.0165,-0.0128,15.69,-17.58,868.77,35,68,-132
1512177112,0.0221,-0.0077,-0.0200,-13.24,41.69,927.06,35,68,-132
1512177112,0.0016,-0.0051,-0.0258,47.61,15.75,938.35,47,81,-130
1512177112,0.0085,-0.0101,-0.0228,18.49,24.66,943.97,47,81,-130
1512177112,-0.0096,-0.0192,-0.0153,48.52,35.40,967.35,47,81,-130
1512177112,-0.0036,-0.0161,-0.0024,21.67,17.94,940.25,47,81,-130
1512177112,-0.0241,-0.0119,-0.0093,-1.16,22.34,952.82,21,93,-128
1512177112,-0.0019,-0.0029,-0.0089,11.11,16.66,900.76,21,93,-128
1512177112,-0.0189,-0.0173,-0.0076,13.98,37.11,910.22,21,93,-128
1512177112,-0.0048,-0.0104,-0.0100,-8.36,-9.70,879.58,21,93,-128
1512177112,-0.0205,-0.0096,-0.0105,-6.84,48.34,937.44,21,93,-128
1512177112,-0.0048,-0.0130,-0.0056,4.70,10.07,949.65,42,82,-135
1512177112,0.0277,-0.0065,-0.0134,-41.08,39.31,943.73,42,82,-135
1512177112,0.0033,0.0012,-0.0025,-17.09,37.05,902.16,42,82,-135
1512177112,-0.0108,0.0009,-0.0017,-2.20,25.51,918.88,42,82,-135
1512177112,0.0068,0.0113,-0.0064,-26.18,30.03,902.40,29,74,-137
1512177112,-0.0285,-0.0093,-0.0057,1.89,-4.15,895.02,29,74,-137
1512177112,-0.0121,-0.0104,0.0000,26.37,7.75,875.49,29,74,-137
1512177112,-0.0031,-0.0099,0.0031,-0.06,48.34,927.86,29,74,-137
1512177112,-0.0001,-0.0224,0.0017,-26.31,11.60,945.98,29,74,-137
1512177112,0.0115,-0.0136,0.0060,37.66,38.70,889.04,28,82,-125
1512177112,-0.0003,-0.0088,0.0076,-5.07,19.65,897.03,28,82,-125
1512177112,-0.0052,-0.0019,0.0073,14.83,38.15,871.34,28,82,-125
1512177112,-0.0160,-0.0108,0.0079,11.72,35.03,921.75,28,82,-125
1512177112,-0.0188,-0.0124,0.0088,23.25,55.36,944.03,28,82,-125
1512177112,-0.0060,-0.0013,0.0113,48.52,42.05,925.54,33,91,-137
1512177112,-0.0105,-0.0023,0.0128,45.65,16.17,896.79,33,91,-137
1512177112,-0.0154,0.0039,0.0136,69.34,18.86,858.03,33,91,-137
1512177112,-0.0172,-0.0153,0.0217,64.15,13.61,903.38,33,91,-137
1512177112,-0.0041,-0.0246,0.0282,49.87,26.25,938.84,15,91,-147
1512177112,0.0072,-0.0124,0.0290,27.10,10.80,932.74,15,91,-147
1512177113,0.0157,-0.0109,0.0341,28.87,-5.86,936.04,15,91,-147
1512177113,0.0321,-0.0013,0.0280,-23.50,30.27,943.36,15,91,-147
1512177113,0.0100,-0.0053,0.0336,5.74,6.47,956.60,15,91,-147
1512177113,-0.0067,-0.0056,0.0346,-11.35,9.22,963.81,28,79,-108
1512177113,-0.0185,-0.0009,0.0332,-31.92,31.86,921.14,28,79,-108
1512177113,-0.0178,-0.0188,0.0373,25.70,1.34,960.88,28,79,-108
1512177113,0.0113,-0.0104,0.0389,35.10,-24.29,902.59,28,79,-108
1512177113,-0.0237,-0.0181,0.0519,65.43,4.27,880.92,28,79,-108
1512177113,-0.0141,-0.0185,0.0599,53.96,12.21,938.78,26,84,-147
1512177113,0.0133,-0.0196,0.0537,22.71,6.65,928.22,26,84,-147
1512177113,0.0031,-0.0149,0.0607,21.24,-9.95,887.57,26,84,-147
1512177113,-0.0154,-0.0184,0.0638,114.99,-29.66,882.75,26,84,-147
1512177113,-0.0016,-0.0012,0.0694,103.39,-32.90,935.00,12,88,-137
1512177113,-0.0150,-0.0061,0.0654,42.72,-63.54,980.10,12,88,-137
1512177113,0.0073,0.0020,0.0555,102.78,-45.59,881.16,12,88,-137
1512177113,-0.0268,-0.0138,0.0811,105.59,-60.12,916.99,12,88,-137
1512177113,-0.0080,-0.0410,0.0856,152.47,-59.14,873.17,12,88,-137
1512177113,-0.0268,-0.0313,0.0992,138.55,-45.29,844.42,19,66,-154
1512177113,-0.0059,-0.0226,0.1032,138.55,-53.89,924.38,19,66,-154
1512177113,-0.0012,-0.0190,0.1051,173.95,-56.58,909.42,19,66,-154
1512177113,-0.0060,-0.0153,0.1092,125.92,-40.47,917.18,19,66,-154
1512177113,-0.0037,-0.0037,0.1149,117.43,-41.32,907.47,22,66,-147
1512177113,-0.0145,-0.0165,0.1107,163.45,-15.99,897.03,22,66,-147
1512177113,-0.0293,-0.0264,0.1108,111.15,-18.86,913.51,22,66,-147
1512177113,-0.0028,-0.0093,0.1333,46.75,-57.19,930.60,22,66,-147
1512177113,0.0104,0.0000,0.1364,52.25,-42.42,916.87,22,66,-147
1512177113,-0.0233,-0.0240,0.1394,144.84,-21.79,845.28,14,65,-132
1512177113,-0.0262,-0.0198,0.1475,135.44,-70.43,941.53,14,65,-132
1512177113,0.0152,-0.0019,0.1511,169.37,-43.15,894.04,14,65,-132
1512177113,0.0008,-0.0041,0.1482,186.83,-66.65,865.84,14,65,-132
1512177113,-0.0241,0.0061,0.1712,177.55,-79.59,905.09,14,65,-132
1512177113,0.0017,-0.0158,0.1618,203.25,3.23,890.81,-1,70,-143
1512177113,-0.0033,-0.0182,0.1634,131.65,-111.27,972.23,-1,70,-143
1512177113,0.0312,0.0065,0.1760,147.52,-56.58,880.07,-1,70,-143
1512177113,-0.0244,-0.0137,0.1692,108.22,-75.44,997.86,-1,70,-143
1512177113,0.0182,0.0040,0.1852,100.28,-44.31,962.16,19,77,-133
1512177113,-0.0076,-0.0089,0.1866,106.32,-24.23,916.08,19,77,-133
1512177114,-0.0293,-0.0173,0.1872,97.78,-91.98,897.16,19,77,-133
1512177114,0.0039,0.0009,0.1915,94.12,-28.75,950.32,19,77,-133
1512177114,-0.0108,0.0100,0.1967,121.70,-28.26,945.43,19,77,-133
1512177114,0.0020,0.0421,0.1971,134.95,-57.92,1021.55,14,75,-148
1512177114,-0.0168,0.0563,0.2044,144.78,-24.05,874.94,14,75,-148
1512177114,-0.0859,0.0044,0.1890,162.48,-65.55,978.94,14,75,-148
1512177114,-0.0381,0.0169,0.1964,156.86,-35.16,958.13,14,75,-148
1512177114,-0.0290,0.0266,0.2001,133.67,-69.09,924.80,14,75,-148
1512177114,0.0498,0.0433,0.2132,137.94,-82.40,923.52,17,93,-138
1512177114,0.0257,0.0240,0.2091,175.29,-45.04,890.93,17,93,-138
1512177114,-0.0044,0.0221,0.2206,133.18,-72.33,894.90,17,93,-138
1512177114,0.0278,0.0222,0.2244,89.05,-64.03,903.38,17,93,-138
1512177114,0.0153,0.0127,0.2258,117.07,-55.60,850.77,10,96,-142
1512177114,0.0013,-0.0132,0.2233,88.87,-48.65,932.68,10,96,-142
1512177114,0.0105,-0.0387,0.2321,78.12,-54.08,863.95,10,96,-142
1512177114,0.0387,-0.0056,0.2342,61.89,-52.12,908.26,10,96,-142
1512177114,0.0116,-0.0063,0.2306,135.86,-78.25,924.68,10,96,-142
1512177114,0.0061,-0.0033,0.2411,183.04,-94.48,880.00,-8,95,-126
1512177114,-0.0146,-0.0341,0.2570,160.58,-87.59,801.64,-8,95,-126
1512177114,-0.0229,-0.0282,0.2498,134.89,-40.10,911.32,-8,95,-126
1512177114,-0.0704,-0.0507,0.2285,181.09,-38.64,928.65,-8,95,-126
1512177114,0.0153,0.0000,0.2475,143.49,-38.27,1016.11,-8,95,-126
1512177114,0.0682,0.0483,0.2571,112.92,-29.30,1019.35,-17,86,-159
1512177114,0.0009,0.0057,0.2550,124.27,-19.17,975.10,-17,86,-159
1512177114,-0.0152,0.0132,0.2547,145.63,-61.10,943.54,-17,86,-159
1512177114,-0.0226,-0.0031,0.2583,114.50,-11.96,958.50,-17,86,-159
1512177114,-0.0389,-0.0198,0.2543,115.72,-57.19,941.22,-17,93,-145
1512177114,0.0226,0.0129,0.2619,85.39,-22.28,934.20,-17,93,-145
1512177114,-0.0391,-0.0177,0.2535,135.44,-93.63,900.70,-17,93,-145
1512177114,0.0049,0.0148,0.2461,179.26,-110.05,865.72,-17,93,-145
1512177114,0.0141,0.0265,0.2529,156.98,-11.54,925.96,-17,93,-145
1512177114,-0.0142,0.0225,0.2421,198.49,-75.07,931.52,-35,93,-142
1512177114,0.0354,0.0382,0.2554,86.36,-19.71,888.00,-35,93,-142
1512177114,0.0096,0.0348,0.2482,132.26,-30.82,970.76,-35,93,-142
1512177114,0.0150,0.0308,0.2537,156.43,-44.98,904.11,-35,93,-142
1512177114,0.0326,0.0525,0.2601,141.24,-47.61,859.62,-35,82,-145
1512177114,-0.0146,0.0099,0.2585,109.62,-14.40,871.70,-35,82,-145
1512177114,-0.0103,0.0160,0.2610,88.62,-23.93,960.51,-35,82,-145
1512177115,-0.0028,0.0434,0.2715,99.43,-50.23,970.64,-35,82,-145
1512177115,0.0061,0.0527,0.2739,89.72,-15.99,967.29,-35,82,-145
1512177115,0.0011,0.0676,0.2686,196.72,-76.42,903.69,-38,93,-145
1512177115,-0.0145,0.0802,0.2730,185.79,-75.81,908.08,-38,93,-145
1512177115,-0.0334,0.0196,0.2530,149.90,-56.03,836.49,-38,93,-145
1512177115,-0.0611,0.0084,0.2522,89.78,-91.98,841.43,-38,93,-145
1512177115,-0.0470,0.0206,0.2511,139.89,-34.12,856.69,-38,93,-145
1512177115,-0.0212,-0.0024,0.2654,108.58,-65.25,898.01,-54,88,-154
1512177115,0.0431,0.0209,0.2770,111.27,-30.70,986.02,-54,88,-154
1512177115,0.0284,0.0153,0.2775,118.10,-58.04,973.21,-54,88,-154
1512177115,0.0145,0.0334,0.2787,136.66,-27.71,903.81,-54,88,-154
1512177115,-0.0116,0.0312,0.2654,151.55,-22.77,887.57,-63,75,-135
1512177115,-0.0216,0.0429,0.2649,135.68,-55.05,948.85,-63,75,-135
1512177115,-0.0029,0.0369,0.2727,174.62,-71.53,868.59,-63,75,-135
1512177115,-0.0115,0.0352,0.2708,149.29,-20.75,946.29,-63,75,-135
1512177115,-0.0180,-0.0229,0.2711,140.62,-52.49,963.50,-63,75,-135
1512177115,-0.0039,0.0119,0.2792,119.45,-36.87,887.57,-66,89,-152
1512177115,-0.0101,-0.0035,0.2803,73.12,-52.67,1018.07,-66,89,-152
1512177115,0.0198,0.0240,0.2872,88.26,-45.35,1009.64,-66,89,-152
1512177115,0.0354,0.0232,0.2882,95.52,-32.04,974.55,-66,89,-152
1512177115,0.0173,0.0141,0.2828,97.78,-19.29,947.51,-75,98,-120
1512177115,-0.0268,0.0031,0.2678,86.43,-72.69,1000.24,-75,98,-120
1512177115,0.0005,0.0281,0.2647,88.81,-29.11,941.16,-75,98,-120
1512177115,-0.0190,0.0012,0.2649,94.79,-59.51,946.90,-75,98,-120
1512177115,0.0205,0.0208,0.2630,84.35,-61.22,935.79,-75,98,-120
1512177115,0.0423,0.0655,0.2679,130.55,-69.34,842.65,-65,91,-140
1512177115,-0.0039,0.0097,0.2614,94.24,-80.57,812.93,-65,91,-140
1512177115,-0.0084,0.0087,0.2581,171.57,-48.28,806.88,-65,91,-140
1512177115,-0.0081,-0.0068,0.2682,121.58,-66.65,837.71,-65,91,-140
1512177115,0.0302,0.0017,0.2731,99.55,-79.47,906.07,-65,91,-140
1512177115,0.0129,0.0120,0.2803,164.12,-48.03,906.13,-89,74,-164
1512177115,0.0619,0.0273,0.2870,137.02,-70.80,973.69,-89,74,-164
1512177115,0.0522,0.0212,0.2878,130.25,-56.40,894.90,-89,74,-164
1512177115,0.0068,-0.0007,0.2763,138.61,-47.49,907.78,-89,74,-164
1512177115,-0.0297,0.0321,0.2676,124.45,-63.23,953.74,-91,93,-138
1512177115,-0.0268,0.0157,0.2553,145.32,-65.49,943.91,-91,93,-138
1512177115,-0.0332,0.0433,0.2562,163.27,-61.58,923.77,-91,93,-138
1512177115,-0.0013,0.0369,0.2583,134.64,-20.57,970.21,-91,93,-138
1512177116,-0.0071,0.0495,0.2577,149.84,-29.05,946.90,-91,93,-138
1512177116,-0.0250,0.0137,0.2641,166.14,-44.43,962.10,-86,81,-164
1512177116,0.0012,-0.0004,0.2666,154.17,-50.23,901.43,-86,81,-164
1512177116,0.0342,0.0096,0.2708,166.87,-26.67,900.09,-86,81,-164
1512177116,0.0164,0.0494,0.2700,207.95,-40.65,911.44,-86,81,-164
1512177116,-0.0108,0.0132,0.2546,106.69,-58.96,934.39,-86,81,-164
1512177116,-0.0124,0.0013,0.2575,87.71,-38.27,952.64,-93,88,-143
1512177116,-0.0043,-0.0019,0.2581,65.49,-67.02,974.49,-93,88,-143
1512177116,-0.0109,-0.0144,0.2595,43.95,-52.61,968.20,-93,88,-143
1512177116,-0.0269,-0.0340,0.2614,60.12,-44.74,875.37,-93,88,-143
1512177116,-0.0647,-0.0222,0.2643,95.58,-64.15,836.30,-103,77,-154
1512177116,-0.0627,-0.0481,0.2623,117.43,-37.23,882.81,-103,77,-154
1512177116,-0.0905,-0.0462,0.2534,194.82,-39.92,907.41,-103,77,-154
1512177116,-0.0312,-0.0184,0.2606,170.96,-49.44,968.51,-103,77,-154
1512177116,-0.0446,-0.0393,0.2723,180.36,-25.70,897.46,-103,77,-154
1512177116,-0.0399,-0.0269,0.2613,94.12,-48.03,878.05,-115,72,-165
1512177116,-0.0503,-0.0145,0.2627,85.63,-35.46,882.93,-115,72,-165
1512177116,-0.0296,-0.0097,0.2623,179.38,-4.46,878.60,-115,72,-165
1512177116,-0.0364,-0.0160,0.2549,145.81,-32.47,945.98,-115,72,-165
1512177116,0.0012,-0.0084,0.2561,182.25,-53.59,902.59,-115,72,-165
1512177116,-0.0352,-0.0397,0.2441,157.65,-43.70,886.60,-112,61,-169
1512177116,-0.0095,-0.0101,0.2418,146.67,-35.83,945.01,-112,61,-169
1512177116,-0.0047,-0.0016,0.2457,157.84,-29.54,941.89,-112,61,-169
1512177116,-0.0146,0.0089,0.2503,177.73,-0.67,872.25,-112,61,-169
1512177116,-0.0213,0.0089,0.2487,139.95,-19.47,932.62,-133,68,-162
1512177116,0.0290,0.0242,0.2486,177.19,-29.42,947.75,-133,68,-162
1512177116,-0.0052,-0.0016,0.2378,135.31,-16.78,973.21,-133,68,-162
1512177116,0.0019,-0.0146,0.2378,130.68,-20.63,990.11,-133,68,-162
1512177116,-0.0119,-0.0381,0.2361,85.39,-1.83,934.14,-133,68,-162
1512177116,-0.0011,-0.0196,0.2356,121.89,12.57,918.03,-131,56,-143
1512177116,0.0056,-0.0250,0.2386,114.87,13.12,970.03,-131,56,-143
1512177116,0.0338,0.0064,0.2354,130.74,1.95,959.47,-131,56,-143
1512177116,-0.0085,0.0008,0.2286,158.02,5.86,916.26,-131,56,-143
1512177116,-0.0450,-0.0097,0.2240,164.43,10.13,892.58,-138,56,-164
1512177116,-0.0277,-0.0052,0.2173,153.50,-2.14,917.97,-138,56,-164
1512177116,-0.0069,0.0204,0.2176,118.23,20.32,894.71,-138,56,-164
1512177116,-0.0091,0.0035,0.2173,105.10,-11.66,883.06,-138,56,-164
1512177116,-0.0216,-0.0007,0.2104,100.10,6.59,889.04,-138,56,-164
1512177117,-0.0033,0.0027,0.2144,114.87,10.38,887.70,-137,51,-165
1512177117,-0.0262,-0.0056,0.2119,142.70,8.48,932.80,-137,51,-165
1512177117,0.0172,0.0081,0.2135,135.68,29.60,972.90,-137,51,-165
1512177117,0.0176,0.0168,0.2127,117.19,17.82,916.02,-137,51,-165
1512177117,-0.0186,0.0080,0.1997,138.12,31.68,919.37,-137,51,-165
1512177117,-0.0232,0.0072,0.1894,153.93,28.56,920.59,-144,58,-165
1512177117,0.0023,0.0121,0.1890,145.20,-8.54,943.30,-144,58,-165
1512177117,0.0037,0.0065,0.1917,118.65,20.32,918.88,-144,58,-165
1512177117,-0.0100,-0.0120,0.1872,109.19,15.69,880.25,-144,58,-165
1512177117,-0.0043,0.0129,0.1886,109.07,3.72,914.25,-140,51,-165
1512177117,-0.0124,0.0087,0.1824,113.46,32.90,969.18,-140,51,-165
1512177117,-0.0238,0.0025,0.1796,89.29,6.16,951.48,-140,51,-165
1512177117,-0.0028,0.0060,0.1766,111.15,32.17,935.91,-140,51,-165
1512177117,-0.0193,0.0011,0.1766,80.38,46.14,907.41,-140,51,-165
1512177117,-0.0182,-0.0023,0.1700,86.91,39.92,866.15,-144,58,-172
1512177117,-0.0193,-0.0073,0.1659,94.54,19.47,920.47,-144,58,-172
1512177117,0.0069,0.0204,0.1668,100.95,24.84,891.24,-144,58,-172
1512177117,-0.0236,0.0127,0.1635,92.77,24.78,867.19,-144,58,-172
1512177117,0.0004,0.0008,0.1610,53.83,46.20,874.45,-144,58,-172
1512177117,-0.0068,0.0039,0.1550,82.64,40.28,909.97,-144,47,-169
1512177117,0.0123,0.0162,0.1526,59.20,27.47,880.31,-144,47,-169
1512177117,-0.0013,0.0134,0.1483,50.72,9.52,901.43,-144,47,-169
1512177117,0.0172,0.0113,0.1453,87.89,15.87,891.36,-144,47,-169
1512177117,0.0194,0.0153,0.1443,50.48,18.13,977.91,-140,44,-172
1512177117,0.0071,0.0120,0.1441,94.85,9.46,896.67,-140,44,-172
1512177117,-0.0013,0.0076,0.1418,109.19,42.11,941.16,-140,44,-172
1512177117,0.0051,0.0144,0.1380,122.25,15.56,894.65,-140,44,-172
1512177117,0.0127,0.0121,0.1354,86.73,2.14,957.28,-140,44,-172
1512177117,0.0294,0.0031,0.1325,55.42,23.68,907.59,-154,26,-172
1512177117,-0.0025,-0.0067,0.1304,60.42,-4.76,906.56,-154,26,-172
1512177117,0.0162,-0.0049,0.1294,17.64,23.80,923.16,-154,26,-172
1512177117,0.0004,0.0016,0.1242,69.58,40.28,888.79,-154,26,-172
1512177117,0.0075,0.0017,0.1200,77.70,29.60,912.72,-154,26,-172
1512177117,0.0023,-0.0063,0.1222,104.43,39.73,890.08,-145,49,-150
1512177117,0.0103,-0.0037,0.1169,48.71,22.64,945.07,-145,49,-150
1512177117,0.0096,-0.0156,0.1133,27.47,20.20,953.98,-145,49,-150
1512177117,0.0317,0.0035,0.1146,57.68,50.11,944.15,-145,49,-150
1512177117,0.0130,-0.0079,0.1085,34.30,34.42,925.42,-152,38,-157
1512177118,0.0260,0.0115,0.1068,87.77,44.49,865.48,-152,38,-157
1512177118,-0.0068,-0.0049,0.0968,50.84,40.16,904.54,-152,38,-157
1512177118,0.0015,-0.0309,0.0996,36.32,70.98,905.15,-152,38,-157
1512177118,-0.0079,-0.0421,0.0943,27.53,29.97,940.31,-152,38,-157
1512177118,0.0068,-0.0242,0.0925,55.05,49.56,918.33,-158,19,-155
1512177118,-0.0113,0.0076,0.0506,67.93,46.20,894.10,-158,19,-155
1512177118,-0.0124,0.0001,0.0748,86.79,34.67,915.53,-158,19,-155
1512177118,-0.0009,-0.0009,0.0836,78.74,60.79,933.41,-158,19,-155
1512177118,-0.0270,-0.0220,0.0843,94.24,62.19,901.92,-158,19,-155
1512177118,-0.0385,-0.0434,0.0798,56.15,8.36,927.00,-154,26,-159
1512177118,0.0140,-0.0232,0.0818,87.28,42.54,931.03,-154,26,-159
1512177118,0.0009,-0.0084,0.0726,103.03,9.77,855.83,-154,26,-159
1512177118,0.0033,0.0213,0.0333,64.94,38.45,889.47,-154,26,-159
1512177118,-0.0226,0.0385,0.0585,97.47,7.39,868.47,-152,45,-150
1512177118,-0.0238,0.0364,0.0549,62.13,2.01,910.40,-152,45,-150
1512177118,-0.0213,0.0047,0.0542,61.40,14.22,883.54,-152,45,-150
1512177118,0.0031,-0.0031,0.0585,30.52,28.56,874.08,-152,45,-150
1512177118,0.0019,-0.0360,0.0609,15.56,27.83,940.25,-152,45,-150
1512177118,0.0220,0.0256,0.0511,44.19,40.95,945.92,-158,19,-159
1512177118,0.0326,0.0296,0.0253,-81.67,61.83,958.25,-158,19,-159
1512177118,-0.0222,-0.0341,0.0481,112.55,-20.14,988.10,-158,19,-159
1512177118,0.0112,-0.0368,0.0455,70.74,34.30,928.41,-158,19,-159
1512177118,-0.0329,-0.0301,0.0237,44.86,32.04,887.33,-158,19,-159
1512177118,-0.0622,-0.0494,0.0025,57.98,-19.96,948.85,-159,28,-137
1512177118,-0.0306,-0.0513,-0.0232,102.66,37.66,884.58,-159,28,-137
1512177118,-0.0035,-0.0380,0.0105,18.55,16.05,940.00,-159,28,-137
1512177118,0.0220,-0.0290,0.0117,25.70,46.94,909.06,-159,28,-137
1512177118,-0.0088,-0.0357,0.0254,5.25,27.95,905.70,-159,17,-154
1512177118,-0.0160,-0.0148,0.0224,33.08,8.97,904.05,-159,17,-154
1512177118,-0.0064,-0.0049,0.0228,59.69,59.02,857.24,-159,17,-154
1512177118,-0.0015,-0.0225,0.0133,74.95,25.76,917.18,-159,17,-154
1512177118,0.0209,-0.0068,0.0205,65.55,12.15,939.09,-159,17,-154
1512177118,0.0236,0.0035,0.0226,43.40,10.74,915.89,-159,31,-160
1512177118,0.0224,-0.0009,0.0186,32.29,41.44,911.13,-159,31,-160
1512177118,-0.0007,0.0095,0.0158,25.94,37.84,868.77,-159,31,-160
1512177118,-0.0438,0.0177,0.0134,9.09,18.68,866.58,-159,31,-160
1512177118,-0.0491,0.0232,0.0157,73.36,20.94,865.72,-156,17,-164
1512177119,-0.0803,0.0029,-0.0039,48.71,28.38,953.55,-156,17,-164
1512177119,-0.0274,-0.0024,-0.0036,6.16,33.75,926.45,-156,17,-164
1512177119,0.0615,0.0021,0.0083,-26.25,57.50,950.01,-156,17,-164
1512177119,0.0458,-0.0100,-0.0013,-38.76,15.08,950.56,-156,17,-164
1512177119,0.0437,-0.0053,-0.0008,8.97,44.31,908.75,-163,10,-157
1512177119,0.0252,-0.0033,0.0083,-4.27,25.27,950.01,-163,10,-157
1512177119,0.0332,-0.0162,0.0087,41.44,53.83,953.06,-163,10,-157
1512177119,0.0085,-0.0273,0.0047,19.47,35.58,895.26,-163,10,-157
1512177119,-0.0005,-0.0161,-0.0093,0.00,40.65,940.86,-163,10,-157
1512177119,0.0061,-0.0561,-0.0539,25.02,26.31,876.46,-165,8,-142
1512177119,-0.0087,-0.0127,-0.0113,19.84,66.35,936.34,-165,8,-142
1512177119,-0.0084,0.0037,-0.0068,24.35,53.65,990.48,-165,8,-142
1512177119,-0.0015,-0.0031,0.0031,53.83,51.76,899.48,-165,8,-142
1512177119,0.0081,-0.0055,0.0017,38.88,44.13,909.91,-168,26,-176
1512177119,0.0115,-0.0105,0.0008,56.15,32.17,896.67,-168,26,-176
1512177119,0.0237,-0.0032,0.0028,28.56,47.12,935.73,-168,26,-176
1512177119,0.0169,0.0146,0.0031,39.98,12.82,897.64,-168,26,-176
1512177119,0.0045,0.0278,0.0003,74.40,47.91,900.02,-168,26,-176
1512177119,0.0068,0.0417,-0.0001,50.72,42.18,881.84,-163,38,-160
1512177119,-0.0031,0.0308,-0.0021,37.90,33.08,922.00,-163,38,-160
1512177119,0.0055,0.0023,-0.0003,58.35,40.71,913.82,-163,38,-160
1512177119,0.0152,0.0035,0.0051,-1.10,26.67,913.27,-163,38,-160
1512177119,0.0326,0.0091,0.0060,21.30,39.98,957.64,-163,38,-160
1512177119,0.0230,0.0228,0.0100,38.82,50.29,910.22,-166,17,-147
1512177119,0.0128,0.0157,0.0045,21.12,36.62,919.92,-166,17,-147
1512177119,0.0027,0.0064,0.0032,43.58,51.88,895.57,-166,17,-147
1512177119,-0.0111,-0.0063,0.0084,24.90,44.56,908.02,-166,17,-147
1512177119,0.0172,0.0242,0.0121,27.47,54.14,922.49,-152,21,-147
1512177119,0.0087,0.0217,0.0180,53.65,49.07,876.89,-152,21,-147
1512177119,-0.0019,0.0152,0.0176,62.93,33.75,879.94,-152,21,-147
1512177119,-0.0196,-0.0001,0.0214,80.20,55.36,936.95,-152,21,-147
1512177119,-0.0141,-0.0119,0.0218,32.90,42.79,949.28,-152,21,-147
1512177119,0.0217,0.0085,0.0197,32.47,44.80,992.13,-158,29,-145
1512177119,0.0253,0.0105,0.0186,41.81,33.02,904.85,-158,29,-145
1512177119,0.0140,0.0158,0.0184,28.99,16.48,908.81,-158,29,-145
1512177119,-0.0015,-0.0111,0.0262,25.76,59.20,896.73,-158,29,-145
1512177119,-0.0169,-0.0332,0.0272,-15.38,56.27,967.10,-158,29,-145
1512177119,0.0146,-0.0258,0.0340,28.02,38.51,940.80,-151,29,-145
1512177120,0.0176,-0.0204,0.0340,41.20,55.48,903.14,-151,29,-145
