  time_unix,rotate_x,rotate_y,rotate_z,acc_x,acc_y,acc_z,mag_x,mag_y,mag_z
  1512176739,-0.0027,-0.0021,0.0005,7.39,-1.16,982.85,-1,12,-1
  1512176739,0.0055,0.0019,0.0000,-3.30,3.91,1030.03,-1,12,-1
  1512176739,-0.0012,-0.0039,-0.0007,-1.46,-0.49,1005.07,-1,12,-1
  1512176739,-0.0039,-0.0047,0.0016,4.46,5.98,993.41,0,7,-10
  1512176739,0.0055,0.0043,-0.0004,-6.41,1.59,1018.25,0,7,-10
  1512176739,0.0019,0.0012,-0.0013,-4.82,-4.39,1010.93,0,7,-10
  1512176739,0.0004,-0.0017,-0.0001,7.02,7.63,1006.71,0,7,-10
  1512176739,-0.0020,-0.0036,-0.0004,0.55,7.02,976.68,0,7,-10
  1512176739,0.0009,0.0020,-0.0009,-4.88,-7.93,1006.47,8,-8,5
  1512176739,0.0033,0.0043,-0.0007,-3.66,6.77,1027.34,8,-8,5
  1512176739,-0.0003,-0.0037,0.0011,-3.72,-0.12,994.45,8,-8,5
  1512176739,-0.0035,0.0000,0.0001,2.81,-2.93,990.11,8,-8,5
  1512176739,0.0043,0.0057,-0.0009,-6.16,3.66,1020.20,3,-7,-3
  1512176739,-0.0019,0.0011,-0.0009,-7.57,0.31,1011.23,3,-7,-3
  1512176739,-0.0028,-0.0057,-0.0013,6.29,-2.01,986.51,3,-7,-3
  1512176739,0.0044,0.0016,-0.0020,-2.87,4.64,994.32,3,-7,-3
  1512176739,0.0013,0.0023,-0.0016,-4.46,-8.00,1006.10,3,-7,-3
  1512176739,-0.0036,-0.0065,-0.0001,4.88,6.35,999.15,3,-7,10
  1512176739,-0.0003,-0.0009,0.0004,4.09,1.83,975.52,3,-7,10
  1512176739,0.0004,0.0011,-0.0004,-0.49,-4.46,993.47,3,-7,10
  1512176739,0.0052,0.0045,-0.0008,-8.30,4.70,1022.22,3,-7,10
  1512176739,-0.0001,-0.0011,0.0003,-5.13,-4.58,1010.07,3,-7,10
  1512176739,-0.0043,-0.0044,-0.0019,3.72,-0.79,982.36,1,5,-5
  1512176739,0.0040,0.0032,0.0013,-1.16,4.09,1003.97,1,5,-5
  1512176739,0.0032,0.0027,-0.0017,-7.02,-6.10,1013.92,1,5,-5
  1512176739,0.0013,-0.0001,0.0009,1.53,9.95,1012.21,1,5,-5
  1512176739,-0.0005,-0.0001,0.0003,4.64,4.82,973.82,-5,-1,-5
  1512176739,-0.0020,0.0004,-0.0012,-0.43,-5.37,993.71,-5,-1,-5
  1512176740,0.0043,0.0029,-0.0008,-1.34,9.16,1027.77,-5,-1,-5
  1512176740,-0.0029,-0.0015,-0.0011,3.23,0.37,976.68,-5,-1,-5
  1512176740,-0.0039,-0.0032,-0.0019,6.84,-0.73,979.31,-5,-1,-5
  1512176740,0.0043,0.0044,-0.0008,-5.07,1.83,1005.68,3,-7,0
  1512176740,-0.0011,-0.0043,0.0013,-4.58,1.46,998.90,3,-7,0
  1512176740,-0.0036,-0.0036,0.0017,6.10,0.18,988.16,3,-7,0
  1512176740,0.0019,0.0007,-0.0003,3.66,1.16,987.00,3,-7,0
  1512176740,0.0012,0.0028,-0.0008,-3.36,-7.14,999.33,3,-7,0
  1512176740,-0.0027,-0.0025,-0.0004,3.48,4.88,1002.81,-8,-1,5
  1512176740,-0.0005,-0.0024,0.0001,3.42,4.82,973.33,-8,-1,5
  1512176740,-0.0017,0.0011,0.0001,8.18,-3.17,988.10,-8,-1,5
  1512176740,0.0051,0.0032,-0.0016,-8.18,3.48,1014.95,-8,-1,5
  1512176740,-0.0035,-0.0024,-0.0012,0.31,0.24,986.94,-12,5,1
  1512176740,-0.0037,-0.0040,-0.0019,-0.98,-5.98,984.01,-12,5,1
  1512176740,0.0056,0.0055,-0.0032,-27.77,-47.00,1009.52,-12,5,1
  1512176740,-0.0008,-0.0012,-0.0060,-11.29,-64.45,998.35,-12,5,1
  1512176740,-0.0033,-0.0056,-0.0088,0.61,-60.42,990.42,-12,5,1
  1512176740,-0.0001,-0.0009,-0.0127,-8.36,-61.77,965.09,-3,0,3
  1512176740,-0.0032,-0.0025,-0.0184,-8.30,-76.42,985.35,-3,0,3
  1512176740,0.0004,0.0012,-0.0186,-21.18,-64.21,1022.46,-3,0,3
  1512176740,-0.0001,-0.0013,-0.0216,-22.77,-79.71,983.15,-3,0,3
  1512176740,-0.0027,-0.0017,-0.0200,-24.41,-82.58,997.74,8,-8,-1
  1512176740,0.0040,0.0028,-0.0217,-20.32,-74.77,1017.33,8,-8,-1
  1512176740,0.0016,-0.0037,-0.0248,-19.35,-84.78,998.90,8,-8,-1
  1512176740,0.0008,-0.0043,-0.0282,-15.38,-70.19,1004.46,8,-8,-1
  1512176740,0.0044,-0.0003,-0.0338,-18.43,-60.97,988.28,8,-8,-1
  1512176740,0.0045,-0.0025,-0.0397,-25.15,-76.42,1010.86,-8,-1,-5
  1512176740,0.0083,-0.0024,-0.0421,-22.95,-56.40,1017.21,-8,-1,-5
  1512176740,0.0057,-0.0057,-0.0431,-21.79,-55.48,971.19,-8,-1,-5
  1512176740,0.0043,-0.0024,-0.0467,-24.54,-80.75,989.93,-8,-1,-5
  1512176740,0.0076,-0.0027,-0.0478,-15.93,-51.33,1018.25,-8,-1,-5
  1512176740,0.0039,-0.0087,-0.0498,-15.99,-64.27,989.99,-12,1,-1
  1512176740,-0.0004,-0.0091,-0.0527,-12.94,-71.29,998.60,-12,1,-1
  1512176740,0.0053,-0.0035,-0.0553,-9.34,-51.39,1027.53,-12,1,-1
  1512176740,0.0033,-0.0077,-0.0565,-18.43,-64.09,991.15,-12,1,-1
  1512176740,0.0011,-0.0088,-0.0599,-13.43,-58.78,993.10,7,-7,0
  1512176740,0.0077,-0.0039,-0.0606,-7.57,-35.77,1010.31,7,-7,0
  1512176740,0.0076,-0.0096,-0.0636,-13.24,-49.26,994.69,7,-7,0
  1512176741,0.0024,-0.0120,-0.0634,-37.05,-20.81,1037.60,7,-7,0
  1512176741,0.0112,-0.0075,-0.0679,-24.29,-38.27,1058.53,7,-7,0
  1512176741,0.0079,-0.0073,-0.0666,-31.31,-58.04,1015.87,-17,3,-20
  1512176741,0.0044,-0.0128,-0.0670,-20.08,-44.80,1029.97,-17,3,-20
  1512176741,0.0056,-0.0092,-0.0702,-13.92,-33.14,1025.09,-17,3,-20
  1512176741,0.0008,-0.0088,-0.0720,-9.95,-51.82,1007.75,-17,3,-20
  1512176741,-0.0028,-0.0165,-0.0743,7.69,-42.79,1001.10,-17,3,-20
  1512176741,0.0037,-0.0144,-0.0732,17.21,-25.63,1006.04,0,-3,6
  1512176741,0.0016,-0.0185,-0.0718,12.39,-54.38,1002.75,0,-3,6
  1512176741,0.0012,-0.0240,-0.0707,13.18,-37.84,1010.38,0,-3,6
  1512176741,0.0077,-0.0194,-0.0654,18.49,-31.68,1012.45,0,-3,6
  1512176741,0.0041,-0.0237,-0.0635,14.22,-63.29,1010.31,-3,7,-23
  1512176741,0.0041,-0.0233,-0.0603,15.87,-41.38,1019.23,-3,7,-23
  1512176741,0.0019,-0.0170,-0.0590,47.91,-38.45,1022.28,-3,7,-23
  1512176741,0.0021,-0.0172,-0.0585,33.51,-61.10,992.74,-3,7,-23
  1512176741,-0.0016,-0.0149,-0.0570,31.92,-41.02,984.50,-3,7,-23
  1512176741,0.0056,-0.0057,-0.0566,30.15,-31.31,1039.79,-5,-15,-1
  1512176741,0.0039,-0.0105,-0.0515,16.36,-47.61,1009.09,-5,-15,-1
  1512176741,0.0044,-0.0103,-0.0494,11.90,-20.94,1001.89,-5,-15,-1
  1512176741,0.0076,0.0032,-0.0458,27.71,-6.29,1030.70,-5,-15,-1
  1512176741,0.0027,0.0061,-0.0474,33.81,-31.80,1017.70,-5,-12,-5
  1512176741,-0.0067,0.0040,-0.0478,41.08,-22.03,1004.94,-5,-12,-5
  1512176741,-0.0019,0.0124,-0.0461,30.15,-16.30,1034.42,-5,-12,-5
  1512176741,-0.0063,0.0020,-0.0415,31.80,-53.41,1012.27,-5,-12,-5
  1512176741,-0.0117,-0.0067,-0.0341,33.33,-42.48,1024.23,-5,-12,-5
  1512176741,-0.0095,-0.0017,-0.0269,26.12,-19.41,1028.20,-10,-3,-10
  1512176741,-0.0060,0.0189,-0.0192,27.28,-34.67,1029.91,-10,-3,-10
  1512176741,-0.0105,0.0226,-0.0217,24.54,-15.81,1012.21,-10,-3,-10
  1512176741,-0.0045,0.0210,-0.0201,30.27,-4.76,997.74,-10,-3,-10
  1512176741,-0.0071,0.0127,-0.0202,29.72,-53.10,1007.69,-10,-3,-10
  1512176741,-0.0041,-0.0049,-0.0119,26.00,-45.23,994.20,-3,0,6
  1512176741,-0.0016,-0.0044,-0.0044,29.36,-40.71,995.36,-3,0,6
  1512176741,-0.0053,-0.0064,0.0075,17.15,-75.01,982.48,-3,0,6
  1512176741,-0.0048,-0.0097,0.0162,38.94,-68.18,968.93,-3,0,6
  1512176741,0.0005,-0.0140,0.0250,16.30,-53.53,986.39,-10,7,0
  1512176741,0.0037,-0.0285,0.0314,7.26,-70.80,991.94,-10,7,0
  1512176741,0.0011,-0.0426,0.0338,12.70,-57.56,977.60,-10,7,0
  1512176742,0.0132,-0.0269,0.0342,8.36,-25.94,1021.00,-10,7,0
  1512176742,0.0057,-0.0362,0.0345,17.82,-39.98,1012.82,-10,7,0
  1512176742,0.0003,-0.0368,0.0337,14.28,-29.85,995.18,-7,-10,0
  1512176742,0.0069,-0.0226,0.0341,1.40,-15.99,1017.52,-7,-10,0
  1512176742,0.0025,-0.0257,0.0377,3.54,-45.90,1027.28,-7,-10,0
  1512176742,-0.0104,-0.0491,0.0402,57.50,-46.88,1008.12,-7,-10,0
  1512176742,-0.0060,-0.0543,0.0462,52.49,-55.48,1020.20,-5,-12,-15
  1512176742,-0.0061,-0.0471,0.0539,54.14,-76.35,969.54,-5,-12,-15
  1512176742,-0.0049,-0.0328,0.0499,73.18,-65.98,982.60,-5,-12,-15
  1512176742,0.0005,-0.0214,0.0703,67.50,-63.29,1011.60,-5,-12,-15
  1512176742,-0.0003,-0.0254,0.0699,96.98,-79.77,985.05,-5,-12,-15
  1512176742,0.0021,-0.0214,0.0790,74.89,-53.83,984.31,-14,-3,-10
  1512176742,0.0181,-0.0080,0.0542,38.21,-84.41,953.61,-14,-3,-10
  1512176742,0.0136,-0.0051,0.1027,57.13,-90.64,978.64,-14,-3,-10
  1512176742,0.0246,-0.0027,0.1095,34.00,-63.72,1010.62,-14,-3,-10
  1512176742,0.0294,0.0073,0.1161,15.56,-58.65,1006.65,-14,-3,-10
  1512176742,0.0289,0.0077,0.1193,31.49,-74.46,1015.50,1,-8,-5
  1512176742,0.0293,0.0040,0.1278,13.00,-66.59,1021.12,1,-8,-5
  1512176742,0.0294,0.0051,0.1317,41.44,-47.91,983.46,1,-8,-5
  1512176742,0.0214,0.0016,0.1353,50.96,-79.71,978.64,1,-8,-5
  1512176742,0.0264,-0.0001,0.1438,39.18,-61.40,1012.08,8,1,1
  1512176742,0.0250,0.0015,0.1503,41.63,-41.99,987.85,8,1,1
  1512176742,0.0216,-0.0003,0.1549,33.51,-77.88,1010.25,8,1,1
  1512176742,0.0196,-0.0032,0.1599,39.37,-55.05,1009.58,8,1,1
  1512176742,0.0217,-0.0063,0.1671,53.28,-36.99,999.88,8,1,1
  1512176742,0.0196,-0.0051,0.1692,58.41,-68.54,979.86,1,5,-11
  1512176742,0.0097,-0.0197,0.1730,102.72,-54.75,1010.93,1,5,-11
  1512176742,0.0214,-0.0180,0.1816,76.42,-19.96,988.83,1,5,-11
  1512176742,0.0176,-0.0079,0.1860,91.49,-68.73,992.13,1,5,-11
  1512176742,0.0157,-0.0088,0.1944,87.95,-29.30,1015.69,1,5,-11
  1512176742,0.0186,-0.0028,0.2029,95.28,-28.44,1009.03,7,-14,-6
  1512176742,0.0176,0.0003,0.2068,86.55,-49.32,1002.62,7,-14,-6
  1512176742,0.0105,-0.0079,0.2196,85.75,-28.63,1017.40,7,-14,-6
  1512176742,0.0185,-0.0095,0.2262,71.47,-31.98,1027.04,7,-14,-6
  1512176742,0.0216,-0.0076,0.2334,65.80,-34.18,989.81,15,-8,-5
  1512176742,0.0149,-0.0049,0.2386,102.17,-43.27,987.98,15,-8,-5
  1512176742,0.0119,-0.0079,0.2413,87.59,-44.62,992.43,15,-8,-5
  1512176742,0.0137,-0.0037,0.2469,111.08,-31.86,962.77,15,-8,-5
  1512176743,0.0064,0.0007,0.2458,86.36,-53.59,988.40,15,-8,-5
  1512176743,0.0008,0.0145,0.2465,84.66,-44.31,1019.71,7,-3,-16
  1512176743,0.0036,0.0269,0.2463,76.05,-34.79,1023.86,7,-3,-16
  1512176743,-0.0108,0.0300,0.2498,98.02,-32.41,969.30,7,-3,-16
  1512176743,-0.0132,0.0204,0.2506,73.61,-60.30,984.68,7,-3,-16
  1512176743,-0.0075,0.0129,0.2586,73.12,-26.31,1047.73,21,-3,-3
  1512176743,0.0051,0.0109,0.2659,79.41,-34.30,1034.67,21,-3,-3
  1512176743,0.0132,0.0190,0.2718,77.15,-24.41,1017.27,21,-3,-3
  1512176743,0.0040,0.0184,0.2742,112.79,-61.16,962.95,21,-3,-3
  1512176743,0.0016,0.0161,0.2735,93.81,-57.31,1007.57,21,-3,-3
  1512176743,0.0049,0.0285,0.2695,97.35,-51.03,1020.63,15,1,-15
  1512176743,0.0077,0.0268,0.2646,105.10,-28.50,1062.74,15,1,-15
  1512176743,0.0164,0.0372,0.2642,86.61,-48.28,1020.39,15,1,-15
  1512176743,0.0081,0.0365,0.2688,85.69,-68.30,924.74,15,1,-15
  1512176743,-0.0020,0.0092,0.2770,81.79,-67.20,917.05,15,1,-15
  1512176743,-0.0003,-0.0019,0.2854,87.46,-71.41,953.80,19,5,-18
  1512176743,-0.0029,-0.0172,0.2872,132.26,-54.38,997.92,19,5,-18
  1512176743,-0.0023,0.0073,0.2913,63.35,-71.72,1051.21,19,5,-18
  1512176743,-0.0226,0.0080,0.2908,118.10,-68.66,1030.70,19,5,-18
  1512176743,-0.0250,0.0016,0.2961,93.57,-52.86,970.03,43,5,-1
  1512176743,-0.0353,0.0081,0.2936,119.38,-55.11,1031.98,43,5,-1
  1512176743,-0.0321,-0.0016,0.2892,132.75,-34.67,1051.27,43,5,-1
  1512176743,0.0063,-0.0051,0.3218,93.63,-40.83,1023.25,43,5,-1
  1512176743,-0.0182,0.0012,0.3159,120.12,-43.27,1000.37,43,5,-1
  1512176743,-0.0004,0.0068,0.3253,86.67,-53.53,1064.45,36,8,-8
  1512176743,-0.0017,0.0032,0.3218,147.03,-68.12,1033.57,36,8,-8
  1512176743,0.0104,0.0015,0.3193,168.88,-39.92,1017.88,36,8,-8
  1512176743,0.0206,0.0510,0.3129,102.11,-43.64,1092.16,36,8,-8
  1512176743,0.0336,0.0667,0.3063,129.52,2.75,1044.62,36,8,-8
  1512176743,0.0445,0.0704,0.3012,139.16,-75.01,992.74,29,19,-1
  1512176743,0.0462,0.0888,0.3139,87.95,-42.18,856.45,29,19,-1
  1512176743,0.0340,0.0505,0.3224,66.10,-75.20,915.71,29,19,-1
  1512176743,0.0214,0.0076,0.3312,38.45,-73.06,933.41,29,19,-1
  1512176743,0.0031,-0.0269,0.3474,69.46,-57.25,881.04,33,22,1
  1512176743,0.0130,-0.0258,0.3634,11.78,-64.64,979.49,33,22,1
  1512176743,-0.0137,-0.0184,0.3485,64.15,-43.33,1028.93,33,22,1
  1512176743,-0.0391,-0.0198,0.3422,66.47,-46.45,1045.35,33,22,1
  1512176743,-0.0489,-0.0196,0.3412,122.74,-46.63,1029.72,33,22,1
  1512176744,-0.0297,-0.0260,0.3431,93.69,-14.34,1063.29,52,35,-6
  1512176744,-0.0314,-0.0401,0.3471,112.73,-35.34,1061.52,52,35,-6
  1512176744,-0.0246,-0.0523,0.3553,130.49,-35.10,1006.96,52,35,-6
  1512176744,-0.0202,-0.0483,0.3589,114.38,-35.77,945.01,52,35,-6
  1512176744,-0.0156,-0.0487,0.3606,120.42,-43.70,1003.36,52,35,-6
  1512176744,-0.0176,-0.0442,0.3575,162.72,-59.75,942.57,63,35,-6
  1512176744,-0.0196,-0.0406,0.3566,131.10,-49.44,930.85,63,35,-6
  1512176744,-0.0245,-0.0447,0.3586,140.20,-62.38,993.84,63,35,-6
  1512176744,-0.0254,-0.0485,0.3569,144.71,-79.77,971.56,63,35,-6
  1512176744,-0.0160,-0.0486,0.3591,145.57,-51.88,981.02,54,37,-11
  1512176744,-0.0154,-0.0522,0.3565,124.02,-58.23,1039.67,54,37,-11
  1512176744,-0.0112,-0.0302,0.3531,148.25,-63.05,965.09,54,37,-11
  1512176744,-0.0057,-0.0292,0.3489,126.53,-55.66,994.45,54,37,-11
  1512176744,-0.0076,-0.0280,0.3421,128.23,-30.64,1034.18,54,37,-11
  1512176744,0.0025,-0.0242,0.3360,83.92,-79.83,1080.75,66,49,-13
  1512176744,0.0061,-0.0205,0.3305,126.59,-40.83,1012.45,66,49,-13
  1512176744,0.0073,0.0012,0.3238,118.29,-90.58,970.89,66,49,-13
  1512176744,0.0024,0.0257,0.3143,103.15,-79.96,956.05,66,49,-13
  1512176744,-0.0205,0.0079,0.3063,101.62,-74.52,960.88,68,40,-15
  1512176744,-0.0132,0.0028,0.2943,37.23,-82.76,997.68,68,40,-15
  1512176744,-0.0284,0.0077,0.2932,98.88,-79.28,909.48,68,40,-15
  1512176744,-0.0308,0.0004,0.2952,90.45,-54.69,915.71,68,40,-15
  1512176744,-0.0123,0.0056,0.2955,45.04,-75.74,991.70,68,40,-15
  1512176744,-0.0182,0.0197,0.2916,48.89,-64.51,1027.28,72,37,-11
  1512176744,-0.0241,0.0185,0.2814,90.88,-88.87,964.48,72,37,-11
  1512176744,-0.0236,0.0153,0.2707,105.47,-75.74,976.14,72,37,-11
  1512176744,-0.0250,0.0154,0.2653,108.22,-70.62,983.95,72,37,-11
  1512176744,-0.0124,0.0192,0.2574,116.52,-81.30,950.68,72,37,-11
  1512176744,-0.0112,0.0264,0.2491,119.38,-62.32,992.98,86,61,-8
  1512176744,-0.0190,0.0232,0.2422,131.65,-80.99,987.85,86,61,-8
  1512176744,-0.0105,0.0330,0.2328,121.95,-102.78,982.91,86,61,-8
  1512176744,-0.0128,0.0278,0.2224,127.08,-60.00,993.04,86,61,-8
  1512176744,-0.0140,0.0249,0.2152,98.14,-92.04,1021.61,79,65,-5
  1512176744,-0.0115,0.0182,0.2104,138.18,-86.30,1017.27,79,65,-5
  1512176744,-0.0154,0.0087,0.2027,131.29,-64.39,954.59,79,65,-5
  1512176744,-0.0157,0.0158,0.2023,83.62,-80.08,1000.37,79,65,-5
  1512176744,-0.0128,0.0249,0.1924,114.07,-80.93,999.21,79,65,-5
  1512176744,-0.0158,0.0342,0.1847,70.80,-47.49,1016.11,86,68,5
  1512176745,-0.0237,0.0356,0.1768,46.63,-111.33,1044.37,86,68,5
  1512176745,-0.0260,0.0344,0.1675,79.35,-30.52,993.96,86,68,5
  1512176745,-0.0242,0.0214,0.1605,22.77,-147.22,1010.13,86,68,5
  1512176745,-0.0138,0.0201,0.1521,48.03,-81.42,1030.21,86,68,5
  1512176745,-0.0284,0.0084,0.1522,14.28,-79.71,1004.21,94,81,-3
  1512176745,-0.0133,0.0285,0.1405,6.10,-84.84,1086.12,94,81,-3
  1512176745,-0.0160,0.0316,0.1300,65.98,-48.34,1024.29,94,81,-3
  1512176745,-0.0181,0.0213,0.1244,78.00,-76.23,1027.16,94,81,-3
  1512176745,-0.0045,0.0104,0.1176,26.00,-112.37,1030.76,94,84,-10
  1512176745,-0.0065,0.0284,0.1069,34.48,-37.66,998.29,94,84,-10
  1512176745,-0.0012,0.0272,0.1072,-20.02,-83.37,999.82,94,84,-10
  1512176745,-0.0129,0.0119,0.0855,10.93,-63.48,1009.77,94,84,-10
  1512176745,-0.0241,0.0005,0.0748,-8.91,-93.87,1003.66,94,84,-10
  1512176745,-0.0153,0.0137,0.0696,-5.49,-81.12,1009.34,105,84,-10
  1512176745,-0.0252,0.0166,0.0611,37.11,-76.29,1012.15,105,84,-10
  1512176745,-0.0152,0.0181,0.0522,19.71,-75.07,1005.98,105,84,-10
  1512176745,-0.0125,0.0201,0.0430,28.38,-48.16,1042.60,105,84,-10
  1512176745,-0.0200,0.0133,0.0390,36.93,-73.61,1027.22,103,89,-18
  1512176745,-0.0209,0.0064,0.0309,6.16,-73.43,996.22,103,89,-18
  1512176745,-0.0160,0.0051,0.0250,-14.34,-69.09,1004.82,103,89,-18
  1512176745,-0.0177,0.0011,0.0165,12.70,-97.53,1012.15,103,89,-18
  1512176745,-0.0189,0.0072,0.0081,5.19,-73.24,948.00,103,89,-18
  1512176745,-0.0188,0.0015,0.0049,0.31,-97.96,982.42,108,95,0
  1512176745,-0.0036,0.0142,-0.0085,16.85,-94.97,1022.95,108,95,0
  1512176745,-0.0077,0.0063,-0.0145,21.97,-62.99,953.61,108,95,0
  1512176745,-0.0120,-0.0045,-0.0217,45.41,-108.15,1021.73,108,95,0
  1512176745,-0.0205,-0.0210,-0.0253,54.32,-56.64,985.35,108,95,0
  1512176745,-0.0173,-0.0148,-0.0256,25.57,-126.77,979.92,100,82,-8
  1512176745,-0.0222,-0.0091,-0.0341,31.13,-73.30,980.04,100,82,-8
  1512176745,-0.0314,-0.0072,-0.0336,8.30,-73.97,1036.62,100,82,-8
  1512176745,-0.0249,-0.0052,-0.0431,40.47,-58.41,1057.62,100,82,-8
  1512176745,-0.0296,-0.0004,-0.0485,-22.52,-38.94,1056.09,96,72,-11
  1512176745,-0.0201,0.0023,-0.0578,-16.91,-86.79,1008.97,96,72,-11
  1512176745,-0.0164,0.0049,-0.0654,-25.45,-83.62,1036.32,96,72,-11
  1512176745,-0.0305,-0.0107,-0.0670,-29.17,-105.96,975.95,96,72,-11
  1512176745,-0.0296,0.0020,-0.0740,-1.16,-110.90,960.82,96,72,-11
  1512176745,-0.0205,-0.0048,-0.0746,-24.48,-78.19,1008.48,103,82,-8
  1512176746,-0.0101,-0.0041,-0.0803,-6.53,-77.94,935.85,103,82,-8
  1512176746,-0.0180,0.0008,-0.0878,-30.82,-90.45,1028.75,103,82,-8
  1512176746,-0.0130,0.0072,-0.0961,-13.79,-85.94,1038.88,103,82,-8
  1512176746,-0.0103,0.0031,-0.1039,-27.65,-89.42,989.93,103,82,-8
  1512176746,-0.0133,-0.0039,-0.1029,-31.01,-62.07,990.36,112,98,-13
  1512176746,-0.0077,-0.0075,-0.1135,-1.65,-65.73,1003.30,112,98,-13
  1512176746,-0.0089,0.0051,-0.1230,-40.34,-74.16,1029.36,112,98,-13
  1512176746,-0.0198,0.0013,-0.1301,-34.06,-81.67,1068.73,112,98,-13
  1512176746,-0.0101,0.0036,-0.1334,-18.80,-84.84,1021.73,105,81,-16
  1512176746,-0.0108,0.0164,-0.1381,-36.32,-104.49,957.82,105,81,-16
  1512176746,-0.0165,0.0119,-0.1414,-48.22,-59.08,958.74,105,81,-16
  1512176746,-0.0141,-0.0075,-0.1478,-23.56,-96.19,993.59,105,81,-16
  1512176746,-0.0119,-0.0145,-0.1530,-53.16,-105.47,972.90,105,81,-16
  1512176746,-0.0071,-0.0095,-0.1538,-40.47,-86.24,1010.07,82,61,-15
  1512176746,-0.0121,0.0053,-0.1615,-29.30,-75.56,1055.66,82,61,-15
  1512176746,-0.0061,0.0023,-0.1652,-26.00,-81.18,1009.03,82,61,-15
  1512176746,-0.0144,0.0079,-0.1706,-24.29,-104.06,1014.89,82,61,-15
  1512176746,-0.0210,-0.0140,-0.1690,-45.35,-79.77,978.52,82,61,-15
  1512176746,-0.0228,-0.0226,-0.1700,-34.42,-90.21,1004.82,107,82,-11
  1512176746,-0.0180,-0.0326,-0.1667,-78.80,-75.99,966.43,107,82,-11
  1512176746,-0.0087,-0.0150,-0.1692,-47.97,-70.19,1033.51,107,82,-11
  1512176746,-0.0072,-0.0266,-0.1751,-53.47,-95.03,1049.62,107,82,-11
  1512176746,0.0095,-0.0053,-0.1779,-70.92,-85.45,1041.26,110,68,-11
  1512176746,-0.0051,0.0121,-0.1842,-29.17,-75.13,913.09,110,68,-11
  1512176746,-0.0025,0.0056,-0.1860,-58.29,-39.98,1034.67,110,68,-11
  1512176746,-0.0015,0.0056,-0.1874,-73.43,-95.21,1007.93,110,68,-11
  1512176746,-0.0063,-0.0004,-0.1890,-57.68,-59.69,988.95,110,68,-11
  1512176746,-0.0112,-0.0112,-0.1851,-10.13,-102.54,960.94,94,66,-20
  1512176746,-0.0045,-0.0048,-0.1916,7.87,-103.88,977.84,94,66,-20
  1512176746,-0.0023,-0.0043,-0.1908,8.24,-82.89,963.87,94,66,-20
  1512176746,-0.0076,-0.0008,-0.1872,11.90,-60.36,1003.17,94,66,-20
  1512176746,-0.0075,0.0168,-0.1991,-7.39,-86.24,1045.78,93,47,-11
  1512176746,-0.0092,0.0059,-0.2027,-29.79,-48.28,1044.74,93,47,-11
  1512176746,-0.0157,-0.0073,-0.2060,-44.62,-89.29,1073.18,93,47,-11
  1512176746,-0.0077,-0.0008,-0.2068,-88.93,-96.25,1022.71,93,47,-11
  1512176746,-0.0093,-0.0028,-0.2032,-96.98,-89.54,976.20,93,47,-11
  1512176746,-0.0053,0.0063,-0.2105,-87.10,-90.52,997.07,96,47,-5
  1512176746,0.0000,0.0013,-0.2132,-57.86,-97.96,988.89,96,47,-5
  1512176747,0.0079,0.0055,-0.2147,-17.76,-92.59,1019.84,96,47,-5
  1512176747,0.0067,0.0124,-0.2093,-68.42,-60.49,1000.31,96,47,-5
  1512176747,0.0008,0.0138,-0.2145,-24.17,-118.23,927.61,96,47,-5
  1512176747,-0.0045,-0.0093,-0.2154,-28.38,-95.34,980.29,86,44,-35
  1512176747,-0.0049,-0.0261,-0.2103,-47.30,-104.55,1022.52,86,44,-35
  1512176747,0.0043,-0.0174,-0.2107,-22.03,-106.14,1049.74,86,44,-35
  1512176747,0.0111,-0.0055,-0.2113,20.75,-99.79,981.08,86,44,-35
  1512176747,0.0125,0.0194,-0.2153,22.46,-109.13,936.28,86,44,-35
  1512176747,0.0077,0.0146,-0.2157,28.63,-87.65,977.78,87,56,-6
  1512176747,0.0021,0.0282,-0.2148,-49.44,-74.40,1045.17,87,56,-6
  1512176747,0.0076,0.0293,-0.2180,-78.19,-74.71,1021.67,87,56,-6
  1512176747,0.0134,0.0366,-0.2206,-84.47,-78.55,1043.27,87,56,-6
  1512176747,0.0055,0.0296,-0.2217,-89.36,-87.22,1035.64,73,31,-16
  1512176747,0.0055,0.0438,-0.2186,-76.23,-76.05,988.28,73,31,-16
  1512176747,0.0144,0.0503,-0.2185,-106.08,-91.13,1067.50,73,31,-16
  1512176747,0.0080,0.0362,-0.2196,-47.24,-98.02,1026.61,73,31,-16
  1512176747,0.0068,0.0333,-0.2141,-65.37,-75.87,949.95,73,31,-16
  1512176747,0.0029,0.0209,-0.2151,-114.26,-82.89,982.18,61,47,-1
  1512176747,0.0073,0.0312,-0.2139,-102.17,-98.14,1037.84,61,47,-1
  1512176747,0.0242,0.0485,-0.2148,-82.40,-63.72,894.78,61,47,-1
  1512176747,0.0103,0.0249,-0.2154,-41.87,-90.70,938.48,61,47,-1
  1512176747,0.0234,0.0188,-0.2133,-61.77,-66.16,946.04,61,40,-8
  1512176747,0.0196,0.0160,-0.2128,-59.75,-52.73,941.96,61,40,-8
  1512176747,0.0198,0.0249,-0.2204,-37.66,-61.10,1043.76,61,40,-8
  1512176747,0.0097,0.0217,-0.2242,-23.93,-78.06,939.94,61,40,-8
  1512176747,-0.0047,0.0048,-0.2213,-5.86,-99.18,966.49,61,40,-8
  1512176747,-0.0008,-0.0056,-0.2198,-35.10,-59.14,1004.88,61,33,-1
  1512176747,-0.0009,0.0080,-0.2145,-30.94,-32.59,1065.67,61,33,-1
  1512176747,-0.0044,0.0217,-0.2241,-41.02,-91.25,1012.39,61,33,-1
  1512176747,-0.0121,-0.0037,-0.2192,-9.09,-78.00,928.65,61,33,-1
  1512176747,-0.0142,-0.0288,-0.2217,24.96,-15.08,1128.66,61,33,-1
  1512176747,-0.0314,0.0124,-0.2242,53.59,-134.64,1007.93,59,31,-10
  1512176747,0.0061,0.0734,-0.2304,-80.57,-33.51,986.51,59,31,-10
  1512176747,-0.0349,0.0073,-0.2264,23.86,-71.41,990.36,59,31,-10
  1512176747,-0.0202,0.0053,-0.2173,5.31,-91.25,951.29,59,31,-10
  1512176747,-0.0266,0.0041,-0.2156,83.07,-79.96,896.24,63,10,-13
  1512176747,-0.0242,-0.0032,-0.2084,-41.93,-43.70,998.11,63,10,-13
  1512176747,-0.0031,0.0013,-0.2133,7.20,-84.41,1051.33,63,10,-13
  1512176748,-0.0264,-0.0168,-0.2184,-66.59,-42.85,1130.37,63,10,-13
  1512176748,-0.0216,-0.0202,-0.2135,-47.36,-100.65,1092.22,63,10,-13
  1512176748,-0.0053,0.0321,-0.2186,8.73,-84.29,1084.78,59,17,-16
  1512176748,-0.0193,0.0485,-0.2165,-67.44,-97.11,1049.26,59,17,-16
  1512176748,-0.0097,0.0578,-0.2192,-55.36,-98.39,1020.75,59,17,-16
  1512176748,-0.0333,0.0069,-0.2065,-78.80,-82.40,991.52,59,17,-16
  1512176748,-0.0366,0.0009,-0.2135,-100.77,-111.27,1026.18,59,17,-16
  1512176748,-0.0117,0.0145,-0.2064,-136.78,-100.77,1093.38,57,12,-11
  1512176748,-0.0282,0.0059,-0.1961,-76.90,-97.41,986.33,57,12,-11
  1512176748,-0.0212,0.0266,-0.1887,-78.74,-100.59,974.30,57,12,-11
  1512176748,-0.0123,0.0309,-0.1810,-99.00,-109.80,990.78,57,12,-11
  1512176748,-0.0123,0.0125,-0.1755,-48.95,-62.99,903.50,59,7,-20
  1512176748,-0.0204,-0.0039,-0.1823,-27.34,-101.50,945.80,59,7,-20
  1512176748,-0.0242,-0.0229,-0.1722,-45.78,-123.60,905.09,59,7,-20
  1512176748,-0.0060,-0.0088,-0.1691,-50.54,-136.17,920.59,59,7,-20
  1512176748,-0.0015,-0.0071,-0.1631,-55.42,-67.69,925.78,59,7,-20
  1512176748,0.0127,0.0117,-0.1698,-18.80,-169.01,1054.38,50,1,-22
  1512176748,0.0036,-0.0047,-0.1658,4.58,10.74,864.99,50,1,-22
  1512176748,0.0125,-0.0297,-0.1675,-78.00,-206.48,1143.43,50,1,-22
  1512176748,0.0138,-0.0170,-0.1499,-15.26,-108.58,975.10,50,1,-22
  1512176748,-0.0096,-0.0297,-0.1401,-67.99,-8.24,828.61,50,1,-22
  1512176748,0.0061,0.0009,-0.1425,-72.14,-134.95,1011.23,40,5,-1
  1512176748,0.0173,-0.0198,-0.1326,-24.66,-27.47,915.41,40,5,-1
  1512176748,0.0032,-0.0119,-0.1261,-10.50,-110.53,968.20,40,5,-1
  1512176748,0.0372,0.0165,-0.1248,-67.99,-72.33,1033.45,40,5,-1
  1512176748,0.0337,0.0123,-0.1232,-7.26,-7.26,961.91,49,14,-16
  1512176748,0.0193,-0.0024,-0.1210,-16.24,-106.87,1056.64,49,14,-16
  1512176748,0.0332,0.0091,-0.1208,-7.69,-78.67,964.48,49,14,-16
  1512176748,0.0229,-0.0091,-0.1121,-43.88,-60.36,975.71,49,14,-16
  1512176748,0.0256,-0.0157,-0.1111,-15.14,-76.78,961.73,49,14,-16
  1512176748,0.0221,-0.0035,-0.1060,12.82,-40.34,948.30,31,3,-27
  1512176748,0.0188,0.0079,-0.1068,18.19,-56.95,930.60,31,3,-27
  1512176748,0.0266,0.0166,-0.1065,15.69,-56.82,902.65,31,3,-27
  1512176748,0.0253,0.0105,-0.1031,-11.84,-44.62,994.93,31,3,-27
  1512176748,0.0186,-0.0007,-0.1005,-49.32,-72.02,1024.29,31,3,-27
  1512176748,0.0157,-0.0017,-0.0933,-15.14,-69.46,890.69,24,7,-16
  1512176748,0.0154,-0.0177,-0.0872,-49.26,-59.39,961.24,24,7,-16
  1512176748,0.0194,-0.0188,-0.0883,-65.80,-82.03,1017.94,24,7,-16
  1512176749,0.0137,-0.0099,-0.0846,-42.18,-40.89,974.85,24,7,-16
  1512176749,0.0101,-0.0060,-0.0868,-40.47,-37.78,1025.82,24,0,-23
  1512176749,0.0258,-0.0005,-0.0840,-63.78,-29.24,975.04,24,0,-23
  1512176749,0.0260,-0.0045,-0.0828,-51.45,-6.59,942.99,24,0,-23
  1512176749,0.0340,-0.0020,-0.0858,-87.95,-42.48,948.36,24,0,-23
  1512176749,0.0266,0.0093,-0.0897,-35.22,-60.91,927.49,24,0,-23
  1512176749,0.0197,0.0060,-0.0951,-63.54,-76.17,887.02,19,1,-22
  1512176749,0.0105,-0.0104,-0.0880,-41.99,-53.96,1009.09,19,1,-22
  1512176749,0.0208,0.0103,-0.0920,-0.12,-38.82,1002.50,19,1,-22
  1512176749,0.0217,0.0406,-0.0959,17.64,-69.95,1022.16,19,1,-22
  1512176749,0.0321,0.0372,-0.0972,-33.20,-42.60,978.09,19,1,-22
  1512176749,0.0324,0.0108,-0.0964,-3.72,-21.42,987.06,21,3,-27
  1512176749,0.0334,-0.0085,-0.0984,-64.76,-56.21,995.85,21,3,-27
  1512176749,0.0377,-0.0075,-0.1041,-4.94,-36.74,950.56,21,3,-27
  1512176749,0.0333,-0.0164,-0.1016,-40.95,-28.32,965.70,21,3,-27
  1512176749,0.0538,-0.0017,-0.0988,-54.99,-29.42,1017.27,21,-7,-30
  1512176749,0.0473,0.0101,-0.1065,-37.11,-10.99,994.81,21,-7,-30
  1512176749,0.0373,-0.0047,-0.1071,-12.70,-9.40,1043.33,21,-7,-30
  1512176749,0.0318,-0.0234,-0.1075,-16.05,-39.79,988.95,21,-7,-30
  1512176749,0.0358,-0.0188,-0.1005,-51.21,-6.23,997.44,21,-7,-30
  1512176749,0.0374,-0.0224,-0.0948,-70.37,-14.53,958.31,12,-19,-35
  1512176749,0.0391,-0.0260,-0.0916,-13.85,22.16,1000.79,12,-19,-35
  1512176749,0.0353,-0.0268,-0.0904,-35.10,-3.97,950.26,12,-19,-35
  1512176749,0.0321,-0.0260,-0.0897,-14.65,-12.45,970.03,12,-19,-35
  1512176749,0.0293,-0.0168,-0.0872,-33.39,33.39,1038.51,12,-19,-35
  1512176749,0.0031,-0.0226,-0.0907,-9.70,-0.49,981.57,21,-31,-37
  1512176749,0.0072,-0.0326,-0.0879,-12.63,33.33,948.12,21,-31,-37
  1512176749,0.0056,-0.0244,-0.0929,-40.04,24.23,986.39,21,-31,-37
  1512176749,0.0056,-0.0217,-0.0920,-67.93,-33.57,1024.48,21,-31,-37
  1512176749,0.0172,0.0107,-0.0929,-30.88,-3.85,976.44,14,-14,-33
  1512176749,0.0174,0.0214,-0.0991,-30.58,-6.65,994.63,14,-14,-33
  1512176749,0.0157,0.0001,-0.0952,-32.65,41.26,1036.07,14,-14,-33
  1512176749,0.0119,-0.0246,-0.0939,-3.05,-33.08,999.08,14,-14,-33
  1512176749,0.0182,-0.0117,-0.0953,-34.06,-5.00,973.75,14,-14,-33
  1512176749,0.0192,-0.0140,-0.0921,-41.63,-27.40,994.20,3,-24,-37
  1512176749,0.0138,-0.0041,-0.0963,-6.77,-8.24,978.03,3,-24,-37
  1512176749,0.0097,-0.0015,-0.0893,-65.31,31.37,1036.07,3,-24,-37
  1512176749,0.0113,-0.0031,-0.0969,-74.28,-2.87,1034.00,3,-24,-37
  1512176750,0.0071,-0.0113,-0.1005,-44.62,52.31,1006.84,3,-24,-37
  1512176750,-0.0053,-0.0266,-0.1021,-41.08,-22.09,927.92,10,-17,-30
  1512176750,0.0186,-0.0008,-0.1061,-56.21,-24.48,963.13,10,-17,-30
  1512176750,0.0186,0.0081,-0.1088,-25.51,-6.84,857.60,10,-17,-30
  1512176750,0.0252,-0.0166,-0.1069,-34.55,11.60,973.14,10,-17,-30
  1512176750,0.0297,-0.0192,-0.1004,-54.26,23.13,1021.18,1,-8,-25
  1512176750,0.0309,-0.0245,-0.1088,-38.88,9.58,993.65,1,-8,-25
  1512176750,0.0294,-0.0292,-0.1096,-34.61,24.72,970.34,1,-8,-25
  1512176750,0.0280,-0.0324,-0.1088,-30.21,2.62,1033.14,1,-8,-25
  1512176750,0.0205,-0.0226,-0.1073,-8.30,-22.95,978.64,1,-8,-25
  1512176750,0.0212,-0.0298,-0.1077,-26.12,18.07,985.17,-17,-24,-16
  1512176750,0.0161,-0.0458,-0.1048,-40.04,31.25,1043.03,-17,-24,-16
  1512176750,0.0053,-0.0574,-0.1083,-62.93,51.27,1013.00,-17,-24,-16
  1512176750,0.0093,-0.0393,-0.1121,-82.89,11.54,1099.06,-17,-24,-16
  1512176750,-0.0012,-0.0164,-0.1148,-3.48,41.56,1036.99,-5,-22,5
  1512176750,-0.0120,0.0023,-0.1166,-18.07,13.55,1048.52,-5,-22,5
  1512176750,-0.0184,0.0105,-0.1168,-42.48,-11.35,1057.74,-5,-22,5
  1512176750,-0.0181,-0.0130,-0.1141,-20.75,13.06,979.61,-5,-22,5
  1512176750,-0.0234,-0.0077,-0.1120,-28.93,7.63,970.58,-5,-22,5
  1512176750,-0.0007,-0.0113,-0.1105,-73.36,40.77,995.79,-1,-19,8
  1512176750,-0.0045,-0.0125,-0.1121,-52.12,3.42,926.57,-1,-19,8
  1512176750,0.0020,-0.0133,-0.1169,-39.79,26.61,968.93,-1,-19,8
  1512176750,-0.0024,-0.0232,-0.1198,-82.03,8.06,935.36,-1,-19,8
  1512176750,-0.0047,-0.0180,-0.1317,-69.52,-9.89,954.35,-1,-19,8
  1512176750,0.0012,-0.0166,-0.1369,-92.47,32.23,995.06,10,-24,16
  1512176750,-0.0138,-0.0100,-0.1445,-64.27,40.83,931.70,10,-24,16
  1512176750,-0.0250,-0.0087,-0.1521,-56.46,-21.48,983.15,10,-24,16
  1512176750,-0.0113,-0.0019,-0.1521,-65.55,-1.95,985.41,10,-24,16
  1512176750,-0.0166,0.0049,-0.1587,-109.07,-29.24,1002.93,8,-19,-15
  1512176750,-0.0093,-0.0064,-0.1510,-83.62,-30.46,994.57,8,-19,-15
  1512176750,-0.0119,-0.0129,-0.1497,-26.61,30.03,1018.98,8,-19,-15
  1512176750,-0.0089,-0.0238,-0.1414,-34.42,28.69,1023.80,8,-19,-15
  1512176750,0.0056,-0.0389,-0.1350,-71.47,42.85,1036.25,8,-19,-15
  1512176750,0.0064,-0.0509,-0.1403,-22.52,12.57,1037.90,17,-28,-20
  1512176750,0.0068,-0.0357,-0.1394,11.90,-9.95,960.45,17,-28,-20
  1512176750,0.0154,0.0028,-0.1453,4.82,-14.53,988.65,17,-28,-20
  1512176750,0.0185,-0.0015,-0.1491,-17.64,-23.07,1048.28,17,-28,-20
  1512176750,0.0345,0.0013,-0.1547,18.19,82.95,1079.22,17,-28,-20
  1512176751,0.0274,0.0069,-0.1629,5.68,13.92,1071.78,5,-33,-32
  1512176751,0.0354,0.0174,-0.1625,-26.55,41.44,986.51,5,-33,-32
  1512176751,0.0245,0.0071,-0.1610,-41.02,53.53,1017.58,5,-33,-32
  1512176751,0.0226,-0.0112,-0.1577,-63.60,61.04,991.88,5,-33,-32
  1512176751,0.0033,-0.0325,-0.1563,-110.17,29.30,1035.40,5,-33,-32
  1512176751,0.0049,-0.0316,-0.1485,-120.97,12.33,956.05,3,-31,-30
  1512176751,-0.0204,-0.0137,-0.1574,-132.02,36.32,1010.86,3,-31,-30
  1512176751,-0.0164,-0.0073,-0.1591,-82.03,11.47,968.20,3,-31,-30
  1512176751,-0.0077,-0.0144,-0.1651,-118.10,33.63,1038.57,3,-31,-30
  1512176751,-0.0071,0.0013,-0.1738,-117.80,-33.94,1008.24,7,-35,-23
  1512176751,-0.0162,-0.0254,-0.1816,-74.16,31.37,1007.69,7,-35,-23
  1512176751,-0.0220,-0.0466,-0.1811,-36.56,10.56,985.60,7,-35,-23
  1512176751,-0.0097,-0.0276,-0.1850,-22.64,-1.34,997.86,7,-35,-23
  1512176751,-0.0071,-0.0184,-0.1846,-42.05,28.32,963.32,7,-35,-23
  1512176751,-0.0021,-0.0111,-0.1843,-6.53,28.44,936.58,0,-28,-27
  1512176751,0.0007,-0.0174,-0.1875,-45.96,16.36,984.37,0,-28,-27
  1512176751,0.0107,-0.0165,-0.1876,-85.33,27.04,988.04,0,-28,-27
  1512176751,0.0115,-0.0209,-0.1872,-88.50,34.73,959.05,0,-28,-27
  1512176751,0.0115,-0.0080,-0.1884,-93.32,15.32,1003.11,-14,-45,-20
  1512176751,0.0037,-0.0029,-0.1973,-112.00,34.67,994.14,-14,-45,-20
  1512176751,-0.0130,0.0033,-0.2060,-89.66,10.19,1007.51,-14,-45,-20
  1512176751,-0.0140,0.0069,-0.2104,-131.77,25.94,1027.89,-14,-45,-20
  1512176751,-0.0125,0.0237,-0.2140,-125.12,56.58,1071.04,-14,-45,-20
  1512176751,-0.0120,0.0168,-0.2148,-145.26,52.92,1058.78,-7,-31,-20
  1512176751,-0.0240,0.0019,-0.2164,-111.08,46.51,1054.81,-7,-31,-20
  1512176751,-0.0402,-0.0196,-0.2135,-142.88,46.08,1021.67,-7,-31,-20
  1512176751,-0.0105,-0.0023,-0.2121,-104.37,57.62,967.77,-7,-31,-20
  1512176751,-0.0313,-0.0099,-0.2229,-93.63,52.92,955.99,-7,-31,-20
  1512176751,-0.0839,-0.0326,-0.2314,-74.22,37.60,1067.08,-26,-26,-28
  1512176751,-0.0895,-0.0586,-0.2332,-99.55,56.95,1071.72,-26,-26,-28
  1512176751,-0.0150,-0.0027,-0.2390,-73.85,17.76,1033.75,-26,-26,-28
  1512176751,-0.0170,0.0013,-0.2525,-125.24,63.42,1008.36,-26,-26,-28
  1512176751,-0.0326,-0.0177,-0.2439,-92.59,22.52,977.84,-40,-19,-18
  1512176751,-0.0449,-0.0113,-0.2519,-77.21,12.21,915.65,-40,-19,-18
  1512176751,-0.0446,-0.0069,-0.2561,-67.63,29.24,986.21,-40,-19,-18
  1512176751,-0.0137,-0.0138,-0.2493,-104.25,47.42,955.75,-40,-19,-18
  1512176751,-0.0397,-0.0170,-0.2550,-48.40,8.67,967.59,-40,-19,-18
  1512176751,-0.0397,-0.0075,-0.2527,-84.53,75.99,1013.06,-36,-33,-28
  1512176752,-0.0298,-0.0021,-0.2486,-127.75,70.19,1019.90,-36,-33,-28
  1512176752,-0.0666,0.0174,-0.2579,-90.82,7.26,951.42,-36,-33,-28
  1512176752,-0.0740,0.0368,-0.2567,-87.59,0.18,959.35,-36,-33,-28
  1512176752,-0.0341,0.0473,-0.2561,-24.60,27.77,1070.01,-36,-33,-28
  1512176752,-0.0840,0.0160,-0.2530,-94.30,19.23,1029.85,-35,-31,-40
  1512176752,-0.0224,0.0395,-0.2495,-73.12,15.75,1037.84,-35,-31,-40
  1512176752,-0.0148,0.0294,-0.2474,-78.00,33.39,1085.94,-35,-31,-40
  1512176752,-0.0285,-0.0057,-0.2397,-88.87,31.62,993.41,-35,-31,-40
  1512176752,-0.0031,0.0224,-0.2368,-98.94,34.36,993.96,-40,-22,-11
  1512176752,-0.0021,0.0109,-0.2352,-131.59,32.47,990.42,-40,-22,-11
  1512176752,0.0197,-0.0031,-0.2385,-142.27,35.83,1047.30,-40,-22,-11
  1512176752,0.0318,0.0182,-0.2429,-93.32,18.55,963.62,-40,-22,-11
  1512176752,-0.0031,-0.0009,-0.2422,-141.91,23.44,1014.77,-40,-22,-11
  1512176752,-0.0377,-0.0200,-0.2526,-110.72,40.59,1033.33,-50,-29,-35
  1512176752,-0.0004,0.0190,-0.2629,-115.36,14.40,1002.87,-50,-29,-35
  1512176752,0.0017,0.0216,-0.2715,-115.17,57.50,973.39,-50,-29,-35
  1512176752,-0.0218,0.0037,-0.2796,-106.75,16.48,975.28,-50,-29,-35
  1512176752,0.0108,0.0138,-0.2822,-187.62,53.65,1001.65,-50,-29,-35
  1512176752,-0.0137,-0.0013,-0.2863,-153.99,26.31,984.50,-56,-38,-30
  1512176752,0.0130,0.0141,-0.2850,-130.98,54.81,1009.46,-56,-38,-30
  1512176752,-0.0016,0.0169,-0.2907,-118.65,33.57,945.13,-56,-38,-30
  1512176752,0.0072,0.0172,-0.2941,-111.82,63.72,993.96,-56,-38,-30
  1512176752,0.0029,0.0268,-0.2980,-149.23,36.99,1048.58,-61,-29,-8
  1512176752,-0.0021,-0.0067,-0.3009,-126.34,28.32,1033.26,-61,-29,-8
  1512176752,-0.0260,-0.0342,-0.3016,-126.34,7.26,945.92,-61,-29,-8
  1512176752,0.0033,0.0105,-0.3024,-93.44,-13.00,976.38,-61,-29,-8
  1512176752,-0.0116,0.0028,-0.2961,-116.82,61.65,1003.42,-61,-29,-8
  1512176752,-0.0166,-0.0055,-0.3004,-97.47,21.55,1051.03,-75,-26,-25
  1512176752,0.0130,-0.0045,-0.3005,-85.39,37.78,1016.85,-75,-26,-25
  1512176752,0.0254,0.0097,-0.2992,-113.59,41.69,1003.91,-75,-26,-25
  1512176752,0.0210,0.0108,-0.2964,-118.90,5.43,944.58,-75,-26,-25
  1512176752,0.0356,0.0072,-0.2908,-116.03,39.18,959.05,-82,-40,-5
  1512176752,-0.0005,-0.0378,-0.2772,-139.65,65.37,1020.14,-82,-40,-5
  1512176752,-0.0048,-0.0431,-0.2762,-123.84,20.20,1032.35,-82,-40,-5
  1512176752,0.0225,-0.0317,-0.2668,-112.12,42.36,1013.24,-82,-40,-5
  1512176752,0.0216,-0.0146,-0.2635,-108.22,32.71,979.06,-82,-40,-5
  1512176752,0.0182,-0.0112,-0.2582,-54.02,52.86,1047.55,-108,-31,-23
  1512176752,0.0039,-0.0158,-0.2578,-52.55,21.61,1001.34,-108,-31,-23
  1512176753,-0.0080,-0.0403,-0.2531,-48.03,19.41,1021.73,-108,-31,-23
  1512176753,0.0164,-0.0487,-0.2438,-69.52,32.84,991.33,-108,-31,-23
  1512176753,0.0176,-0.0302,-0.2310,-49.99,40.34,1030.27,-108,-31,-23
  1512176753,-0.0097,-0.0337,-0.2237,-44.68,10.99,1009.40,-103,-47,-18
  1512176753,-0.0494,-0.0494,-0.2216,-21.85,15.14,971.13,-103,-47,-18
  1512176753,-0.0044,-0.0116,-0.2083,14.16,13.06,959.66,-103,-47,-18
  1512176753,-0.0057,-0.0256,-0.1979,-5.80,-11.78,974.12,-103,-47,-18
  1512176753,0.0201,-0.0261,-0.1876,-37.96,35.34,1045.17,-110,-37,-28
  1512176753,0.0328,-0.0324,-0.1751,-82.95,40.65,1046.02,-110,-37,-28
  1512176753,0.0527,-0.0150,-0.1674,-35.95,36.19,1037.84,-110,-37,-28
  1512176753,0.0092,-0.0254,-0.1627,-35.34,28.08,978.21,-110,-37,-28
  1512176753,-0.0077,-0.0258,-0.1581,9.40,-4.27,965.58,-110,-37,-28
  1512176753,-0.0109,-0.0160,-0.1517,9.03,44.86,1032.84,-108,-21,-33
  1512176753,-0.0202,-0.0212,-0.1449,18.13,0.24,1018.86,-108,-21,-33
  1512176753,0.0403,0.0105,-0.1292,10.56,39.98,1021.97,-108,-21,-33
  1512176753,-0.0206,0.0031,-0.1230,-10.80,30.76,999.33,-108,-21,-33
  1512176753,-0.0434,0.0003,-0.1164,21.79,10.25,947.02,-108,-21,-33
  1512176753,-0.0372,-0.0047,-0.1057,15.44,28.14,1024.66,-119,-38,-27
  1512176753,-0.0639,-0.0372,-0.0932,-17.40,35.16,1083.07,-119,-38,-27
  1512176753,0.0297,0.0096,-0.0718,2.75,45.72,1054.63,-119,-38,-27
  1512176753,0.0051,0.0240,-0.0655,6.29,15.93,1059.69,-119,-38,-27
  1512176753,0.0330,0.0326,-0.0498,51.82,35.03,1026.98,-101,-45,-20
  1512176753,-0.0100,-0.0021,-0.0519,56.09,21.00,1021.30,-101,-45,-20
  1512176753,-0.0409,-0.0415,-0.0417,61.10,-10.31,976.81,-101,-45,-20
  1512176753,-0.0056,-0.0061,-0.0314,56.95,-10.86,943.12,-101,-45,-20
  1512176753,0.0000,-0.0024,-0.0254,40.41,40.28,1003.54,-101,-45,-20
  1512176753,-0.0123,-0.0194,-0.0130,41.44,25.88,1016.85,-124,-44,-18
  1512176753,-0.0137,-0.0374,-0.0077,36.32,15.01,965.58,-124,-44,-18
  1512176753,-0.0413,-0.0498,0.0057,44.56,36.01,1020.57,-124,-44,-18
  1512176753,-0.0060,-0.0047,0.0069,83.07,7.32,995.30,-124,-44,-18
  1512176753,-0.0036,-0.0146,0.0210,56.52,21.91,991.94,-115,-42,-16
  1512176753,-0.0248,-0.0103,0.0285,39.12,-0.79,1041.81,-115,-42,-16
  1512176753,-0.0047,-0.0075,0.0445,74.95,11.23,1049.62,-115,-42,-16
  1512176753,-0.0284,0.0008,0.0493,126.65,74.22,1002.56,-115,-42,-16
  1512176753,-0.0411,0.0052,0.0582,136.35,26.98,1069.15,-115,-42,-16
  1512176753,-0.0039,0.0202,0.0718,143.62,55.36,976.99,-107,-37,-35
  1512176753,-0.0744,0.0009,0.0710,166.63,40.95,1053.10,-107,-37,-35
  1512176754,-0.0573,0.0180,0.0796,135.56,33.14,1110.96,-107,-37,-35
  1512176754,-0.0519,0.0266,0.0907,139.59,7.75,1014.71,-107,-37,-35
  1512176754,-0.0041,0.0437,0.1065,149.17,11.66,969.91,-107,-37,-35
  1512176754,0.0238,0.0381,0.1116,114.01,14.47,975.04,-121,-47,-45
  1512176754,0.0445,0.0401,0.1190,84.47,27.59,964.97,-121,-47,-45
  1512176754,0.0218,0.0186,0.1252,71.72,43.40,994.20,-121,-47,-45
  1512176754,0.0150,0.0389,0.1268,91.92,35.83,1018.25,-121,-47,-45
  1512176754,0.0136,0.0498,0.1321,64.82,42.54,1070.31,-110,-40,-22
  1512176754,0.0023,0.0461,0.1325,102.42,28.63,1031.25,-110,-40,-22
  1512176754,0.0142,0.0557,0.1384,111.08,8.85,1014.28,-110,-40,-22
  1512176754,-0.0099,0.0385,0.1442,58.59,-0.31,995.06,-110,-40,-22
  1512176754,-0.0197,0.0206,0.1413,76.48,17.40,985.72,-110,-40,-22
  1512176754,-0.0324,0.0081,0.1498,94.79,0.37,956.36,-103,-33,-18
  1512176754,-0.0226,-0.0008,0.1553,70.07,11.72,965.45,-103,-33,-18
  1512176754,-0.0272,0.0141,0.1607,128.48,-5.92,970.15,-103,-33,-18
  1512176754,-0.0261,-0.0076,0.1597,78.74,14.95,927.00,-103,-33,-18
  1512176754,-0.0025,0.0059,0.1654,52.86,14.53,954.96,-103,-33,-18
  1512176754,-0.0333,-0.0125,0.1648,56.52,37.05,1022.95,-94,-21,-6
  1512176754,-0.0218,-0.0047,0.1654,59.63,-2.75,1014.71,-94,-21,-6
  1512176754,0.0210,0.0217,0.1684,85.33,55.73,1057.25,-94,-21,-6
  1512176754,0.0000,-0.0013,0.1666,107.06,2.69,1046.26,-94,-21,-6
  1512176754,0.0130,-0.0004,0.1614,159.79,-12.33,1009.34,-94,-21,-6
  1512176754,0.0049,-0.0084,0.1589,111.88,72.02,996.22,-105,-10,-3
  1512176754,0.0080,-0.0001,0.1459,138.67,2.81,1040.59,-105,-10,-3
  1512176754,0.0352,0.0099,0.1466,52.98,13.00,1010.44,-105,-10,-3
  1512176754,0.0174,-0.0040,0.1469,49.62,30.03,1012.21,-105,-10,-3
  1512176754,0.0193,0.0043,0.1493,80.69,5.31,1031.43,-89,-29,-18
  1512176754,0.0186,0.0117,0.1549,80.44,61.04,957.76,-89,-29,-18
  1512176754,-0.0047,0.0148,0.1563,80.38,40.89,1019.23,-89,-29,-18
  1512176754,-0.0222,0.0123,0.1557,94.79,51.82,1057.31,-89,-29,-18
  1512176754,-0.0087,0.0344,0.1607,62.81,51.57,1109.68,-89,-29,-18
  1512176754,-0.0463,0.0111,0.1626,86.79,5.37,1034.61,-93,-15,-11
  1512176754,-0.0394,0.0368,0.1622,62.68,26.61,1010.01,-93,-15,-11
  1512176754,-0.0333,0.0461,0.1605,98.88,27.28,994.38,-93,-15,-11
  1512176754,-0.0226,0.0511,0.1566,77.88,0.67,1063.11,-93,-15,-11
  1512176754,-0.0101,0.0280,0.1583,44.07,34.48,1002.44,-98,-31,-10
  1512176754,-0.0091,-0.0032,0.1611,4.27,15.26,986.33,-98,-31,-10
  1512176754,0.0069,-0.0051,0.1651,69.89,32.29,962.65,-98,-31,-10
  1512176755,0.0009,-0.0041,0.1647,41.02,-0.61,975.59,-98,-31,-10
  1512176755,0.0099,0.0079,0.1676,82.15,15.38,943.05,-98,-31,-10
  1512176755,0.0095,0.0021,0.1699,68.60,61.04,991.94,-89,-15,-1
  1512176755,-0.0105,-0.0204,0.1629,83.80,3.91,1007.39,-89,-15,-1
  1512176755,-0.0077,-0.0300,0.1639,88.62,35.83,974.98,-89,-15,-1
  1512176755,-0.0182,-0.0189,0.1605,91.31,-48.46,957.34,-89,-15,-1
  1512176755,0.0100,-0.0085,0.1621,88.81,-4.64,901.86,-89,-15,-1
  1512176755,-0.0127,-0.0065,0.1659,77.15,44.68,1001.22,-86,-19,-15
  1512176755,-0.0037,-0.0092,0.1650,93.57,6.10,1016.85,-86,-19,-15
  1512176755,-0.0059,-0.0099,0.1680,118.71,37.41,1041.14,-86,-19,-15
  1512176755,-0.0265,-0.0340,0.1731,83.07,-7.81,937.07,-86,-19,-15
  1512176755,-0.0403,-0.0467,0.1830,103.70,7.32,977.36,-66,-17,-13
  1512176755,-0.0136,-0.0273,0.1852,101.32,36.38,953.25,-66,-17,-13
  1512176755,-0.0055,0.0015,0.1852,127.14,21.42,1016.11,-66,-17,-13
  1512176755,-0.0055,0.0047,0.1808,159.12,24.90,1017.64,-66,-17,-13
  1512176755,-0.0097,-0.0039,0.1917,135.07,25.76,968.57,-66,-17,-13
  1512176755,0.0027,-0.0136,0.1947,70.92,66.35,1009.09,-75,-15,-5
  1512176755,-0.0352,-0.0401,0.1937,104.80,-7.08,980.35,-75,-15,-5
  1512176755,0.0361,-0.0017,0.1973,145.39,58.78,981.57,-75,-15,-5
  1512176755,-0.0053,0.0088,0.2021,66.71,31.13,1075.50,-75,-15,-5
  1512176755,0.0091,0.0249,0.2013,119.87,38.57,1083.44,-75,-15,-5
  1512176755,0.0128,0.0320,0.1999,88.56,37.23,1025.76,-72,-15,-32
  1512176755,0.0004,0.0197,0.1929,97.96,50.96,1017.09,-72,-15,-32
  1512176755,0.0390,0.0284,0.1957,124.82,-30.52,1023.99,-72,-15,-32
  1512176755,0.0467,0.0386,0.1968,99.30,59.51,1034.24,-72,-15,-32
  1512176755,0.0101,0.0056,0.2092,58.41,46.75,1035.71,-61,-29,-25
  1512176755,0.0208,0.0240,0.2048,102.54,27.59,991.27,-61,-29,-25
  1512176755,0.0185,0.0150,0.2036,78.86,27.22,980.10,-61,-29,-25
  1512176755,-0.0021,-0.0198,0.2057,59.88,-6.10,961.18,-61,-29,-25
  1512176755,-0.0071,-0.0297,0.2097,58.04,14.28,880.49,-61,-29,-25
  1512176755,0.0265,0.0168,0.2036,101.26,11.60,972.53,-57,-5,-15
  1512176755,0.0515,0.0027,0.2005,96.80,33.51,916.93,-57,-5,-15
  1512176755,0.0250,-0.0028,0.1920,102.78,26.25,959.72,-57,-5,-15
  1512176755,-0.0088,-0.0115,0.1855,55.11,1.59,1060.49,-57,-5,-15
  1512176755,-0.0108,-0.0180,0.1898,86.61,31.49,994.75,-59,-17,-16
  1512176755,-0.0244,-0.0305,0.1948,105.35,55.85,1004.03,-59,-17,-16
  1512176755,0.0119,-0.0064,0.2023,86.73,22.28,1044.80,-59,-17,-16
  1512176755,0.0084,-0.0174,0.2023,126.22,28.87,993.29,-59,-17,-16
  1512176756,-0.0009,-0.0236,0.2072,115.48,45.23,945.43,-59,-17,-16
  1512176756,-0.0065,-0.0193,0.2053,105.53,42.97,986.02,-43,-12,-18
  1512176756,0.0045,-0.0181,0.2124,107.18,-10.19,923.83,-43,-12,-18
  1512176756,-0.0008,-0.0391,0.2157,138.55,25.94,940.12,-43,-12,-18
  1512176756,0.0040,-0.0487,0.2139,105.10,11.96,978.58,-43,-12,-18
  1512176756,-0.0189,-0.0435,0.2151,122.19,-3.23,1011.41,-43,-12,-18
  1512176756,-0.0008,-0.0234,0.2141,146.61,2.62,974.18,-43,-19,-25
  1512176756,-0.0245,-0.0176,0.2169,145.87,32.90,945.25,-43,-19,-25
  1512176756,0.0178,0.0117,0.2140,55.18,6.53,1044.43,-43,-19,-25
  1512176756,0.0253,0.0176,0.2144,45.10,53.28,1024.05,-43,-19,-25
  1512176756,0.0349,0.0260,0.2135,4.70,22.52,1127.38,-33,-26,-38
  1512176756,-0.0119,-0.0096,0.2143,8.91,2.44,1014.28,-33,-26,-38
  1512176756,0.0571,0.0241,0.2196,35.77,38.27,1064.88,-33,-26,-38
  1512176756,0.0051,-0.0064,0.2112,46.14,-3.05,1030.40,-33,-26,-38
  1512176756,-0.0011,-0.0104,0.2117,56.76,28.87,1005.98,-33,-26,-38
  1512176756,-0.0324,-0.0274,0.2087,81.91,25.76,998.66,-24,-24,-13
  1512176756,-0.0204,-0.0230,0.2035,71.41,-14.83,1039.25,-24,-24,-13
  1512176756,-0.0204,-0.0209,0.2088,-3.42,32.29,1000.37,-24,-24,-13
  1512176756,-0.0281,-0.0178,0.2024,115.60,-26.12,1019.65,-24,-24,-13
  1512176756,-0.0149,-0.0072,0.2027,71.47,42.72,939.15,-24,-24,-13
  1512176756,-0.0204,0.0069,0.2001,48.89,45.53,985.17,-24,-3,-10
  1512176756,-0.0297,0.0196,0.1941,69.52,-62.81,1078.86,-24,-3,-10
  1512176756,0.0005,0.0399,0.1894,70.62,-44.80,956.24,-24,-3,-10
  1512176756,-0.0051,-0.0264,0.2073,50.96,-48.28,1023.01,-24,-3,-10
  1512176756,-0.0004,-0.0360,0.2100,19.53,-20.20,980.29,-8,-19,-11
  1512176756,0.0574,0.0228,0.2166,40.59,-43.88,915.34,-8,-19,-11
  1512176756,0.0088,-0.0019,0.2136,75.87,-93.14,953.06,-8,-19,-11
  1512176756,-0.0153,0.0063,0.2035,113.83,-37.48,985.23,-8,-19,-11
  1512176756,-0.0137,-0.0145,0.2057,140.38,-21.12,1041.44,-8,-19,-11
  1512176756,0.0000,-0.0313,0.1996,96.56,-39.06,1045.53,-5,-5,-11
  1512176756,-0.0040,-0.0509,0.2043,78.80,-26.55,980.10,-5,-5,-11
  1512176756,0.0056,-0.0302,0.2067,125.73,-34.73,936.77,-5,-5,-11
  1512176756,0.0032,-0.0140,0.2103,121.95,-65.37,988.40,-5,-5,-11
  1512176756,-0.0208,-0.0257,0.2057,127.14,-2.38,921.81,-5,-5,-11
  1512176756,-0.0422,-0.0158,0.2001,51.70,-40.41,1005.62,-17,-7,0
  1512176756,0.0419,0.0202,0.2136,77.33,-66.65,1038.76,-17,-7,0
  1512176756,0.0008,0.0150,0.2071,105.77,-12.27,969.79,-17,-7,0
  1512176756,-0.0374,0.0012,0.2148,85.63,-47.97,941.89,-17,-7,0
  1512176757,-0.0920,-0.0387,0.2075,96.01,-8.79,1007.45,-5,-26,-11
  1512176757,-0.0261,-0.0385,0.2226,54.14,-18.31,1078.31,-5,-26,-11
  1512176757,0.0354,-0.0146,0.2332,112.67,-41.32,1044.13,-5,-26,-11
  1512176757,0.0212,-0.0016,0.2325,130.62,-13.06,973.75,-5,-26,-11
  1512176757,0.0087,0.0085,0.2352,187.62,-43.95,999.27,-5,-26,-11
  1512176757,-0.0145,0.0260,0.2261,130.43,-5.92,975.10,0,-14,-13
  1512176757,-0.0465,0.0208,0.2301,143.55,-47.79,968.93,0,-14,-13
  1512176757,-0.0832,-0.0174,0.2194,140.81,15.56,1097.53,0,-14,-13
  1512176757,-0.0479,-0.0527,0.2426,181.58,2.69,1090.64,0,-14,-13
  1512176757,0.1083,0.0401,0.2759,114.62,-52.55,986.39,8,-15,-18
  1512176757,0.0017,0.0164,0.2780,166.50,-12.39,852.42,8,-15,-18
  1512176757,-0.0365,-0.0051,0.2699,146.73,-10.07,972.90,8,-15,-18
  1512176757,-0.0403,-0.0401,0.2744,164.37,60.06,1073.79,8,-15,-18
  1512176757,0.0321,-0.0246,0.2838,158.33,-9.52,1185.97,8,-15,-18
  1512176757,0.0903,0.0232,0.3302,123.66,-8.24,1095.15,22,-1,-42
  1512176757,0.0234,-0.0073,0.4159,180.97,78.74,1050.90,22,-1,-42
  1512176757,0.0172,0.0479,0.3040,107.30,1.46,930.24,22,-1,-42
  1512176757,-0.0274,0.0316,0.2890,221.98,-38.33,933.29,22,-1,-42
  1512176757,-0.1233,-0.0462,0.2933,146.24,39.86,950.20,22,-1,-42
  1512176757,-0.0698,-0.0473,0.2925,183.35,11.17,1005.00,28,-17,-40
  1512176757,-0.0092,-0.0240,0.3021,172.79,66.77,912.72,28,-17,-40
  1512176757,-0.0507,-0.0273,0.3260,156.43,16.30,921.81,28,-17,-40
  1512176757,0.0262,0.0338,0.3301,210.14,78.98,1080.81,28,-17,-40
  1512176757,0.0056,0.0256,0.3284,200.99,46.57,1058.17,24,-14,-47
  1512176757,-0.0124,0.0166,0.3832,157.78,71.53,1050.35,24,-14,-47
  1512176757,0.0264,-0.0234,0.3867,168.21,78.55,979.19,24,-14,-47
  1512176757,-0.0397,-0.0156,0.3567,167.30,51.21,1060.00,24,-14,-47
  1512176757,0.0144,0.0048,0.3623,177.92,28.38,1043.82,24,-14,-47
  1512176757,-0.0169,-0.0081,0.3683,173.40,59.27,1011.05,42,-7,-33
  1512176757,-0.0212,-0.0009,0.3728,177.92,42.91,1056.15,42,-7,-33
  1512176757,-0.0165,0.0301,0.3719,168.82,80.20,1051.82,42,-7,-33
  1512176757,-0.0129,0.0245,0.3799,166.26,64.51,1040.95,42,-7,-33
  1512176757,-0.0258,0.0245,0.4007,230.90,42.66,1015.32,42,-7,-33
  1512176757,-0.0437,0.0153,0.4268,200.20,26.73,907.04,50,5,-42
  1512176757,0.0081,0.0399,0.3904,240.30,101.14,962.83,50,5,-42
  1512176757,-0.0270,0.0184,0.3996,251.40,60.18,1003.23,50,5,-42
  1512176757,-0.0383,0.0089,0.4005,209.05,81.42,920.59,50,5,-42
  1512176757,-0.0430,-0.0039,0.4088,216.55,44.86,951.23,42,-14,-37
  1512176758,0.0234,0.0407,0.4205,181.95,59.39,995.54,42,-14,-37
  1512176758,0.0096,0.0391,0.4168,189.45,65.37,958.31,42,-14,-37
  1512176758,0.0160,0.0317,0.4176,160.34,83.98,1024.23,42,-14,-37
  1512176758,0.0281,0.0487,0.4284,146.67,41.56,1010.99,42,-14,-37
  1512176758,0.0156,0.0369,0.4248,135.38,96.56,1049.87,56,28,-23
  1512176758,0.0096,0.0430,0.4276,143.74,61.22,1007.51,56,28,-23
  1512176758,0.0174,0.0577,0.4337,149.41,118.71,951.72,56,28,-23
  1512176758,-0.0100,0.0246,0.4308,204.35,96.13,972.17,56,28,-23
  1512176758,-0.0085,0.0344,0.4413,209.53,64.76,983.09,56,28,-23
  1512176758,-0.0036,0.0381,0.4425,203.25,47.36,964.42,54,26,-42
  1512176758,0.0182,0.0513,0.4439,180.54,69.82,978.88,54,26,-42
  1512176758,-0.0037,0.0357,0.4459,191.47,87.89,1044.01,54,26,-42
  1512176758,0.0016,0.0393,0.4410,186.46,64.21,1006.59,54,26,-42
  1512176758,0.0469,0.0806,0.4426,118.23,89.23,1011.54,72,26,-38
  1512176758,0.0045,0.0667,0.4397,114.93,45.59,948.00,72,26,-38
  1512176758,0.0017,0.0654,0.4405,119.63,63.17,985.84,72,26,-38
  1512176758,-0.0073,0.0489,0.4421,99.67,15.14,956.60,72,26,-38
  1512176758,0.0153,0.0614,0.4428,33.75,66.35,1086.00,72,26,-38
  1512176758,0.0242,0.0724,0.4443,54.93,77.64,1075.68,70,35,-30
  1512176758,0.0302,0.0684,0.4447,24.35,54.20,1052.00,70,35,-30
  1512176758,0.0262,0.0646,0.4398,95.64,54.63,918.27,70,35,-30
  1512176758,0.0024,0.0718,0.4432,12.57,34.85,951.35,70,35,-30
  1512176758,-0.0161,0.0402,0.4328,57.13,48.34,1068.05,77,52,-37
  1512176758,-0.0109,0.0477,0.4342,-7.20,74.89,1088.32,77,52,-37
  1512176758,-0.0095,0.0395,0.4289,41.20,14.89,997.01,77,52,-37
  1512176758,0.0052,0.0453,0.4285,1.04,48.65,995.12,77,52,-37
  1512176758,-0.0027,0.0338,0.4305,45.41,-16.97,958.25,77,52,-37
  1512176758,0.0154,0.0209,0.4360,-15.81,27.59,1039.73,91,81,-30
  1512176758,0.0140,0.0419,0.4372,5.55,-25.51,977.36,91,81,-30
  1512176758,0.0218,0.0433,0.4388,-7.20,-11.41,958.25,91,81,-30
  1512176758,0.0218,0.0232,0.4329,34.55,-12.57,1032.41,91,81,-30
  1512176758,0.0123,0.0185,0.4254,81.42,-23.86,934.69,91,81,-30
  1512176758,0.0153,0.0270,0.4224,85.69,1.83,981.87,82,89,-25
  1512176758,0.0185,0.0276,0.4121,167.60,2.93,991.88,82,89,-25
  1512176758,0.0166,0.0366,0.4060,146.91,13.18,1022.52,82,89,-25
  1512176758,0.0091,0.0256,0.4080,136.47,4.03,1009.64,82,89,-25
  1512176758,0.0025,0.0260,0.4112,115.23,5.25,921.51,82,89,-25
  1512176759,0.0153,0.0336,0.4041,85.14,3.05,1035.77,100,114,-25
  1512176759,0.0072,0.0289,0.4055,73.12,4.64,1047.91,100,114,-25
  1512176759,0.0325,0.0435,0.4111,34.24,10.31,1044.92,100,114,-25
  1512176759,-0.0081,0.0214,0.4159,51.09,15.56,905.21,100,114,-25
  1512176759,0.0217,0.0324,0.4121,70.56,5.00,1054.81,103,100,-35
  1512176759,0.0099,0.0290,0.4175,67.38,42.11,1022.16,103,100,-35
  1512176759,0.0210,0.0309,0.4133,84.11,32.17,1063.90,103,100,-35
  1512176759,0.0246,0.0361,0.4096,34.48,1.10,929.57,103,100,-35
  1512176759,0.0031,-0.0144,0.4175,96.86,46.39,1003.78,103,100,-35
  1512176759,-0.0136,-0.0498,0.4123,118.59,30.03,1016.54,87,119,-40
  1512176759,-0.0186,-0.0545,0.4049,101.93,57.98,1037.96,87,119,-40
  1512176759,-0.0305,-0.0638,0.4079,121.58,59.02,943.18,87,119,-40
  1512176759,-0.0149,-0.0750,0.4017,49.99,62.99,1061.65,87,119,-40
  1512176759,-0.0349,-0.0952,0.4048,-36.25,30.21,1039.18,98,137,-16
  1512176759,-0.0502,-0.1258,0.4000,20.08,45.23,1115.60,98,137,-16
  1512176759,-0.0900,-0.1768,0.3984,118.10,47.85,941.16,98,137,-16
  1512176759,-0.0858,-0.1597,0.3968,58.29,42.66,990.66,98,137,-16
  1512176759,-0.0738,-0.1426,0.3867,27.53,-9.34,985.47,98,137,-16
  1512176759,-0.0614,-0.1328,0.3851,93.81,-18.92,978.15,101,126,-40
  1512176759,-0.0727,-0.1288,0.3838,101.26,-4.39,942.38,101,126,-40
  1512176759,-0.0734,-0.1067,0.3811,110.90,-9.77,969.06,101,126,-40
  1512176759,-0.0414,-0.0868,0.3671,133.85,15.38,995.61,101,126,-40
  1512176759,-0.0241,-0.0682,0.3410,156.86,-33.20,959.90,101,126,-40
  1512176759,0.0156,-0.0534,0.3676,156.43,-29.24,972.17,114,132,-42
  1512176759,-0.0506,-0.0523,0.3665,113.04,-44.62,904.66,114,132,-42
  1512176759,-0.0225,-0.0782,0.3736,114.50,3.17,957.64,114,132,-42
  1512176759,0.0068,-0.0763,0.3778,73.24,-46.63,978.52,114,132,-42
  1512176759,0.0345,-0.0611,0.3903,89.84,39.31,1072.02,100,132,-35
  1512176759,0.0161,-0.0146,0.3754,110.60,5.37,1165.22,100,132,-35
  1512176759,0.0045,0.0298,0.3578,220.89,27.71,1018.01,100,132,-35
  1512176759,-0.0352,0.0519,0.3470,177.43,23.74,1059.69,100,132,-35
  1512176759,-0.0671,0.0731,0.3334,133.18,6.71,1053.28,100,132,-35
  1512176759,-0.0792,0.0955,0.3322,57.98,70.25,1098.02,112,151,-40
  1512176759,-0.1044,0.1170,0.3288,77.70,57.50,1109.62,112,151,-40
  1512176759,-0.0927,0.1489,0.3292,131.16,1.65,1030.27,112,151,-40
  1512176759,-0.1152,0.1365,0.3429,71.11,14.16,928.96,112,151,-40
  1512176759,-0.1345,0.0943,0.3457,22.83,-5.80,944.58,112,151,-40
  1512176759,-0.0380,0.1272,0.3409,53.77,-37.90,1092.04,119,148,-40
  1512176760,-0.0434,0.1234,0.3531,38.27,-9.95,1018.37,119,148,-40
  1512176760,-0.0678,0.0908,0.3549,7.75,-16.36,933.53,119,148,-40
  1512176760,-0.0723,0.0784,0.3506,56.27,-77.15,915.77,119,148,-40
  1512176760,-0.0510,0.0491,0.3449,52.49,-66.16,973.02,112,179,-37
  1512176760,-0.0724,0.0399,0.3442,33.94,-61.34,923.10,112,179,-37
  1512176760,-0.0413,0.0237,0.3409,3.60,-59.88,1080.20,112,179,-37
  1512176760,-0.0469,0.0226,0.3422,0.06,-68.24,971.31,112,179,-37
  1512176760,-0.0679,0.0085,0.3333,25.82,-104.00,912.05,112,179,-37
  1512176760,-0.0680,-0.0328,0.3333,48.65,-36.68,1023.19,110,188,-32
  1512176760,-0.0477,-0.0136,0.3298,7.14,-60.30,1114.26,110,188,-32
  1512176760,-0.0449,-0.0262,0.3266,84.66,-44.92,1039.67,110,188,-32
  1512176760,-0.0724,-0.0318,0.3300,68.85,-34.06,902.89,110,188,-32
  1512176760,-0.0668,-0.0443,0.3286,75.81,-70.62,1002.08,108,183,-47
  1512176760,-0.0534,-0.0407,0.3333,17.58,-54.87,1052.73,108,183,-47
  1512176760,0.0132,-0.0039,0.3274,31.13,-12.27,1129.33,108,183,-47
  1512176760,-0.0334,-0.0142,0.3278,18.49,-69.21,950.81,108,183,-47
  1512176760,-0.0559,-0.0411,0.3333,70.43,-65.06,963.93,108,183,-47
  1512176760,-0.0615,-0.0462,0.3248,94.91,-77.64,988.46,126,183,-44
  1512176760,-0.0284,-0.0268,0.3278,36.56,-32.35,1111.27,126,183,-44
  1512176760,-0.0447,-0.0068,0.3248,47.61,-52.67,920.35,126,183,-44
  1512176760,-0.0454,-0.0121,0.3282,34.91,-29.05,959.41,126,183,-44
  1512176760,-0.0505,-0.0061,0.3257,48.28,-91.74,1035.22,126,183,-44
  1512176760,-0.0394,0.0065,0.3250,18.25,-60.49,1023.19,119,193,-44
  1512176760,-0.0368,0.0041,0.3304,21.06,-32.71,1013.55,119,193,-44
  1512176760,-0.0337,-0.0035,0.3348,11.60,-70.74,1013.67,119,193,-44
  1512176760,-0.0321,-0.0209,0.3393,42.60,-56.34,1035.22,119,193,-44
  1512176760,-0.0164,-0.0346,0.3419,44.92,-65.00,1034.06,119,200,-40
  1512176760,-0.0166,-0.0433,0.3377,51.76,-72.57,965.03,119,200,-40
  1512176760,-0.0161,-0.0523,0.3362,29.72,-62.93,933.84,119,200,-40
  1512176760,-0.0041,-0.0795,0.3333,27.10,-57.37,1028.44,119,200,-40
  1512176760,0.0192,-0.0878,0.3277,67.50,-48.28,1043.76,119,200,-40
  1512176760,0.0003,-0.1025,0.3228,54.87,-86.98,972.53,121,227,-38
  1512176760,0.0076,-0.1184,0.3173,52.80,-72.63,1020.94,121,227,-38
  1512176760,0.0226,-0.1016,0.3128,-14.40,-70.62,1008.06,121,227,-38
  1512176760,0.0154,-0.1131,0.3081,43.52,-42.42,1004.27,121,227,-38
  1512176760,-0.0080,-0.1177,0.3048,81.97,-79.41,942.87,121,227,-38
  1512176760,0.0112,-0.1190,0.3091,34.79,-18.92,1023.86,108,236,-47
  1512176760,0.0333,-0.0856,0.3089,63.35,-31.56,1030.27,108,236,-47
  1512176761,0.0217,-0.0615,0.3008,105.29,-47.18,1028.14,108,236,-47
  1512176761,0.0253,-0.0358,0.2929,108.46,-8.42,1095.83,108,236,-47
  1512176761,0.0619,0.0164,0.2828,59.14,13.43,1147.34,108,236,-47
  1512176761,0.0380,0.0334,0.2577,97.29,-37.29,1009.28,121,223,-45
  1512176761,0.0913,0.0003,0.2655,139.53,-19.04,1031.31,121,223,-45
  1512176761,0.0554,0.0607,0.2618,55.60,-26.49,1027.83,121,223,-45
  1512176761,0.0699,0.0590,0.2622,67.44,-13.24,1003.11,121,223,-45
  1512176761,0.0557,0.0711,0.2639,65.55,-25.94,982.85,107,227,-35
  1512176761,0.0631,0.0844,0.2567,44.31,-46.51,994.20,107,227,-35
  1512176761,0.0565,0.0772,0.2613,20.63,-26.43,952.09,107,227,-35
  1512176761,0.0503,0.0633,0.2573,-0.06,-58.17,936.16,107,227,-35
  1512176761,0.0411,0.0477,0.2550,13.31,-40.34,953.06,107,227,-35
  1512176761,0.0383,0.0585,0.2477,-14.47,-58.41,967.53,86,252,-45
  1512176761,0.0260,0.0569,0.2377,22.64,-67.69,972.11,86,252,-45
  1512176761,0.0166,0.0555,0.2345,-10.74,-55.60,985.72,86,252,-45
  1512176761,0.0153,0.0427,0.2292,2.20,-39.31,1008.00,86,252,-45
  1512176761,0.0092,0.0399,0.2284,-25.63,-64.58,944.21,110,252,-45
  1512176761,0.0011,0.0238,0.2301,-14.10,-55.42,965.82,110,252,-45
  1512176761,-0.0007,0.0112,0.2346,-9.83,-34.18,995.54,110,252,-45
  1512176761,0.0051,0.0007,0.2381,-2.50,-30.52,970.83,110,252,-45
  1512176761,-0.0021,0.0005,0.2360,18.43,-59.45,963.01,110,252,-45
  1512176761,0.0001,0.0075,0.2338,31.13,-35.95,1000.92,87,267,-37
  1512176761,-0.0007,0.0109,0.2288,14.10,-30.09,994.75,87,267,-37
  1512176761,-0.0027,0.0154,0.2198,32.47,-64.09,999.88,87,267,-37
  1512176761,0.0061,0.0153,0.2197,6.65,-32.90,1012.08,87,267,-37
  1512176761,0.0093,0.0154,0.2189,-7.87,-28.50,1004.03,87,267,-37
  1512176761,0.0115,0.0052,0.2158,-10.07,-48.28,982.36,91,267,-64
  1512176761,0.0075,0.0085,0.2160,-16.36,-29.30,1010.68,91,267,-64
  1512176761,0.0129,0.0069,0.2141,-8.85,-20.26,1032.29,91,267,-64
  1512176761,0.0044,0.0073,0.2093,5.07,-34.24,1001.34,91,267,-64
  1512176761,0.0007,0.0028,0.2085,3.66,-14.95,1019.41,91,253,-44
  1512176761,-0.0004,0.0077,0.2104,8.48,4.15,1000.92,91,253,-44
  1512176761,-0.0048,0.0099,0.2064,5.86,-37.78,967.04,91,253,-44
  1512176761,-0.0027,0.0099,0.2029,37.72,-20.81,1013.49,91,253,-44
  1512176761,0.0009,0.0133,0.2032,31.74,-8.85,982.54,91,253,-44
  1512176761,0.0068,0.0170,0.2003,-0.85,-20.20,1013.00,82,266,-49
  1512176761,0.0079,0.0180,0.1960,1.53,-11.66,1005.62,82,266,-49
  1512176761,0.0068,0.0129,0.1959,1.89,-8.61,975.40,82,266,-49
  1512176762,0.0025,0.0056,0.1956,-10.01,-20.20,985.66,82,266,-49
  1512176762,0.0083,0.0036,0.1971,-13.49,7.26,1037.60,82,266,-49
  1512176762,0.0028,0.0083,0.1949,-3.36,-15.75,971.62,72,290,-49
  1512176762,-0.0064,0.0064,0.1916,13.37,-27.16,962.71,72,290,-49
  1512176762,0.0065,0.0044,0.1891,-14.34,-20.81,1008.91,72,290,-49
  1512176762,0.0056,0.0166,0.1838,-6.90,-24.66,983.83,72,290,-49
  1512176762,-0.0047,0.0063,0.1802,-0.61,-30.70,973.14,73,289,-44
  1512176762,0.0093,0.0172,0.1802,-31.62,-15.32,1010.93,73,289,-44
  1512176762,0.0031,0.0138,0.1770,-17.94,-26.61,983.83,73,289,-44
  1512176762,-0.0028,0.0120,0.1763,-5.00,-39.67,986.51,73,289,-44
  1512176762,0.0033,0.0100,0.1760,-7.69,-39.61,995.24,73,289,-44
  1512176762,0.0004,-0.0013,0.1811,-5.25,-55.42,1005.07,79,294,-42
  1512176762,0.0008,0.0000,0.1814,-5.68,-48.58,998.78,79,294,-42
  1512176762,0.0015,0.0032,0.1791,10.19,-56.70,984.68,79,294,-42
  1512176762,-0.0045,0.0064,0.1780,2.81,-84.59,998.84,79,294,-42
  1512176762,-0.0005,0.0039,0.1744,14.83,-58.23,1018.62,77,303,-37
  1512176762,-0.0015,0.0032,0.1731,6.71,-52.98,971.44,77,303,-37
  1512176762,0.0015,0.0007,0.1718,7.02,-73.36,979.13,77,303,-37
  1512176762,0.0020,-0.0024,0.1694,-3.48,-53.65,1019.35,77,303,-37
  1512176762,0.0053,0.0024,0.1702,-17.94,-62.26,1004.39,77,303,-37
  1512176762,0.0031,-0.0019,0.1688,-9.83,-64.64,996.58,75,308,-32
  1512176762,0.0065,-0.0023,0.1694,-17.09,-47.91,1024.72,75,308,-32
  1512176762,0.0020,0.0013,0.1683,-5.92,-47.06,960.88,75,308,-32
  1512176762,-0.0079,-0.0032,0.1663,0.55,-67.38,1002.32,75,308,-32
  1512176762,0.0029,0.0060,0.1656,-5.62,-40.65,1018.49,75,308,-32
  1512176762,-0.0043,-0.0008,0.1674,-18.55,-57.25,992.98,65,322,-49
  1512176762,-0.0065,-0.0072,0.1622,14.34,-66.96,1007.51,65,322,-49
  1512176762,0.0048,-0.0043,0.1642,-2.50,-61.83,1063.29,65,322,-49
  1512176762,0.0087,0.0049,0.1651,-11.84,-52.73,990.11,65,322,-49
  1512176762,-0.0065,-0.0077,0.1643,12.33,-110.53,952.94,65,304,-35
  1512176762,-0.0089,-0.0073,0.1674,-0.55,-87.46,968.87,65,304,-35
  1512176762,-0.0013,-0.0091,0.1690,-6.53,-89.84,1043.27,65,304,-35
  1512176762,0.0065,-0.0008,0.1670,9.52,-86.12,1030.76,65,304,-35
  1512176762,-0.0052,-0.0021,0.1684,5.74,-100.89,963.75,65,304,-35
  1512176762,-0.0055,0.0059,0.1684,25.02,-113.34,965.64,54,308,-22
  1512176762,-0.0180,-0.0011,0.1719,17.76,-117.68,937.19,54,308,-22
  1512176762,-0.0226,-0.0052,0.1716,46.94,-123.78,938.17,54,308,-22
  1512176762,-0.0176,-0.0019,0.1692,42.72,-128.36,961.30,54,308,-22
  1512176763,-0.0202,-0.0103,0.1736,57.43,-145.57,965.52,54,308,-22
  1512176763,-0.0145,-0.0076,0.1818,35.64,-160.34,971.74,63,310,-44
  1512176763,-0.0115,-0.0073,0.1848,25.02,-163.45,984.19,63,310,-44
  1512176763,-0.0194,-0.0089,0.1815,61.77,-182.74,983.76,63,310,-44
  1512176763,-0.0174,-0.0055,0.1943,59.69,-196.59,987.79,63,310,-44
  1512176763,-0.0037,0.0007,0.1943,51.51,-190.98,1000.12,52,317,-40
  1512176763,-0.0108,-0.0051,0.1989,56.82,-185.12,991.27,52,317,-40
  1512176763,-0.0007,0.0057,0.2007,33.51,-211.85,990.11,52,317,-40
  1512176763,0.0193,0.0242,0.2032,37.35,-210.63,1010.74,52,317,-40
  1512176763,0.0008,0.0084,0.2151,16.42,-194.46,1008.36,52,317,-40
  1512176763,-0.0093,0.0111,0.2197,38.51,-201.72,990.30,52,324,-44
  1512176763,-0.0152,0.0144,0.2189,44.07,-227.84,967.16,52,324,-44
  1512176763,-0.0141,0.0095,0.2270,59.88,-215.64,981.99,52,324,-44
  1512176763,-0.0071,0.0113,0.2397,30.76,-203.00,1016.72,52,324,-44
  1512176763,-0.0116,0.0129,0.2398,58.59,-218.20,1008.12,52,324,-44
  1512176763,0.0001,0.0173,0.2450,49.93,-249.76,1002.99,52,338,-40
  1512176763,-0.0049,0.0190,0.2495,44.07,-203.12,977.66,52,338,-40
  1512176763,-0.0224,-0.0007,0.2547,87.16,-232.79,1014.89,52,338,-40
  1512176763,-0.0245,-0.0108,0.2567,95.09,-218.44,971.37,52,338,-40
  1512176763,0.0214,0.0326,0.2629,40.65,-201.84,995.54,54,326,-38
  1512176763,0.0213,0.0330,0.2666,60.24,-214.97,1030.46,54,326,-38
  1512176763,-0.0128,0.0081,0.2707,89.42,-180.24,979.74,54,326,-38
  1512176763,-0.0200,0.0013,0.2727,50.60,-205.63,945.98,54,326,-38
  1512176763,0.0095,0.0208,0.2751,65.12,-202.15,1028.44,54,326,-38
  1512176763,0.0435,0.0430,0.2775,45.53,-182.01,1073.85,61,340,-38
  1512176763,0.0029,0.0162,0.2848,60.36,-218.87,998.96,61,340,-38
  1512176763,0.0112,0.0326,0.2856,34.24,-199.58,1002.20,61,340,-38
  1512176763,0.0045,0.0250,0.2879,54.50,-206.54,1033.02,61,340,-38
  1512176763,-0.0230,0.0166,0.2876,98.39,-211.73,1006.47,36,354,-59
  1512176763,-0.0160,0.0115,0.2903,78.86,-179.08,1016.30,36,354,-59
  1512176763,0.0057,0.0186,0.2948,59.27,-181.95,1031.37,36,354,-59
  1512176763,0.0141,0.0226,0.2999,39.73,-143.62,987.06,36,354,-59
  1512176763,0.0063,0.0266,0.3048,62.13,-206.24,1006.59,36,354,-59
  1512176763,0.0184,0.0270,0.3041,74.28,-169.74,1000.73,43,340,-45
  1512176763,0.0173,0.0322,0.3020,73.85,-173.58,1008.24,43,340,-45
  1512176763,0.0063,0.0254,0.2993,109.01,-174.74,1039.86,43,340,-45
  1512176763,-0.0047,0.0115,0.2988,133.91,-179.08,985.23,43,340,-45
  1512176763,0.0362,0.0240,0.3033,70.56,-182.19,1026.49,43,340,-45
  1512176764,0.0150,0.0182,0.3049,61.77,-184.75,987.79,31,349,-40
  1512176764,0.0317,0.0212,0.3061,42.18,-161.13,1033.20,31,349,-40
  1512176764,0.0197,0.0134,0.3132,53.77,-165.95,1025.27,31,349,-40
  1512176764,0.0085,0.0079,0.3112,60.67,-183.96,1015.75,31,349,-40
  1512176764,0.0129,0.0160,0.3087,69.03,-152.53,1011.47,15,347,-45
  1512176764,-0.0127,0.0005,0.3059,98.82,-195.19,1010.99,15,347,-45
  1512176764,0.0338,0.0332,0.3031,32.23,-151.25,1020.87,15,347,-45
  1512176764,0.0248,0.0298,0.3051,32.47,-140.01,1037.11,15,347,-45
  1512176764,0.0345,0.0344,0.2999,22.77,-165.59,1062.87,15,347,-45
  1512176764,0.0088,0.0051,0.3052,-5.86,-150.88,1041.44,33,357,-35
  1512176764,-0.0025,0.0063,0.3048,19.10,-200.32,1024.05,33,357,-35
  1512176764,0.0033,0.0107,0.3029,15.69,-159.61,980.35,33,357,-35
  1512176764,0.0265,0.0272,0.3011,-2.56,-156.68,1009.70,33,357,-35
  1512176764,0.0382,0.0313,0.3029,11.11,-180.30,959.90,33,357,-35
  1512176764,0.0107,0.0165,0.2933,40.10,-175.54,1005.55,19,364,-42
  1512176764,0.0093,0.0182,0.2883,42.91,-156.74,1056.70,19,364,-42
  1512176764,-0.0308,-0.0015,0.2850,25.88,-141.54,959.17,19,364,-42
  1512176764,-0.0060,0.0182,0.2786,28.14,-157.04,994.63,19,364,-42
  1512176764,0.0043,0.0214,0.2747,38.33,-156.56,996.52,19,364,-42
  1512176764,-0.0023,0.0076,0.2752,25.57,-179.87,1006.04,3,359,-44
  1512176764,-0.0059,0.0190,0.2738,6.53,-133.12,981.87,3,359,-44
  1512176764,0.0095,0.0193,0.2675,24.41,-197.20,1018.31,3,359,-44
  1512176764,-0.0125,0.0024,0.2623,18.62,-155.58,967.35,3,359,-44
  1512176764,-0.0495,-0.0233,0.2542,55.42,-189.88,941.28,1,371,-52
  1512176764,-0.0214,-0.0145,0.2550,14.77,-191.10,975.28,1,371,-52
  1512176764,-0.0136,-0.0136,0.2518,38.88,-166.87,951.17,1,371,-52
  1512176764,-0.0270,-0.0308,0.2486,12.70,-201.60,983.52,1,371,-52
  1512176764,-0.0085,-0.0306,0.2511,19.35,-184.81,938.54,1,371,-52
  1512176764,0.0113,-0.0258,0.2493,20.57,-159.18,920.47,-7,363,-54
  1512176764,0.0228,-0.0200,0.2486,17.27,-185.00,952.76,-7,363,-54
  1512176764,0.0277,-0.0317,0.2364,19.04,-207.64,960.94,-7,363,-54
  1512176764,0.0294,-0.0433,0.2409,-16.17,-176.64,955.69,-7,363,-54
  1512176764,0.0399,-0.0509,0.2352,5.07,-167.11,1021.55,-22,368,-45
  1512176764,0.0326,-0.0322,0.2309,14.22,-137.88,1013.61,-22,368,-45
  1512176764,0.0441,0.0007,0.2264,8.85,-137.51,1042.97,-22,368,-45
  1512176764,0.0256,0.0188,0.2182,83.74,-167.91,1059.45,-22,368,-45
  1512176764,0.0314,0.0418,0.2115,68.48,-149.90,1114.20,-22,368,-45
  1512176765,0.0044,0.0449,0.2108,51.33,-159.06,1078.43,-28,377,-47
  1512176765,-0.0170,0.0341,0.2125,-2.75,-147.95,989.44,-28,377,-47
  1512176765,-0.0071,0.0455,0.2040,31.13,-165.53,1062.74,-28,377,-47
  1512176765,0.0209,0.0494,0.2084,-42.54,-118.84,1019.23,-28,377,-47
  1512176765,0.0316,0.0573,0.2013,-56.27,-140.93,1021.36,-28,377,-47
  1512176765,0.0132,0.0601,0.1883,-63.29,-164.25,1008.24,-33,379,-59
  1512176765,0.0128,0.0563,0.1743,-39.18,-144.41,1016.11,-33,379,-59
  1512176765,-0.0044,0.0438,0.1679,-38.39,-171.87,1007.69,-33,379,-59
  1512176765,-0.0063,0.0559,0.1236,-41.63,-174.93,1023.01,-33,379,-59
  1512176765,-0.0047,0.0659,0.1358,-12.88,-151.61,953.55,-33,389,-55
  1512176765,-0.0048,0.0372,0.1262,-39.61,-193.30,1020.63,-33,389,-55
  1512176765,0.0194,0.0250,0.1284,2.32,-150.82,1028.81,-33,389,-55
  1512176765,0.0005,0.0065,0.1234,-68.48,-155.03,1015.81,-33,389,-55
  1512176765,-0.0021,0.0045,0.1250,-53.10,-143.37,976.20,-33,389,-55
  1512176765,-0.0261,0.0024,0.1165,-26.43,-170.65,946.35,-36,379,-52
  1512176765,-0.0204,0.0145,0.0939,-24.84,-180.91,901.67,-36,379,-52
  1512176765,-0.0148,-0.0076,0.1031,-9.95,-155.70,1022.95,-36,379,-52
  1512176765,0.0031,-0.0053,0.1029,-28.02,-120.79,991.39,-36,379,-52
  1512176765,-0.0220,-0.0084,0.0871,7.20,-196.53,937.93,-36,379,-52
  1512176765,-0.0201,-0.0121,0.0874,34.24,-147.34,908.87,-50,386,-52
  1512176765,-0.0344,-0.0277,0.0936,4.52,-172.91,941.83,-50,386,-52
  1512176765,-0.0101,-0.0249,0.0921,-27.22,-177.00,1030.94,-50,386,-52
  1512176765,0.0037,-0.0296,0.0963,-24.11,-119.08,1010.07,-50,386,-52
  1512176765,0.0016,-0.0197,0.0953,-1.77,-178.41,1070.68,-56,380,-47
  1512176765,0.0236,0.0127,0.0909,-1.77,-136.78,1018.25,-56,380,-47
  1512176765,0.0212,-0.0031,0.0858,16.36,-150.88,994.87,-56,380,-47
  1512176765,0.0035,-0.0213,0.0904,27.28,-125.18,1056.40,-56,380,-47
  1512176765,0.0482,0.0068,0.0812,19.17,-108.58,1045.47,-56,380,-47
  1512176765,0.0457,-0.0017,0.0882,-20.26,-91.31,1029.42,-47,386,-55
  1512176765,0.0630,0.0132,0.0859,-33.02,-100.65,990.72,-47,386,-55
  1512176765,0.0422,0.0032,0.0768,-31.37,-121.22,976.56,-47,386,-55
  1512176765,0.0469,0.0166,0.0744,-22.28,-108.28,1023.74,-47,386,-55
  1512176765,0.0409,0.0145,0.0698,-23.99,-169.62,1002.26,-47,386,-55
  1512176765,0.0465,0.0361,0.0723,-49.38,-92.29,989.14,-43,396,-62
  1512176765,0.0200,0.0161,0.0679,19.65,-149.78,902.59,-43,396,-62
  1512176765,0.0182,-0.0019,0.0744,-35.28,-142.09,989.62,-43,396,-62
  1512176765,0.0274,-0.0019,0.0691,-1.10,-127.08,1001.53,-43,396,-62
  1512176765,0.0281,-0.0088,0.0724,-8.79,-123.47,1025.33,-43,393,-59
  1512176766,0.0306,-0.0087,0.0679,-10.80,-109.13,961.06,-43,393,-59
  1512176766,0.0395,0.0177,0.0610,21.91,-128.36,986.08,-43,393,-59
  1512176766,0.0290,0.0306,0.0550,-52.86,-115.17,1016.42,-43,393,-59
  1512176766,0.0232,0.0290,0.0469,-46.26,-105.59,1038.51,-43,393,-59
  1512176766,0.0205,0.0158,0.0377,-72.69,-110.72,1056.82,-47,407,-49
  1512176766,0.0089,0.0158,0.0370,-47.12,-108.28,964.23,-47,407,-49
  1512176766,-0.0061,0.0071,0.0270,-67.26,-157.90,972.41,-47,407,-49
  1512176766,0.0003,0.0045,0.0269,-84.35,-119.93,950.74,-47,407,-49
  1512176766,0.0012,0.0052,0.0268,-74.16,-123.90,1040.89,-47,407,-49
  1512176766,-0.0025,0.0019,0.0200,-22.64,-129.52,976.87,-56,394,-44
  1512176766,-0.0041,0.0161,0.0154,-60.49,-47.12,983.03,-56,394,-44
  1512176766,-0.0052,0.0077,0.0142,-43.95,-20.94,979.19,-56,394,-44
  1512176766,0.0170,0.0193,0.0079,-89.60,20.32,1013.85,-56,394,-44
  1512176766,-0.0025,-0.0095,0.0055,-49.50,-37.96,1003.48,-59,398,-57
  1512176766,0.0093,-0.0233,0.0068,-78.12,-101.93,982.36,-59,398,-57
  1512176766,-0.0003,-0.0316,0.0095,-81.48,-83.80,954.59,-59,398,-57
  1512176766,-0.0079,-0.0237,0.0084,-80.14,-46.08,994.87,-59,398,-57
  1512176766,-0.0144,-0.0158,-0.0128,-61.34,-44.68,1041.44,-59,398,-57
  1512176766,-0.0312,0.0025,-0.0096,-61.83,-50.42,1049.07,-65,396,-42
  1512176766,-0.0134,0.0240,-0.0133,-31.13,-64.76,953.74,-65,396,-42
  1512176766,-0.0041,0.0109,-0.0158,-106.45,-70.01,999.69,-65,396,-42
  1512176766,0.0040,0.0162,-0.0117,-105.59,-76.23,975.46,-65,396,-42
  1512176766,0.0097,-0.0003,-0.0055,-81.36,-26.49,961.49,-68,400,-52
  1512176766,0.0073,-0.0027,-0.0108,-105.29,-45.47,999.39,-68,400,-52
  1512176766,0.0168,-0.0052,-0.0190,-107.79,-38.94,1001.04,-68,400,-52
  1512176766,0.0007,-0.0089,-0.0194,-76.84,-1.10,964.11,-68,400,-52
  1512176766,0.0017,-0.0162,-0.0217,-45.90,-25.57,971.56,-68,400,-52
  1512176766,0.0052,-0.0039,-0.0230,-49.26,-5.55,941.35,-63,384,-54
  1512176766,0.0016,-0.0039,-0.0248,-65.43,-5.31,999.82,-63,384,-54
  1512176766,0.0039,-0.0079,-0.0270,-44.92,-20.69,1037.60,-63,384,-54
  1512176766,0.0045,-0.0072,-0.0257,-56.82,7.45,1005.25,-63,384,-54
  1512176766,0.0182,-0.0036,-0.0309,-88.56,-6.90,1048.95,-63,384,-54
  1512176766,0.0218,0.0048,-0.0282,-91.37,-16.91,1020.57,-65,371,-45
  1512176766,0.0157,-0.0189,-0.0294,-53.10,-27.16,913.82,-65,371,-45
  1512176766,0.0284,-0.0153,-0.0212,-84.84,12.70,1057.74,-65,371,-45
  1512176766,0.0221,-0.0101,-0.0250,-51.21,-5.19,971.50,-65,371,-45
  1512176766,0.0306,-0.0051,-0.0314,-25.51,-36.50,1083.74,-61,403,-62
  1512176766,0.0281,-0.0017,-0.0252,-67.75,50.90,1022.52,-61,403,-62
  1512176767,0.0113,-0.0117,-0.0264,-9.22,0.49,990.36,-61,403,-62
  1512176767,0.0181,-0.0208,-0.0300,-7.93,23.44,949.04,-61,403,-62
  1512176767,0.0284,-0.0225,-0.0296,-56.40,37.60,940.49,-61,403,-62
  1512176767,0.0304,-0.0278,-0.0284,-39.37,-39.98,1023.38,-73,391,-44
  1512176767,0.0321,-0.0152,-0.0241,-83.98,-0.92,1041.75,-73,391,-44
  1512176767,0.0061,-0.0376,-0.0276,-42.91,-14.53,979.80,-73,391,-44
  1512176767,0.0265,-0.0336,-0.0252,-50.72,45.72,1074.58,-73,391,-44
  1512176767,0.0095,-0.0241,-0.0257,-41.63,60.06,982.73,-73,391,-44
  1512176767,0.0020,-0.0113,-0.0312,-62.26,-14.16,981.93,-52,394,-44
  1512176767,0.0096,-0.0008,-0.0337,-52.43,15.99,1026.06,-52,394,-44
  1512176767,-0.0012,-0.0083,-0.0328,-41.50,34.00,1043.09,-52,394,-44
  1512176767,0.0015,-0.0136,-0.0280,-37.72,37.66,1033.75,-52,394,-44
  1512176767,0.0079,0.0025,-0.0298,-17.09,55.79,964.17,-59,387,-54
  1512176767,-0.0020,0.0039,-0.0286,-5.25,6.10,924.13,-59,387,-54
  1512176767,0.0059,-0.0145,-0.0276,-27.77,18.80,1029.72,-59,387,-54
  1512176767,-0.0008,-0.0158,-0.0274,-117.25,36.74,1021.67,-59,387,-54
  1512176767,0.0051,-0.0119,-0.0234,-94.54,17.76,1023.19,-59,387,-54
  1512176767,0.0029,0.0096,-0.0329,-38.94,44.07,1000.06,-73,373,-50
  1512176767,-0.0080,0.0029,-0.0276,-59.27,26.18,930.18,-73,373,-50
  1512176767,-0.0107,-0.0016,-0.0302,-117.31,-19.17,992.43,-73,373,-50
  1512176767,-0.0060,-0.0282,-0.0245,-93.51,68.18,997.44,-73,373,-50
  1512176767,-0.0116,-0.0298,-0.0301,-22.83,32.96,957.21,-72,396,-35
  1512176767,-0.0149,-0.0334,-0.0302,16.85,-24.11,955.75,-72,396,-35
  1512176767,-0.0081,-0.0362,-0.0217,24.54,45.41,934.81,-72,396,-35
  1512176767,-0.0161,-0.0134,-0.0253,-7.93,40.28,965.45,-72,396,-35
  1512176767,-0.0165,-0.0088,-0.0253,-34.24,48.28,1027.47,-72,396,-35
  1512176767,-0.0264,-0.0217,-0.0284,-34.85,40.89,976.32,-59,391,-30
  1512176767,-0.0115,-0.0013,-0.0261,-34.67,45.84,1014.89,-59,391,-30
  1512176767,-0.0075,-0.0015,-0.0289,-65.06,43.03,1072.14,-59,391,-30
  1512176767,-0.0137,-0.0125,-0.0285,-69.15,40.89,1030.15,-59,391,-30
  1512176767,-0.0141,-0.0061,-0.0293,-116.64,26.98,1095.76,-59,391,-30
  1512176767,-0.0029,-0.0071,-0.0272,-93.99,25.76,1045.78,-57,382,-15
  1512176767,-0.0103,-0.0105,-0.0278,-35.46,13.85,957.03,-57,382,-15
  1512176767,-0.0253,-0.0077,-0.0246,26.25,13.92,887.82,-57,382,-15
  1512176767,-0.0218,-0.0064,-0.0317,15.63,-14.16,1020.02,-57,382,-15
  1512176767,-0.0150,-0.0192,-0.0237,-3.30,44.80,967.90,-45,384,-27
  1512176767,-0.0165,-0.0112,-0.0174,-51.09,15.32,1078.25,-45,384,-27
  1512176767,-0.0017,0.0089,-0.0186,-25.21,-0.18,1045.59,-45,384,-27
  1512176768,-0.0061,0.0162,-0.0096,-21.42,52.19,1052.80,-45,384,-27
  1512176768,-0.0080,0.0065,-0.0100,-54.81,8.91,1033.08,-45,384,-27
  1512176768,-0.0044,0.0073,-0.0112,-37.90,10.56,1046.08,-54,396,-35
  1512176768,-0.0209,-0.0189,-0.0012,-62.56,51.45,1010.01,-54,396,-35
  1512176768,-0.0190,-0.0304,-0.0041,-2.01,-8.36,969.60,-54,396,-35
  1512176768,-0.0217,-0.0025,0.0035,23.80,39.79,949.95,-54,396,-35
  1512176768,-0.0198,-0.0121,0.0024,-44.13,10.31,976.87,-54,396,-35
  1512176768,-0.0130,-0.0208,-0.0003,-0.49,19.65,993.59,-45,384,-33
  1512176768,-0.0128,-0.0130,0.0035,-20.02,45.84,1016.24,-45,384,-33
  1512176768,-0.0150,-0.0149,0.0027,-36.68,23.50,1070.56,-45,384,-33
  1512176768,0.0017,0.0088,0.0044,-36.62,41.14,1024.11,-45,384,-33
  1512176768,-0.0084,-0.0069,0.0080,-16.91,57.50,1027.16,-24,373,-37
  1512176768,-0.0125,-0.0162,0.0099,20.32,23.62,964.05,-24,373,-37
  1512176768,-0.0048,-0.0268,0.0141,9.34,29.48,940.86,-24,373,-37
  1512176768,0.0072,-0.0284,0.0166,-46.69,-6.84,998.11,-24,373,-37
  1512176768,0.0208,-0.0077,0.0222,-12.82,54.87,996.83,-24,373,-37
  1512176768,0.0100,0.0063,0.0210,-33.45,-5.80,990.23,-40,393,-35
  1512176768,0.0096,-0.0092,0.0204,-35.28,23.01,954.65,-40,393,-35
  1512176768,0.0007,0.0083,0.0184,-11.84,1.10,930.11,-40,393,-35
  1512176768,-0.0083,-0.0096,0.0204,-22.46,-17.33,1033.20,-40,393,-35
  1512176768,-0.0132,-0.0150,0.0204,-6.35,9.70,934.02,-52,373,-37
  1512176768,-0.0087,-0.0084,0.0170,40.34,-8.79,1000.55,-52,373,-37
  1512176768,-0.0071,0.0225,0.0136,-8.18,-5.68,978.03,-52,373,-37
  1512176768,-0.0097,0.0068,0.0225,-37.11,45.29,1063.48,-52,373,-37
  1512176768,-0.0149,0.0024,0.0246,0.24,12.27,1016.91,-52,373,-37
  1512176768,-0.0178,-0.0119,0.0278,-19.59,0.61,958.44,-42,373,-40
  1512176768,-0.0099,-0.0165,0.0338,-55.54,30.40,979.80,-42,373,-40
  1512176768,-0.0108,-0.0096,0.0334,-25.45,29.42,930.54,-42,373,-40
  1512176768,-0.0069,-0.0024,0.0378,27.71,33.39,999.82,-42,373,-40
  1512176768,-0.0148,-0.0101,0.0342,2.20,12.63,967.90,-42,373,-40
  1512176768,-0.0039,-0.0080,0.0354,17.82,53.65,985.72,-36,382,-52
  1512176768,0.0033,-0.0109,0.0328,0.43,20.75,997.44,-36,382,-52
  1512176768,-0.0020,-0.0055,0.0356,54.02,11.96,960.88,-36,382,-52
  1512176768,-0.0055,-0.0129,0.0380,25.88,48.83,1005.37,-36,382,-52
  1512176768,-0.0040,0.0021,0.0393,29.66,20.45,955.81,-50,379,-45
  1512176768,-0.0037,0.0049,0.0378,0.61,3.66,966.49,-50,379,-45
  1512176768,-0.0100,-0.0121,0.0403,2.38,20.14,947.81,-50,379,-45
  1512176769,0.0007,-0.0132,0.0438,-3.97,-3.66,1053.89,-50,379,-45
  1512176769,-0.0005,-0.0198,0.0501,-5.25,35.10,960.21,-50,379,-45
  1512176769,-0.0015,-0.0161,0.0566,-18.74,-0.18,955.81,-42,373,-57
  1512176769,0.0059,-0.0142,0.0563,-32.47,25.21,951.17,-42,373,-57
  1512176769,0.0104,-0.0182,0.0618,-41.69,30.40,1014.77,-42,373,-57
  1512176769,-0.0001,-0.0358,0.0589,-24.72,16.30,1041.56,-42,373,-57
  1512176769,0.0031,-0.0266,0.0626,13.06,50.48,1001.65,-63,380,-60
  1512176769,0.0023,-0.0053,0.0609,1.22,21.18,1092.65,-63,380,-60
  1512176769,-0.0015,-0.0065,0.0662,-39.18,24.17,1075.81,-63,380,-60
  1512176769,0.0020,0.0049,0.0688,-27.89,47.91,1046.14,-63,380,-60
  1512176769,-0.0111,-0.0040,0.0732,-19.47,24.48,989.81,-63,380,-60
  1512176769,-0.0077,-0.0265,0.0718,12.02,48.46,1028.26,-59,370,-57
  1512176769,0.0088,-0.0294,0.0807,-28.69,47.24,1054.32,-59,370,-57
  1512176769,0.0409,0.0091,0.0831,-21.30,41.50,1012.39,-59,370,-57
  1512176769,-0.0174,-0.0153,0.0882,-4.27,16.85,921.87,-59,370,-57
  1512176769,0.0023,0.0068,0.0832,-1.40,18.68,974.85,-59,370,-57
  1512176769,0.0031,0.0234,0.0889,-31.49,34.30,1013.37,-52,373,-54
  1512176769,0.0185,0.0382,0.0888,-50.78,35.71,1112.67,-52,373,-54
  1512176769,0.0016,0.0324,0.0867,4.64,14.22,1024.72,-52,373,-54
  1512176769,-0.0253,0.0125,0.0895,6.84,-14.10,957.89,-52,373,-54
  1512176769,-0.0374,0.0154,0.0940,2.50,-20.32,975.16,-54,379,-42
  1512176769,-0.0386,0.0065,0.1016,23.07,47.06,934.02,-54,379,-42
  1512176769,-0.0254,0.0080,0.1023,40.16,21.12,976.01,-54,379,-42
  1512176769,-0.0117,0.0138,0.1023,46.26,1.53,966.98,-54,379,-42
  1512176769,-0.0286,-0.0162,0.1021,60.36,-4.76,914.12,-54,379,-42
  1512176769,-0.0121,-0.0123,0.1075,6.77,-4.70,982.48,-68,375,-45
  1512176769,-0.0015,-0.0150,0.1137,-17.52,-27.53,1015.32,-68,375,-45
  1512176769,-0.0103,-0.0234,0.1123,-50.96,9.77,941.35,-68,375,-45
  1512176769,-0.0117,-0.0120,0.1184,7.45,34.24,932.37,-68,375,-45
  1512176769,-0.0081,-0.0023,0.1158,-0.06,51.15,1019.90,-68,375,-45
  1512176769,-0.0064,0.0005,0.1193,-14.16,24.17,1046.63,-79,389,-32
  1512176769,-0.0011,0.0077,0.1213,-21.48,50.17,1014.59,-79,389,-32
  1512176769,-0.0079,-0.0266,0.1260,61.65,43.15,1022.16,-79,389,-32
  1512176769,0.0241,-0.0091,0.1261,7.63,2.08,1047.79,-79,389,-32
  1512176769,0.0120,-0.0101,0.1281,13.67,10.62,967.22,-57,382,-25
  1512176769,0.0044,-0.0174,0.1395,13.37,23.56,980.16,-57,382,-25
  1512176769,0.0073,-0.0217,0.1381,10.68,-8.91,979.49,-57,382,-25
  1512176769,0.0397,-0.0008,0.1407,35.10,15.32,1018.55,-57,382,-25
  1512176770,0.0178,-0.0007,0.1409,65.61,-8.91,1001.59,-57,382,-25
  1512176770,0.0041,-0.0051,0.1382,125.37,12.94,1006.96,-66,384,-37
  1512176770,-0.0115,-0.0028,0.1365,114.93,-8.00,981.69,-66,384,-37
  1512176770,-0.0246,-0.0184,0.1427,90.76,21.61,1004.76,-66,384,-37
  1512176770,-0.0115,-0.0115,0.1435,112.55,20.94,1005.74,-66,384,-37
  1512176770,-0.0208,-0.0075,0.1477,81.67,38.09,986.76,-77,380,-37
  1512176770,0.0031,0.0192,0.1446,96.44,12.15,1045.59,-77,380,-37
  1512176770,-0.0052,0.0180,0.1443,76.48,30.52,982.12,-77,380,-37
  1512176770,0.0047,0.0252,0.1495,58.59,8.00,991.09,-77,380,-37
  1512176770,0.0234,0.0254,0.1507,43.27,35.77,1045.96,-77,380,-37
  1512176770,0.0265,0.0567,0.1497,15.69,30.40,1094.79,-63,391,-40
  1512176770,0.0073,0.0691,0.1454,18.37,43.09,1095.09,-63,391,-40
  1512176770,-0.0145,0.0832,0.1474,54.69,-17.21,1008.24,-63,391,-40
  1512176770,-0.0261,0.0554,0.1554,-8.85,44.07,985.96,-63,391,-40
  1512176770,-0.0190,0.0274,0.1590,-44.31,-16.42,947.88,-63,391,-40
  1512176770,-0.0067,0.0080,0.1551,-48.83,6.96,943.18,-94,391,-57
  1512176770,-0.0182,-0.0144,0.1586,-0.55,-24.66,924.93,-94,391,-57
  1512176770,-0.0105,-0.0196,0.1611,18.74,1.77,999.08,-94,391,-57
  1512176770,-0.0017,-0.0111,0.1613,-13.31,9.52,966.61,-94,391,-57
  1512176770,-0.0013,-0.0019,0.1511,29.24,26.79,1052.25,-86,389,-28
  1512176770,-0.0076,0.0218,0.1406,47.49,33.69,996.70,-86,389,-28
  1512176770,-0.0209,0.0044,0.1431,40.04,7.93,1011.41,-86,389,-28
  1512176770,-0.0298,-0.0217,0.1457,42.42,-0.61,974.91,-86,389,-28
  1512176770,-0.0310,-0.0361,0.1546,11.84,23.07,977.84,-86,389,-28
  1512176770,0.0407,0.0004,0.1591,-4.64,7.32,1088.44,-94,380,-44
  1512176770,0.0567,0.0182,0.1651,-12.21,46.45,1034.73,-94,380,-44
  1512176770,-0.0015,-0.0270,0.1674,17.88,3.78,996.77,-94,380,-44
  1512176770,-0.0041,-0.0152,0.1664,86.06,-17.21,986.02,-94,380,-44
  1512176770,-0.0129,-0.0068,0.1617,68.42,23.50,990.97,-94,380,-44
  1512176770,-0.0119,0.0047,0.1627,96.07,-23.32,1034.36,-96,386,-42
  1512176770,-0.0390,-0.0286,0.1655,102.66,20.51,962.40,-96,386,-42
  1512176770,-0.0418,-0.0352,0.1658,43.95,29.42,944.52,-96,386,-42
  1512176770,0.0029,-0.0119,0.1666,63.23,-5.19,1061.46,-96,386,-42
  1512176770,0.0399,0.0116,0.1676,105.41,82.28,1005.55,-98,394,-37
  1512176770,-0.0031,-0.0035,0.1715,52.31,1.40,994.75,-98,394,-37
  1512176770,-0.0044,0.0229,0.1646,73.85,13.61,1036.44,-98,394,-37
  1512176770,-0.0116,0.0162,0.1694,74.46,40.65,1031.31,-98,394,-37
  1512176770,-0.0142,-0.0048,0.1684,55.48,-7.75,1018.86,-98,394,-37
  1512176771,-0.0049,-0.0162,0.1742,45.04,69.76,1018.80,-105,380,-40
  1512176771,-0.0056,-0.0103,0.1679,52.67,19.71,1074.89,-105,380,-40
  1512176771,0.0001,0.0113,0.1622,61.04,43.70,1058.41,-105,380,-40
  1512176771,-0.0044,0.0276,0.1663,47.00,50.48,1079.90,-105,380,-40
  1512176771,-0.0132,0.0278,0.1639,89.11,30.27,1051.94,-105,380,-40
  1512176771,-0.0294,0.0310,0.1662,71.11,34.91,960.21,-117,393,-45
  1512176771,-0.0575,-0.0077,0.1743,41.99,-6.41,931.34,-117,393,-45
  1512176771,-0.0060,-0.0021,0.1786,50.48,-22.34,1003.78,-117,393,-45
  1512176771,0.0023,-0.0008,0.1847,41.08,35.95,948.79,-117,393,-45
  1512176771,-0.0056,-0.0025,0.1879,12.39,6.59,995.61,-133,398,-40
  1512176771,-0.0033,0.0081,0.1794,48.58,-7.45,950.26,-133,398,-40
  1512176771,-0.0073,0.0185,0.1807,39.37,10.38,951.23,-133,398,-40
  1512176771,-0.0181,0.0165,0.1799,38.09,-0.55,942.99,-133,398,-40
  1512176771,-0.0132,0.0230,0.1802,29.97,11.47,987.55,-133,398,-40
  1512176771,0.0004,0.0273,0.1782,57.25,-14.22,981.08,-135,396,-38
  1512176771,-0.0274,0.0049,0.1843,24.11,-42.18,962.34,-135,396,-38
  1512176771,-0.0111,0.0055,0.1919,37.84,-1.89,981.87,-135,396,-38
  1512176771,0.0055,0.0091,0.1931,30.15,-6.90,1065.19,-135,396,-38
  1512176771,-0.0088,0.0105,0.1907,37.72,-30.46,1002.75,-117,389,-38
  1512176771,-0.0103,0.0140,0.1864,59.81,-7.87,996.58,-117,389,-38
  1512176771,-0.0108,0.0041,0.1874,34.85,-41.14,985.29,-117,389,-38
  1512176771,-0.0085,-0.0031,0.1884,24.23,-4.64,1007.81,-117,389,-38
  1512176771,-0.0083,-0.0040,0.1892,40.95,-6.23,1043.95,-117,389,-38
  1512176771,-0.0154,0.0144,0.1827,40.22,-37.60,1018.80,-122,401,-33
  1512176771,-0.0158,0.0297,0.1820,35.89,-14.10,1008.12,-122,401,-33
  1512176771,-0.0028,0.0369,0.1831,63.66,-22.34,1074.71,-122,401,-33
  1512176771,0.0115,0.0438,0.1863,54.50,-33.08,1006.65,-122,401,-33
  1512176771,0.0037,0.0314,0.1855,32.96,-20.39,972.23,-122,401,-33
  1512176771,0.0146,0.0226,0.1929,20.45,-36.13,964.17,-135,386,-45
  1512176771,0.0190,0.0053,0.1953,52.49,-53.77,971.98,-135,386,-45
  1512176771,0.0076,-0.0079,0.2009,45.78,-23.25,964.05,-135,386,-45
  1512176771,0.0005,-0.0004,0.1939,44.19,-45.41,987.85,-135,386,-45
  1512176771,-0.0071,0.0061,0.1936,22.83,-12.51,1016.78,-142,386,-28
  1512176771,-0.0095,0.0154,0.1864,44.07,14.95,1004.33,-142,386,-28
  1512176771,-0.0041,-0.0132,0.1847,32.78,-19.84,1009.95,-142,386,-28
  1512176771,0.0085,-0.0125,0.1847,-0.24,-25.76,1008.18,-142,386,-28
  1512176771,0.0142,-0.0027,0.1854,-21.18,-18.07,983.52,-142,386,-28
  1512176771,0.0228,0.0008,0.1894,10.74,-13.31,992.25,-140,405,-40
  1512176772,0.0241,-0.0148,0.1948,42.60,-35.03,998.72,-140,405,-40
  1512176772,0.0324,-0.0116,0.1969,42.60,-36.68,1009.70,-140,405,-40
  1512176772,0.0289,-0.0158,0.1965,60.49,-23.38,981.20,-140,405,-40
  1512176772,0.0232,-0.0085,0.1931,72.69,-50.29,977.60,-140,405,-40
  1512176772,0.0197,0.0068,0.1908,82.40,-22.16,956.36,-151,391,-37
  1512176772,0.0033,0.0047,0.1887,66.96,-24.23,942.26,-151,391,-37
  1512176772,0.0011,0.0040,0.1867,100.16,-27.10,989.14,-151,391,-37
  1512176772,-0.0032,-0.0036,0.1880,70.56,-39.86,992.00,-151,391,-37
  1512176772,0.0109,0.0091,0.1947,20.94,14.89,1020.63,-144,384,-27
  1512176772,0.0168,0.0169,0.1944,32.29,-25.27,1076.66,-144,384,-27
  1512176772,0.0080,0.0233,0.1940,42.36,-16.36,997.86,-144,384,-27
  1512176772,-0.0100,0.0109,0.1912,60.79,-49.68,1019.10,-144,384,-27
  1512176772,-0.0072,0.0000,0.1955,7.32,-44.49,982.36,-144,384,-27
  1512176772,-0.0005,-0.0041,0.1945,21.24,-12.33,984.56,-151,391,-47
  1512176772,0.0069,-0.0057,0.1928,39.61,-33.14,1021.85,-151,391,-47
  1512176772,0.0120,-0.0048,0.1945,37.48,-8.54,1027.95,-151,391,-47
  1512176772,-0.0008,-0.0149,0.1956,37.66,-12.27,970.52,-151,391,-47
  1512176772,-0.0001,-0.0043,0.1928,9.83,-28.63,968.57,-151,391,-47
  1512176772,-0.0049,-0.0117,0.1935,12.39,11.23,989.56,-165,394,-33
  1512176772,-0.0145,0.0029,0.1920,17.76,-16.72,1084.84,-165,394,-33
  1512176772,-0.0214,0.0113,0.1912,39.73,-25.15,1000.37,-165,394,-33
  1512176772,-0.0238,0.0129,0.1931,36.01,0.55,1014.53,-165,394,-33
  1512176772,-0.0253,0.0013,0.1972,15.63,-19.78,1052.00,-145,375,-55
  1512176772,-0.0268,-0.0124,0.1959,27.95,-3.78,990.36,-145,375,-55
  1512176772,-0.0197,-0.0276,0.1983,34.12,-36.99,1022.40,-145,375,-55
  1512176772,-0.0140,-0.0310,0.2019,31.19,-42.54,969.54,-145,375,-55
  1512176772,-0.0044,-0.0205,0.2021,36.68,-10.99,987.55,-145,375,-55
  1512176772,-0.0064,-0.0210,0.2023,63.23,-36.74,1013.43,-170,396,-38
  1512176772,-0.0165,-0.0206,0.2004,99.55,-26.43,956.67,-170,396,-38
  1512176772,-0.0304,-0.0049,0.1964,77.51,-4.70,975.34,-170,396,-38
  1512176772,-0.0277,0.0154,0.1894,75.62,-21.06,1035.64,-170,396,-38
  1512176772,-0.0194,0.0268,0.1878,67.14,-24.29,1110.72,-170,396,-38
  1512176772,-0.0237,0.0157,0.1917,53.28,-36.13,1023.01,-172,391,-33
  1512176772,-0.0525,-0.0008,0.1952,44.92,-23.32,965.09,-172,391,-33
  1512176772,-0.0364,0.0169,0.1928,56.95,-53.65,986.45,-172,391,-33
  1512176772,-0.0111,0.0140,0.2031,25.15,-38.57,1020.39,-172,391,-33
  1512176772,0.0178,0.0216,0.2043,26.61,-21.36,995.67,-173,382,-52
  1512176772,0.0028,0.0206,0.2019,46.02,-9.70,1005.37,-173,382,-52
  1512176773,-0.0119,0.0053,0.1979,64.27,-49.19,1032.84,-173,382,-52
  1512176773,-0.0069,0.0017,0.1973,36.62,-54.69,1008.36,-173,382,-52
  1512176773,-0.0115,-0.0013,0.1956,40.10,-48.46,976.14,-173,382,-52
  1512176773,-0.0121,-0.0069,0.1999,31.98,-42.85,1025.82,-188,371,-38
  1512176773,-0.0055,0.0035,0.1949,54.99,-65.25,1023.74,-188,371,-38
  1512176773,-0.0150,0.0096,0.1965,71.72,-39.49,970.40,-188,371,-38
  1512176773,-0.0241,0.0053,0.1924,57.62,-68.79,961.67,-188,371,-38
  1512176773,-0.0113,0.0132,0.1878,42.05,-43.76,1018.25,-188,371,-38
  1512176773,-0.0190,0.0044,0.1928,50.66,-30.27,1034.06,-188,375,-45
  1512176773,-0.0177,-0.0088,0.1872,41.20,-67.08,1010.38,-188,375,-45
  1512176773,-0.0216,-0.0103,0.1891,50.11,-44.19,966.49,-188,375,-45
  1512176773,0.0031,0.0007,0.1860,29.97,-71.78,1021.48,-188,375,-45
  1512176773,0.0067,-0.0015,0.1911,26.86,-38.76,1067.20,-198,368,-35
  1512176773,0.0095,-0.0103,0.1925,21.73,-47.36,1012.82,-198,368,-35
  1512176773,0.0101,0.0069,0.1911,12.63,-68.66,1019.59,-198,368,-35
  1512176773,-0.0064,-0.0097,0.1943,32.90,-35.52,975.16,-198,368,-35
  1512176773,-0.0032,-0.0100,0.1981,7.14,-39.79,1000.61,-198,368,-35
  1512176773,-0.0007,0.0024,0.1919,72.39,-42.97,988.46,-186,356,-50
  1512176773,-0.0088,-0.0015,0.1929,88.01,-52.00,954.10,-186,356,-50
  1512176773,-0.0036,0.0021,0.1887,70.86,-80.38,1036.19,-186,356,-50
  1512176773,0.0007,0.0032,0.1895,63.17,-24.96,990.84,-186,356,-50
  1512176773,-0.0165,0.0060,0.1854,101.38,-79.41,977.78,-203,356,-47
  1512176773,-0.0276,-0.0072,0.1840,98.57,-50.05,949.58,-203,356,-47
  1512176773,-0.0101,-0.0048,0.1840,67.08,-24.41,1005.86,-203,356,-47
  1512176773,0.0004,0.0039,0.1826,87.89,-71.72,1017.76,-203,356,-47
  1512176773,0.0007,0.0169,0.1814,98.63,-52.25,955.26,-203,356,-47
  1512176773,-0.0181,-0.0020,0.1904,70.01,-8.79,977.17,-209,350,-49
  1512176773,-0.0089,-0.0015,0.1876,62.44,-27.47,1034.73,-209,350,-49
  1512176773,-0.0071,0.0013,0.1925,36.80,-5.19,1012.33,-209,350,-49
  1512176773,-0.0145,0.0017,0.1886,31.37,-45.23,1024.17,-209,350,-49
  1512176773,-0.0208,0.0012,0.1860,47.12,-45.78,978.58,-209,350,-49
  1512176773,-0.0224,0.0109,0.1791,79.22,-79.28,983.46,-216,354,-38
  1512176773,-0.0138,0.0127,0.1807,57.92,-47.36,1035.77,-216,354,-38
  1512176773,-0.0127,0.0015,0.1794,26.61,-48.34,988.46,-216,354,-38
  1512176773,-0.0184,-0.0012,0.1791,13.55,-30.46,1046.57,-216,354,-38
  1512176773,-0.0096,0.0037,0.1807,12.15,-33.63,1050.35,-216,354,-38
  1512176773,-0.0129,0.0003,0.1832,46.94,-35.89,1014.95,-202,354,-45
  1512176774,-0.0017,-0.0076,0.1884,17.88,-23.80,1004.27,-202,354,-45
  1512176774,0.0025,-0.0067,0.1860,16.85,-57.43,995.61,-202,354,-45
  1512176774,0.0036,0.0087,0.1852,7.81,-9.58,1050.42,-202,354,-45
  1512176774,-0.0075,0.0043,0.1808,11.66,-39.67,1044.25,-230,354,-42
  1512176774,-0.0063,0.0053,0.1764,41.14,-44.62,1021.30,-230,354,-42
  1512176774,-0.0093,-0.0001,0.1746,72.94,-38.51,1021.18,-230,354,-42
  1512176774,-0.0216,-0.0008,0.1754,45.65,-43.88,997.62,-230,354,-42
  1512176774,-0.0141,0.0068,0.1738,68.79,-10.19,984.19,-230,354,-42
  1512176774,-0.0176,0.0067,0.1712,54.81,-8.36,983.64,-235,356,-47
  1512176774,-0.0246,-0.0132,0.1746,60.49,-35.71,986.63,-235,356,-47
  1512176774,-0.0100,-0.0080,0.1752,44.62,-34.61,985.35,-235,356,-47
  1512176774,0.0023,-0.0023,0.1754,29.42,-20.39,1019.35,-235,356,-47
  1512176774,0.0009,0.0023,0.1742,21.18,-19.96,997.31,-235,356,-47
  1512176774,-0.0063,-0.0025,0.1746,55.85,4.88,1012.45,-223,347,-49
  1512176774,-0.0067,-0.0008,0.1698,80.93,-15.32,959.96,-223,347,-49
  1512176774,-0.0032,-0.0039,0.1646,77.64,-52.92,1008.00,-223,347,-49
  1512176774,-0.0039,-0.0097,0.1646,87.46,-0.61,951.42,-223,347,-49
  1512176774,-0.0145,-0.0072,0.1615,54.69,-33.87,981.63,-214,352,-40
  1512176774,0.0206,0.0043,0.1611,83.80,-12.21,1025.02,-214,352,-40
  1512176774,0.0016,-0.0101,0.1656,76.05,5.19,977.54,-214,352,-40
  1512176774,0.0091,0.0021,0.1686,52.49,-8.36,1008.36,-214,352,-40
  1512176774,0.0134,0.0217,0.1671,84.66,-23.25,1006.35,-214,352,-40
  1512176774,0.0190,0.0382,0.1683,60.91,-16.72,1024.05,-237,336,-66
  1512176774,0.0358,0.0549,0.1703,47.55,-10.62,1053.59,-237,336,-66
  1512176774,0.0176,0.0403,0.1710,10.25,-22.34,1013.73,-237,336,-66
  1512176774,0.0130,0.0164,0.1694,4.52,-0.67,1012.82,-237,336,-66
  1512176774,0.0031,0.0130,0.1582,32.04,-38.33,931.15,-228,334,-40
  1512176774,0.0103,0.0257,0.1613,-37.17,-30.03,995.54,-228,334,-40
  1512176774,0.0001,0.0188,0.1535,52.80,0.00,955.44,-228,334,-40
  1512176774,0.0023,0.0049,0.1523,48.95,14.34,904.79,-228,334,-40
  1512176774,-0.0031,-0.0205,0.1469,59.08,3.17,940.49,-228,334,-40
  1512176774,0.0045,-0.0320,0.1502,50.96,26.67,979.55,-223,336,-45
  1512176774,0.0180,-0.0217,0.1497,-7.63,20.87,1052.67,-223,336,-45
  1512176774,0.0133,-0.0250,0.1502,37.90,11.66,1058.17,-223,336,-45
  1512176774,0.0012,-0.0256,0.1490,24.78,33.02,1042.91,-223,336,-45
  1512176774,-0.0092,-0.0423,0.1465,53.96,5.49,973.63,-223,336,-45
  1512176774,-0.0186,-0.0391,0.1422,41.02,-4.21,981.99,-238,334,-47
  1512176774,-0.0262,-0.0342,0.1368,65.98,37.54,941.65,-238,334,-47
  1512176775,-0.0240,-0.0217,0.1300,49.19,10.25,997.56,-238,334,-47
  1512176775,-0.0011,0.0052,0.1190,13.67,-2.81,978.82,-238,334,-47
  1512176775,0.0057,0.0020,0.1222,55.05,16.54,956.18,-223,343,-52
  1512176775,0.0340,0.0079,0.1170,51.21,-27.83,1051.21,-223,343,-52
  1512176775,0.0406,0.0015,0.1240,6.59,45.53,996.09,-223,343,-52
  1512176775,0.0083,-0.0027,0.1222,-7.63,-6.41,988.16,-223,343,-52
  1512176775,0.0051,0.0111,0.1153,14.22,15.32,969.54,-223,343,-52
  1512176775,-0.0157,0.0196,0.1101,34.12,23.19,984.25,-240,322,-49
  1512176775,-0.0236,0.0238,0.1063,21.12,2.44,1008.36,-240,322,-49
  1512176775,-0.0257,0.0253,0.1005,43.70,18.07,973.14,-240,322,-49
  1512176775,-0.0173,0.0166,0.1024,10.99,11.84,1010.74,-240,322,-49
  1512176775,-0.0115,-0.0016,0.1036,3.60,0.85,1019.53,-240,322,-49
  1512176775,0.0011,-0.0184,0.1104,13.00,20.14,1014.10,-244,326,-49
  1512176775,0.0077,-0.0229,0.1071,1.46,2.50,1057.13,-244,326,-49
  1512176775,0.0044,-0.0180,0.1017,22.58,-17.52,1011.29,-244,326,-49
  1512176775,-0.0061,-0.0161,0.0967,10.38,35.83,996.70,-244,326,-49
  1512176775,-0.0100,-0.0048,0.0897,4.21,-7.45,986.39,-238,334,-50
  1512176775,-0.0057,0.0004,0.0824,-6.23,1.83,1012.88,-238,334,-50
  1512176775,0.0012,0.0166,0.0846,6.16,21.30,931.70,-238,334,-50
  1512176775,0.0091,0.0276,0.0778,31.31,-17.82,966.00,-238,334,-50
  1512176775,0.0164,0.0360,0.0768,48.34,24.11,946.66,-238,334,-50
  1512176775,0.0161,0.0366,0.0799,31.37,-2.69,968.44,-228,320,-44
  1512176775,0.0254,0.0176,0.0810,-1.16,0.79,994.57,-228,320,-44
  1512176775,0.0250,-0.0044,0.0819,1.59,-4.58,979.43,-228,320,-44
  1512176775,0.0210,-0.0121,0.0851,-33.63,17.03,1055.97,-228,320,-44
  1512176775,0.0172,-0.0128,0.0787,-10.38,14.77,1059.45,-249,317,-44
  1512176775,0.0120,-0.0113,0.0771,-24.29,15.50,1031.98,-249,317,-44
  1512176775,0.0081,-0.0182,0.0720,-20.57,-27.40,988.22,-249,317,-44
  1512176775,-0.0001,-0.0314,0.0678,15.44,-2.44,961.43,-249,317,-44
  1512176775,-0.0008,-0.0152,0.0577,-20.69,-45.04,999.45,-249,317,-44
  1512176775,-0.0056,-0.0056,0.0586,34.06,-3.30,947.27,-231,317,-50
  1512176775,-0.0072,-0.0084,0.0622,26.49,-3.72,947.94,-231,317,-50
  1512176775,-0.0017,-0.0009,0.0617,0.85,-1.46,972.17,-231,317,-50
  1512176775,-0.0048,-0.0173,0.0644,-4.09,26.92,993.53,-231,317,-50
  1512176775,-0.0016,-0.0218,0.0650,16.24,19.35,1028.26,-231,317,-50
  1512176775,-0.0003,-0.0148,0.0700,-11.11,12.15,1037.35,-258,319,-55
  1512176775,0.0067,0.0004,0.0623,3.78,-37.78,1043.33,-258,319,-55
  1512176775,-0.0071,-0.0029,0.0631,0.18,-6.29,1003.36,-258,319,-55
  1512176776,-0.0168,-0.0092,0.0550,40.16,-59.14,997.44,-258,319,-55
  1512176776,-0.0092,-0.0005,0.0542,10.07,-33.08,997.13,-251,312,-38
  1512176776,-0.0160,-0.0028,0.0515,43.03,-49.19,980.47,-251,312,-38
  1512176776,-0.0109,0.0111,0.0533,2.75,-38.76,1004.52,-251,312,-38
  1512176776,-0.0040,0.0101,0.0513,14.83,-30.64,1028.38,-251,312,-38
  1512176776,0.0009,-0.0003,0.0557,-36.56,-31.19,1015.20,-251,312,-38
  1512176776,0.0020,-0.0077,0.0566,-6.23,-41.38,1043.70,-235,313,-33
  1512176776,0.0056,-0.0168,0.0585,-25.51,-36.44,1000.31,-235,313,-33
  1512176776,0.0059,-0.0236,0.0618,-43.15,-28.93,1024.17,-235,313,-33
  1512176776,0.0095,-0.0035,0.0566,0.00,-21.30,1005.92,-235,313,-33
  1512176776,-0.0117,0.0218,0.0482,32.65,-60.12,961.91,-235,313,-33
  1512176776,-0.0249,0.0333,0.0427,74.95,-37.23,966.98,-247,319,-45
  1512176776,-0.0332,0.0350,0.0418,59.51,-65.43,976.26,-247,319,-45
  1512176776,-0.0364,0.0133,0.0405,43.21,-61.95,1021.97,-247,319,-45
  1512176776,-0.0261,-0.0023,0.0493,-34.30,-12.63,1020.94,-247,319,-45
  1512176776,-0.0117,-0.0031,0.0531,-44.92,-61.71,1018.68,-251,290,-45
  1512176776,-0.0045,0.0196,0.0587,-42.97,-45.84,971.13,-251,290,-45
  1512176776,-0.0071,0.0164,0.0590,-18.43,-53.10,975.04,-251,290,-45
  1512176776,0.0031,0.0173,0.0579,-23.80,-24.48,1060.42,-251,290,-45
  1512176776,0.0033,0.0116,0.0518,-11.90,-64.58,1068.54,-251,290,-45
  1512176776,-0.0052,0.0245,0.0426,11.54,-34.30,1031.62,-254,312,-38
  1512176776,-0.0093,0.0364,0.0467,-40.16,-32.35,1008.61,-254,312,-38
  1512176776,-0.0108,0.0457,0.0466,-11.60,-57.01,1024.23,-254,312,-38
  1512176776,-0.0111,0.0541,0.0501,-4.46,-45.29,974.55,-254,312,-38
  1512176776,-0.0121,0.0446,0.0543,-33.33,-51.88,991.46,-256,324,-40
  1512176776,-0.0184,0.0265,0.0533,-7.02,-59.81,979.13,-256,324,-40
  1512176776,-0.0072,0.0107,0.0579,21.36,-39.55,959.96,-256,324,-40
  1512176776,-0.0031,0.0045,0.0621,1.95,-61.34,979.19,-256,324,-40
  1512176776,0.0123,0.0173,0.0570,27.28,-48.34,973.27,-256,324,-40
  1512176776,0.0174,0.0104,0.0569,4.88,-30.70,966.00,-247,312,-32
  1512176776,0.0218,-0.0004,0.0530,-1.34,-72.20,987.61,-247,312,-32
  1512176776,0.0250,-0.0035,0.0547,-10.80,-60.12,968.99,-247,312,-32
  1512176776,0.0234,-0.0152,0.0535,-20.87,-60.97,946.78,-247,312,-32
  1512176776,0.0132,-0.0202,0.0550,2.26,-64.45,943.66,-247,312,-32
  1512176776,0.0137,-0.0202,0.0537,13.49,-64.58,955.38,-249,324,-37
  1512176776,0.0130,-0.0077,0.0558,-24.41,-58.11,1057.86,-249,324,-37
  1512176776,0.0108,0.0053,0.0559,-8.97,-29.42,1039.06,-249,324,-37
  1512176776,0.0060,-0.0005,0.0622,-2.26,-55.91,1009.89,-249,324,-37
  1512176777,0.0178,0.0096,0.0663,-7.87,-61.46,1047.18,-258,308,-45
  1512176777,-0.0011,0.0170,0.0613,23.99,-31.86,955.99,-258,308,-45
  1512176777,0.0127,0.0057,0.0633,30.33,-82.09,1019.35,-258,308,-45
  1512176777,0.0190,0.0052,0.0676,35.83,-42.30,984.01,-258,308,-45
  1512176777,0.0184,-0.0088,0.0719,40.34,-22.16,986.82,-258,308,-45
  1512176777,0.0353,0.0111,0.0710,35.52,-23.44,1026.61,-245,303,-60
  1512176777,0.0329,0.0277,0.0715,15.44,-25.57,1007.39,-245,303,-60
  1512176777,0.0246,0.0332,0.0702,35.58,-23.19,1025.82,-245,303,-60
  1512176777,0.0216,0.0320,0.0692,20.39,22.28,1030.03,-245,303,-60
  1512176777,0.0238,0.0304,0.0680,3.11,-10.19,1085.82,-245,303,-60
  1512176777,0.0254,0.0216,0.0659,6.23,17.09,1032.53,-245,296,-33
  1512176777,0.0269,0.0076,0.0695,-29.60,4.27,1057.37,-245,296,-33
  1512176777,0.0317,0.0213,0.0671,-2.20,11.84,1022.34,-245,296,-33
  1512176777,0.0168,0.0366,0.0682,15.38,-6.10,988.16,-245,296,-33
  1512176777,0.0048,0.0378,0.0735,12.51,13.85,1021.91,-249,303,-60
  1512176777,-0.0008,0.0352,0.0762,23.86,-16.05,969.12,-249,303,-60
  1512176777,-0.0142,0.0210,0.0819,73.06,-3.17,940.37,-249,303,-60
  1512176777,-0.0186,0.0048,0.0945,46.75,16.78,959.47,-249,303,-60
  1512176777,-0.0198,-0.0023,0.0999,27.77,1.22,936.34,-249,303,-60
  1512176777,-0.0252,-0.0100,0.1041,38.39,6.77,887.76,-251,304,-59
  1512176777,0.0061,0.0130,0.1100,71.47,-9.03,927.92,-251,304,-59
  1512176777,0.0092,0.0373,0.1144,29.30,-7.20,912.54,-251,304,-59
  1512176777,0.0031,0.0450,0.1156,82.03,-0.79,937.68,-251,304,-59
  1512176777,-0.0020,0.0206,0.1169,74.28,-5.98,994.26,-251,304,-59
  1512176777,-0.0037,-0.0112,0.1193,48.16,2.56,1013.55,-253,296,-50
  1512176777,0.0080,-0.0277,0.1300,5.92,45.35,1053.59,-253,296,-50
  1512176777,0.0113,-0.0107,0.1354,17.09,11.11,1048.77,-253,296,-50
  1512176777,0.0133,-0.0065,0.1413,22.03,25.09,1033.08,-253,296,-50
  1512176777,0.0045,0.0057,0.1442,12.51,9.52,999.63,-265,287,-76
  1512176777,-0.0092,-0.0138,0.1495,41.20,29.48,1009.16,-265,287,-76
  1512176777,-0.0188,-0.0101,0.1495,63.11,10.56,1035.71,-265,287,-76
  1512176777,-0.0352,-0.0032,0.1453,120.79,-3.91,1007.69,-265,287,-76
  1512176777,-0.0466,0.0040,0.1578,91.19,8.42,976.87,-265,287,-76
  1512176777,-0.0517,-0.0011,0.1517,100.95,24.23,977.72,-261,301,-76
  1512176777,-0.0808,0.0099,0.1615,34.61,-45.17,986.76,-261,301,-76
  1512176777,-0.1037,-0.0292,0.1916,67.57,-7.20,952.33,-261,301,-76
  1512176777,-0.0072,-0.0109,0.1931,63.60,-48.46,903.87,-261,301,-76
  1512176777,0.0100,-0.0276,0.1879,27.59,-9.52,925.96,-277,289,-64
  1512176778,0.0660,-0.0325,0.2089,17.82,13.98,977.29,-277,289,-64
  1512176778,0.0639,-0.0554,0.1997,-6.90,3.91,1040.83,-277,289,-64
  1512176778,0.0639,-0.0250,0.1783,6.04,20.08,1004.88,-277,289,-64
  1512176778,0.0498,-0.0083,0.1768,64.70,22.40,1021.42,-277,289,-64
  1512176778,0.0510,0.0485,0.1642,97.47,16.91,1063.05,-281,282,-74
  1512176778,0.0289,0.0325,0.1606,127.44,31.62,1024.11,-281,282,-74
  1512176778,-0.0226,0.0123,0.1577,84.96,44.86,1018.74,-281,282,-74
  1512176778,-0.0123,0.0095,0.1606,77.70,7.93,1006.53,-281,282,-74
  1512176778,-0.0035,-0.0015,0.1675,60.06,9.77,1021.48,-281,282,-74
  1512176778,-0.0338,-0.0164,0.1788,42.85,1.22,926.09,-300,280,-69
  1512176778,-0.0486,-0.0081,0.1783,78.61,14.47,892.58,-300,280,-69
  1512176778,-0.0425,0.0033,0.1776,68.91,-13.06,909.00,-300,280,-69
  1512176778,-0.0545,-0.0119,0.1771,106.93,21.00,915.22,-300,280,-69
  1512176778,-0.0403,-0.0202,0.1854,97.29,7.93,998.29,-288,292,-57
  1512176778,-0.0177,-0.0166,0.1876,41.02,8.85,1003.05,-288,292,-57
  1512176778,-0.0040,-0.0055,0.1905,73.67,23.80,1001.10,-288,292,-57
  1512176778,0.0615,0.0201,0.1894,28.26,0.18,1144.96,-288,292,-57
  1512176778,0.0393,0.0036,0.1923,20.75,41.56,1058.23,-288,292,-57
  1512176778,0.0320,-0.0012,0.1944,18.13,5.80,1103.58,-289,280,-59
  1512176778,0.0325,0.0015,0.1832,60.55,47.42,1077.51,-289,280,-59
  1512176778,0.0228,-0.0162,0.1812,33.75,40.59,1027.22,-289,280,-59
  1512176778,-0.0125,-0.0393,0.1846,30.09,36.56,916.44,-289,280,-59
  1512176778,-0.0390,-0.0577,0.1871,85.08,27.22,946.47,-296,262,-69
  1512176778,-0.0190,-0.0356,0.1943,46.33,26.92,1004.58,-296,262,-69
  1512176778,-0.0387,-0.0330,0.1963,96.56,32.65,979.92,-296,262,-69
  1512176778,-0.0453,-0.0349,0.1981,107.36,8.48,977.54,-296,262,-69
  1512176778,-0.0403,-0.0228,0.1992,95.64,34.24,983.70,-296,262,-69
  1512176778,-0.0087,0.0028,0.2015,92.65,-22.64,966.74,-282,255,-59
  1512176778,-0.0266,0.0065,0.2057,85.27,13.31,902.53,-282,255,-59
  1512176778,-0.0366,-0.0033,0.2019,80.26,-12.15,976.26,-282,255,-59
  1512176778,-0.0358,-0.0244,0.2023,151.43,19.41,981.14,-282,255,-59
  1512176778,-0.0286,-0.0268,0.2025,120.30,31.25,1006.04,-282,255,-59
  1512176778,-0.0328,-0.0651,0.2044,77.21,-3.17,1016.48,-295,264,-60
  1512176778,-0.0061,-0.0459,0.2067,27.40,25.39,957.70,-295,264,-60
  1512176778,0.0056,-0.0039,0.2069,45.35,-21.97,1014.28,-295,264,-60
  1512176778,0.0417,0.0083,0.2063,33.26,57.43,1098.94,-295,264,-60
  1512176778,0.0457,0.0113,0.2115,62.01,27.34,1078.25,-295,253,-57
  1512176779,0.0621,0.0354,0.1987,25.94,56.09,1066.65,-295,253,-57
  1512176779,0.0477,0.0241,0.2105,3.36,64.94,1015.87,-295,253,-57
  1512176779,0.0161,0.0174,0.2096,-23.25,10.13,1010.31,-295,253,-57
  1512176779,0.0072,0.0353,0.1987,49.13,10.19,982.18,-295,253,-57
  1512176779,-0.0089,0.0575,0.2063,86.73,13.31,948.24,-284,246,-71
  1512176779,-0.0076,0.0610,0.1916,125.98,54.50,1070.92,-284,246,-71
  1512176779,-0.0429,0.0340,0.2071,137.76,38.88,967.41,-284,246,-71
  1512176779,-0.0348,0.0089,0.2104,65.98,34.73,1057.92,-284,246,-71
  1512176779,-0.0141,0.0032,0.2160,74.52,35.28,1069.40,-284,246,-71
  1512176779,0.0020,-0.0081,0.2294,35.40,9.64,1014.89,-298,236,-74
  1512176779,-0.0084,-0.0011,0.2332,98.33,8.61,977.54,-298,236,-74
  1512176779,-0.0020,-0.0061,0.2336,70.25,69.46,1062.44,-298,236,-74
  1512176779,-0.0116,-0.0141,0.2308,126.10,21.00,1006.77,-298,236,-74
  1512176779,-0.0198,-0.0084,0.2180,175.78,10.44,967.83,-312,236,-57
  1512176779,-0.0326,-0.0325,0.2277,107.97,41.69,967.29,-312,236,-57
  1512176779,-0.0719,-0.0710,0.2270,85.51,17.70,967.10,-312,236,-57
  1512176779,-0.0140,-0.0692,0.2297,69.70,26.25,1003.17,-312,236,-57
  1512176779,0.0160,-0.0497,0.2454,58.59,45.23,963.99,-312,236,-57
  1512176779,0.0016,-0.0491,0.2418,115.11,23.01,949.89,-305,218,-64
  1512176779,0.0164,-0.0304,0.2478,81.60,26.92,977.54,-305,218,-64
  1512176779,-0.0035,-0.0189,0.2462,158.14,20.02,926.82,-305,218,-64
  1512176779,-0.0342,-0.0169,0.2450,126.71,30.58,969.12,-305,218,-64
  1512176779,-0.0442,-0.0256,0.2443,136.05,44.31,968.69,-305,218,-64
  1512176779,-0.0533,-0.0360,0.2479,122.25,14.04,976.01,-302,211,-64
  1512176779,-0.0539,-0.0398,0.2623,99.49,40.22,950.44,-302,211,-64
  1512176779,-0.0433,-0.0352,0.2634,99.79,6.35,1009.28,-302,211,-64
  1512176779,0.0407,-0.0257,0.3012,122.92,54.02,1019.96,-302,211,-64
  1512176779,-0.0093,-0.0121,0.2782,155.21,0.61,973.69,-303,199,-52
  1512176779,0.0338,-0.0051,0.2835,114.50,87.83,1031.74,-303,199,-52
  1512176779,0.0052,-0.0057,0.2766,134.03,10.80,1049.68,-303,199,-52
  1512176779,0.0138,0.0380,0.2666,115.23,39.18,1043.82,-303,199,-52
  1512176779,-0.0228,0.0333,0.2638,171.51,41.38,995.00,-303,199,-52
  1512176779,-0.0156,0.0369,0.2555,182.68,18.31,1014.95,-291,208,-60
  1512176779,-0.0253,0.0091,0.2619,127.44,29.79,906.07,-291,208,-60
  1512176779,0.0252,0.0539,0.2545,166.38,34.06,1072.39,-291,208,-60
  1512176779,0.0087,0.0675,0.2555,105.65,-12.08,1017.21,-291,208,-60
  1512176779,-0.0064,0.0475,0.2607,108.40,30.76,964.60,-293,202,-52
  1512176779,0.0174,0.0534,0.2643,190.92,12.02,980.83,-293,202,-52
  1512176780,0.0640,0.0920,0.2687,64.76,7.93,996.64,-293,202,-52
  1512176780,0.0087,0.0654,0.2710,120.85,37.66,981.99,-293,202,-52
  1512176780,0.0004,0.0595,0.2653,116.70,-4.09,1023.86,-293,202,-52
  1512176780,-0.0017,0.0597,0.2629,60.12,39.12,968.63,-307,199,-66
  1512176780,-0.0152,0.0546,0.2586,85.57,0.49,998.05,-307,199,-66
  1512176780,-0.0165,0.0533,0.2583,78.06,20.39,991.33,-307,199,-66
  1512176780,-0.0173,0.0370,0.2586,103.09,30.70,979.86,-307,199,-66
  1512176780,-0.0100,0.0322,0.2645,90.58,-20.51,974.00,-307,199,-66
  1512176780,-0.0031,0.0302,0.2618,116.46,40.16,985.41,-293,202,-55
  1512176780,-0.0064,0.0007,0.2663,108.76,44.31,991.27,-293,202,-55
  1512176780,0.0108,0.0184,0.2667,66.65,12.57,1051.33,-293,202,-55
  1512176780,0.0084,0.0288,0.2610,102.23,24.96,1013.61,-293,202,-55
  1512176780,0.0060,0.0304,0.2657,81.60,21.55,1007.20,-302,186,-47
  1512176780,-0.0040,0.0237,0.2603,90.64,35.71,978.70,-302,186,-47
  1512176780,-0.0039,0.0178,0.2621,79.16,47.00,1031.25,-302,186,-47
  1512176780,-0.0051,0.0198,0.2582,81.18,14.77,984.01,-302,186,-47
  1512176780,-0.0105,0.0142,0.2618,99.85,-2.14,953.12,-302,186,-47
  1512176780,-0.0140,0.0056,0.2635,108.28,35.89,931.27,-291,176,-64
  1512176780,-0.0140,0.0095,0.2639,106.38,36.99,996.28,-291,176,-64
  1512176780,0.0059,0.0181,0.2659,65.19,30.03,1018.68,-291,176,-64
  1512176780,0.0092,0.0229,0.2643,60.73,16.60,1010.44,-291,176,-64
  1512176780,-0.0021,0.0176,0.2635,77.88,29.79,994.02,-305,186,-67
  1512176780,-0.0055,0.0128,0.2598,21.67,25.09,1044.31,-305,186,-67
  1512176780,-0.0157,-0.0009,0.2625,8.12,-32.59,1004.64,-305,186,-67
  1512176780,-0.0088,-0.0150,0.2577,31.74,6.65,1000.24,-305,186,-67
  1512176780,-0.0109,-0.0055,0.2558,44.98,10.13,949.28,-305,186,-67
  1512176780,0.0032,0.0028,0.2549,95.58,24.96,957.09,-293,181,-55
  1512176780,0.0051,0.0160,0.2566,74.16,29.54,946.59,-293,181,-55
  1512176780,0.0017,0.0111,0.2514,138.85,5.19,985.23,-293,181,-55
  1512176780,0.0040,-0.0004,0.2539,120.06,11.96,1014.89,-293,181,-55
  1512176780,-0.0031,-0.0101,0.2551,110.47,12.45,989.26,-293,181,-55
  1512176780,-0.0083,-0.0141,0.2586,81.67,25.27,964.97,-303,167,-52
  1512176780,0.0024,-0.0051,0.2619,63.90,30.46,1006.59,-303,167,-52
  1512176780,-0.0007,0.0044,0.2537,104.19,18.68,1071.78,-303,167,-52
  1512176780,0.0033,0.0113,0.2553,68.12,28.44,951.05,-303,167,-52
  1512176780,-0.0121,0.0140,0.2510,29.24,67.99,976.56,-307,156,-62
  1512176780,-0.0048,0.0246,0.2426,60.18,20.02,1084.11,-307,156,-62
  1512176781,0.0005,0.0101,0.2421,64.58,10.01,1037.41,-307,156,-62
  1512176781,0.0081,0.0084,0.2510,23.86,47.55,1040.28,-307,156,-62
  1512176781,0.0009,0.0186,0.2495,39.92,17.33,1023.68,-307,156,-62
  1512176781,0.0101,0.0189,0.2494,79.41,39.86,1002.08,-303,163,-38
  1512176781,-0.0053,0.0121,0.2490,73.06,9.46,957.95,-303,163,-38
  1512176781,0.0013,0.0202,0.2457,93.20,-5.31,1007.20,-303,163,-38
  1512176781,0.0173,0.0184,0.2471,49.74,60.24,1041.93,-303,163,-38
  1512176781,0.0213,0.0228,0.2450,-4.46,3.36,1058.90,-303,163,-38
  1512176781,0.0248,0.0200,0.2450,21.00,19.04,1032.23,-305,144,-54
  1512176781,0.0068,0.0001,0.2510,52.49,49.62,933.11,-305,144,-54
  1512176781,0.0060,0.0017,0.2462,64.45,15.32,970.64,-305,144,-54
  1512176781,0.0065,0.0201,0.2397,38.45,27.71,962.65,-305,144,-54
  1512176781,-0.0016,0.0221,0.2365,84.29,30.03,1032.23,-298,130,-47
  1512176781,0.0004,0.0302,0.2356,77.39,24.60,1101.50,-298,130,-47
  1512176781,-0.0035,0.0423,0.2329,6.41,10.31,966.49,-298,130,-47
  1512176781,-0.0060,0.0386,0.2306,60.24,56.64,994.02,-298,130,-47
  1512176781,-0.0095,0.0250,0.2314,39.73,-20.94,1018.55,-298,130,-47
  1512176781,-0.0112,-0.0076,0.2368,46.57,8.12,959.96,-305,130,-57
  1512176781,-0.0104,-0.0173,0.2450,27.83,42.97,959.84,-305,130,-57
  1512176781,-0.0017,-0.0132,0.2409,14.65,21.06,1040.59,-305,130,-57
  1512176781,0.0115,-0.0005,0.2373,37.35,16.24,1058.53,-305,130,-57
  1512176781,-0.0047,0.0045,0.2336,49.44,-5.49,1014.77,-303,142,-45
  1512176781,-0.0166,0.0087,0.2264,80.08,17.64,965.58,-303,142,-45
  1512176781,-0.0137,0.0124,0.2246,59.08,36.68,983.95,-303,142,-45
  1512176781,-0.0064,0.0025,0.2237,12.15,-7.45,1002.75,-303,142,-45
  1512176781,-0.0044,0.0031,0.2238,55.05,49.62,986.88,-303,142,-45
  1512176781,-0.0154,0.0136,0.2262,64.21,28.38,954.77,-288,119,-57
  1512176781,0.0049,0.0328,0.2288,39.49,40.47,1036.25,-288,119,-57
  1512176781,0.0057,0.0336,0.2290,65.73,20.14,979.13,-288,119,-57
  1512176781,-0.0029,0.0047,0.2310,63.42,26.06,973.27,-288,119,-57
  1512176781,-0.0043,0.0036,0.2274,120.36,1.40,943.30,-288,119,-57
  1512176781,-0.0060,-0.0052,0.2244,90.33,-0.67,991.70,-302,130,-57
  1512176781,-0.0011,0.0092,0.2272,86.55,11.29,1011.60,-302,130,-57
  1512176781,0.0040,0.0146,0.2218,87.59,15.38,1014.16,-302,130,-57
  1512176781,0.0079,0.0190,0.2213,53.59,33.87,1024.29,-302,130,-57
  1512176781,-0.0055,0.0120,0.2151,63.17,17.46,993.10,-298,130,-50
  1512176781,-0.0057,0.0176,0.2108,51.64,-11.05,948.00,-298,130,-50
  1512176781,-0.0071,0.0258,0.2067,28.93,26.73,1004.82,-298,130,-50
  1512176782,-0.0119,0.0121,0.2099,73.43,3.66,1000.79,-298,130,-50
  1512176782,-0.0040,0.0004,0.2063,31.13,-0.24,964.78,-298,130,-50
  1512176782,-0.0052,0.0015,0.2091,14.34,20.32,974.06,-286,118,-52
  1512176782,-0.0068,-0.0071,0.2079,47.61,-18.62,966.00,-286,118,-52
  1512176782,-0.0008,0.0009,0.2060,51.27,32.65,972.90,-286,118,-52
  1512176782,-0.0068,0.0089,0.2053,28.81,14.59,1064.70,-286,118,-52
  1512176782,0.0059,0.0012,0.2025,21.55,-11.72,1009.34,-288,105,-50
  1512176782,-0.0123,-0.0166,0.2011,79.04,74.10,922.42,-288,105,-50
  1512176782,-0.0080,-0.0045,0.1983,90.88,-16.72,1017.70,-288,105,-50
  1512176782,-0.0033,0.0045,0.1929,93.38,16.91,991.64,-288,105,-50
  1512176782,0.0000,0.0269,0.1895,81.73,0.61,1005.00,-288,105,-50
  1512176782,-0.0076,0.0201,0.1901,64.82,1.16,946.47,-274,105,-57
  1512176782,-0.0048,0.0145,0.1898,36.80,10.56,960.33,-274,105,-57
  1512176782,0.0000,0.0169,0.1896,46.94,0.73,982.06,-274,105,-57
  1512176782,0.0045,0.0261,0.1899,-4.39,34.18,1016.36,-274,105,-57
  1512176782,-0.0015,0.0037,0.1903,20.81,22.83,988.40,-274,105,-57
  1512176782,-0.0007,0.0019,0.1909,-13.85,15.26,1024.29,-277,102,-54
  1512176782,-0.0039,0.0005,0.1886,-24.60,16.78,962.28,-277,102,-54
  1512176782,-0.0053,0.0040,0.1851,-5.07,23.19,1011.72,-277,102,-54
  1512176782,-0.0031,0.0198,0.1811,-13.92,-6.35,1019.35,-277,102,-54
  1512176782,-0.0003,0.0101,0.1696,27.89,13.67,1021.36,-279,93,-59
  1512176782,-0.0029,0.0003,0.1691,28.75,-6.96,1004.64,-279,93,-59
  1512176782,0.0049,-0.0013,0.1618,24.96,14.34,1010.19,-279,93,-59
  1512176782,0.0089,0.0184,0.1539,2.44,39.67,1048.22,-279,93,-59
  1512176782,0.0113,0.0356,0.1479,1.46,-21.00,1039.79,-279,93,-59
  1512176782,-0.0028,0.0350,0.1466,30.88,22.95,972.96,-270,81,-54
  1512176782,-0.0089,0.0252,0.1410,8.36,3.17,1006.65,-270,81,-54
  1512176782,0.0012,0.0071,0.1386,-39.79,47.61,1022.46,-270,81,-54
  1512176782,0.0047,0.0071,0.1401,-46.51,25.09,1006.71,-270,81,-54
  1512176782,-0.0015,0.0132,0.1353,-35.34,20.69,977.78,-270,81,-54
  1512176782,0.0011,0.0123,0.1298,-7.57,4.94,995.91,-282,96,-49
  1512176782,0.0008,0.0134,0.1249,-13.24,10.01,1011.84,-282,96,-49
  1512176782,-0.0108,0.0222,0.1234,34.00,13.06,976.44,-282,96,-49
  1512176782,-0.0156,0.0236,0.1190,62.38,-4.03,962.59,-282,96,-49
  1512176782,-0.0140,0.0164,0.1210,78.19,15.87,987.73,-267,91,-60
  1512176782,-0.0193,0.0168,0.1248,64.39,14.28,915.28,-267,91,-60
  1512176782,0.0017,0.0100,0.1320,85.69,44.62,1048.52,-267,91,-60
  1512176782,0.0176,0.0244,0.1333,-8.73,21.48,1005.13,-267,91,-60
  1512176783,0.0123,0.0133,0.1358,17.52,70.31,923.71,-267,91,-60
  1512176783,0.0156,0.0196,0.1348,5.86,29.72,999.88,-263,84,-54
  1512176783,0.0045,0.0209,0.1280,-11.11,63.42,963.44,-263,84,-54
  1512176783,-0.0072,0.0142,0.1246,13.43,36.32,998.29,-263,84,-54
  1512176783,-0.0099,0.0133,0.1217,18.43,29.24,1015.01,-263,84,-54
  1512176783,-0.0095,0.0088,0.1190,13.85,41.38,1028.02,-263,84,-54
  1512176783,-0.0079,0.0257,0.1139,6.04,61.58,985.90,-272,82,-52
  1512176783,-0.0103,0.0418,0.1103,20.57,50.23,1049.50,-272,82,-52
  1512176783,-0.0076,0.0533,0.1069,-27.89,40.22,986.94,-272,82,-52
  1512176783,-0.0249,0.0306,0.1053,15.56,44.07,977.66,-272,82,-52
  1512176783,-0.0120,0.0141,0.1083,-33.81,18.25,1048.52,-274,88,-67
  1512176783,-0.0008,-0.0025,0.1080,-42.42,31.86,1028.38,-274,88,-67
  1512176783,0.0020,-0.0181,0.1123,-55.91,61.22,998.41,-274,88,-67
  1512176783,0.0095,-0.0001,0.1053,-26.25,31.56,1026.79,-274,88,-67
  1512176783,-0.0043,-0.0064,0.1013,34.30,56.95,949.52,-274,88,-67
  1512176783,-0.0069,-0.0059,0.0995,16.17,38.09,990.60,-272,75,-38
  1512176783,-0.0103,0.0117,0.0925,45.78,59.88,969.42,-272,75,-38
  1512176783,-0.0081,-0.0045,0.0915,22.64,46.02,1016.66,-272,75,-38
  1512176783,-0.0035,0.0071,0.0823,33.63,37.72,975.34,-272,75,-38
  1512176783,-0.0158,0.0077,0.0847,8.73,47.42,917.42,-270,88,-67
  1512176783,-0.0117,-0.0125,0.0846,14.65,56.64,1002.01,-270,88,-67
  1512176783,-0.0007,0.0020,0.0852,-6.96,77.09,994.75,-270,88,-67
  1512176783,-0.0156,0.0052,0.0778,9.09,38.21,994.08,-270,88,-67
  1512176783,-0.0103,0.0136,0.0746,11.90,73.97,984.31,-270,88,-67
  1512176783,-0.0053,0.0051,0.0704,4.27,66.59,1023.13,-260,81,-60
  1512176783,-0.0047,0.0092,0.0674,-39.06,63.66,992.19,-260,81,-60
  1512176783,-0.0095,0.0177,0.0636,11.05,43.03,927.67,-260,81,-60
  1512176783,-0.0105,0.0244,0.0563,-22.28,86.55,946.90,-260,81,-60
  1512176783,-0.0027,0.0150,0.0554,-34.73,38.02,1036.13,-260,81,-60
  1512176783,0.0003,0.0278,0.0477,-18.98,82.34,1010.01,-267,70,-54
  1512176783,-0.0180,0.0081,0.0517,-52.55,66.10,967.53,-267,70,-54
  1512176783,0.0009,0.0260,0.0445,-20.69,57.62,988.04,-267,70,-54
  1512176783,0.0059,0.0391,0.0399,-12.70,64.70,1000.79,-267,70,-54
  1512176783,0.0012,0.0535,0.0304,35.28,38.09,1010.68,-270,74,-57
  1512176783,-0.0001,0.0407,0.0290,-29.66,52.67,981.26,-270,74,-57
  1512176783,0.0047,0.0178,0.0216,-15.44,37.17,911.68,-270,74,-57
  1512176783,0.0158,0.0040,0.0232,-57.98,51.09,975.28,-270,74,-57
  1512176783,0.0209,0.0144,0.0205,-81.54,52.00,1032.71,-270,74,-57
  1512176784,0.0108,0.0240,0.0180,-60.42,56.52,986.45,-267,88,-50
  1512176784,0.0017,0.0326,0.0065,-65.73,51.76,946.47,-267,88,-50
  1512176784,-0.0012,0.0158,0.0036,-64.33,60.55,1041.44,-267,88,-50
  1512176784,0.0091,0.0217,-0.0032,-58.11,69.76,1083.56,-267,88,-50
  1512176784,-0.0088,0.0180,-0.0089,-71.53,51.94,974.00,-267,88,-50
  1512176784,0.0048,0.0177,-0.0124,-92.65,49.01,1028.99,-274,63,-54
  1512176784,0.0121,0.0052,-0.0112,-77.64,55.11,1059.39,-274,63,-54
  1512176784,0.0169,0.0146,-0.0081,-76.78,70.01,1043.58,-274,63,-54
  1512176784,0.0040,0.0035,-0.0084,-58.72,40.77,1028.14,-274,63,-54
  1512176784,0.0117,0.0007,-0.0060,-45.96,63.60,1030.40,-270,81,-57
  1512176784,0.0166,-0.0016,-0.0045,-36.07,70.07,1002.99,-270,81,-57
  1512176784,0.0049,-0.0100,-0.0032,-3.42,52.55,991.58,-270,81,-57
  1512176784,0.0089,-0.0065,-0.0039,4.76,61.89,987.06,-270,81,-57
  1512176784,0.0153,-0.0043,0.0033,12.57,44.74,983.28,-270,81,-57
  1512176784,0.0044,-0.0095,0.0117,31.01,49.62,968.99,-261,68,-66
  1512176784,-0.0057,-0.0209,0.0221,47.55,52.61,971.80,-261,68,-66
  1512176784,-0.0292,-0.0403,0.0356,69.76,48.10,939.94,-261,68,-66
  1512176784,-0.0236,-0.0471,0.0487,68.54,62.68,956.73,-261,68,-66
  1512176784,-0.0060,-0.0348,0.0573,76.29,48.22,981.99,-261,68,-66
  1512176784,-0.0007,-0.0210,0.0663,73.97,56.21,995.36,-274,66,-60
  1512176784,-0.0089,-0.0313,0.0684,96.50,64.88,964.17,-274,66,-60
  1512176784,0.0020,-0.0136,0.0764,80.38,40.71,1007.08,-274,66,-60
  1512176784,0.0112,-0.0085,0.0772,75.13,80.32,1022.03,-274,66,-60
  1512176784,-0.0080,-0.0238,0.0988,49.99,73.91,990.66,-274,74,-67
  1512176784,-0.0213,-0.0337,0.1103,71.53,49.74,979.37,-274,74,-67
  1512176784,-0.0004,-0.0288,0.1260,48.22,75.99,999.45,-274,74,-67
  1512176784,0.0063,-0.0209,0.1310,109.80,54.02,995.54,-274,74,-67
  1512176784,0.0061,-0.0177,0.1493,61.04,79.59,985.23,-274,74,-67
  1512176784,-0.0040,-0.0113,0.1579,61.28,85.33,1004.52,-268,58,-72
  1512176784,0.0300,0.0124,0.1618,44.37,74.16,1045.53,-268,58,-72
  1512176784,0.0144,0.0068,0.1711,70.80,81.05,1023.44,-268,58,-72
  1512176784,0.0020,0.0015,0.1770,73.43,80.63,1004.46,-268,58,-72
  1512176784,0.0161,0.0213,0.1836,53.83,86.43,1001.16,-268,58,-72
  1512176784,0.0088,0.0161,0.1858,106.75,84.78,968.93,-274,66,-67
  1512176784,0.0221,0.0115,0.1956,70.37,73.30,1024.66,-274,66,-67
  1512176784,0.0260,-0.0032,0.2011,61.16,78.80,1003.42,-274,66,-67
  1512176784,0.0443,0.0140,0.2053,20.20,59.27,1016.54,-274,66,-67
  1512176785,0.0200,0.0202,0.2145,28.56,30.27,976.07,-251,65,-79
  1512176785,0.0197,0.0385,0.2172,34.73,36.01,1005.00,-251,65,-79
  1512176785,0.0069,0.0250,0.2302,14.89,70.50,1067.08,-251,65,-79
  1512176785,-0.0181,0.0089,0.2382,33.63,58.29,1015.50,-251,65,-79
  1512176785,-0.0252,-0.0173,0.2565,41.02,59.08,987.73,-251,65,-79
  1512176785,0.0103,0.0049,0.2645,106.57,37.48,1048.52,-245,56,-71
  1512176785,-0.0162,-0.0200,0.2798,97.17,29.60,972.72,-245,56,-71
  1512176785,-0.0357,-0.0334,0.2880,108.70,7.57,960.27,-245,56,-71
  1512176785,-0.0344,-0.0194,0.2899,159.06,15.81,930.42,-245,56,-71
  1512176785,0.0053,0.0368,0.2921,86.91,7.32,948.36,-261,37,-49
  1512176785,0.0039,0.0344,0.2981,80.63,9.03,1008.06,-261,37,-49
  1512176785,-0.0156,0.0120,0.3159,63.11,57.13,1028.87,-261,37,-49
  1512176785,0.0073,0.0246,0.3224,82.52,80.20,1013.31,-261,37,-49
  1512176785,-0.0096,0.0132,0.3318,89.60,23.50,1004.94,-261,37,-49
  1512176785,0.0085,0.0229,0.3433,70.01,45.72,1016.91,-258,37,-55
  1512176785,-0.0008,0.0079,0.3545,89.78,21.73,980.47,-258,37,-55
  1512176785,-0.0039,-0.0005,0.3621,93.81,1.59,970.28,-258,37,-55
  1512176785,0.0044,0.0079,0.3669,90.45,26.12,991.03,-258,37,-55
  1512176785,0.0001,-0.0049,0.3768,94.67,39.18,998.84,-258,37,-55
  1512176785,-0.0132,0.0033,0.3790,116.76,4.52,974.37,-251,44,-59
  1512176785,-0.0332,0.0071,0.3808,94.30,9.16,924.38,-251,44,-59
  1512176785,-0.0274,0.0217,0.3863,120.42,27.04,961.06,-251,44,-59
  1512176785,0.0146,0.0487,0.3932,56.82,35.10,1016.17,-251,44,-59
  1512176785,0.0115,0.0569,0.4049,9.22,39.06,936.89,-233,26,-52
  1512176785,0.0168,0.0511,0.4116,-8.00,33.87,1011.90,-233,26,-52
  1512176785,0.0048,0.0149,0.4157,36.32,34.79,1002.20,-233,26,-52
  1512176785,0.0270,0.0206,0.4208,23.80,41.20,1019.78,-233,26,-52
  1512176785,-0.0068,0.0029,0.4232,45.96,18.80,1003.60,-233,26,-52
  1512176785,-0.0007,0.0193,0.4176,38.94,-2.01,999.51,-242,24,-54
  1512176785,-0.0035,0.0288,0.4153,66.89,20.20,990.42,-242,24,-54
  1512176785,-0.0076,0.0329,0.4132,68.85,7.81,953.31,-242,24,-54
  1512176785,-0.0048,0.0417,0.4080,70.31,-0.12,967.10,-242,24,-54
  1512176785,-0.0032,0.0590,0.4112,61.65,24.66,977.66,-219,19,-49
  1512176785,0.0097,0.0485,0.4157,42.97,29.97,945.31,-219,19,-49
  1512176785,0.0099,0.0245,0.4188,77.82,7.39,985.17,-219,19,-49
  1512176785,-0.0127,-0.0116,0.4229,65.67,11.35,970.76,-219,19,-49
  1512176785,-0.0003,-0.0213,0.4249,74.22,10.13,993.71,-219,19,-49
  1512176785,0.0461,0.0157,0.4221,71.41,12.39,1122.99,-221,17,-50
  1512176786,-0.0012,-0.0134,0.4265,66.22,13.79,1034.30,-221,17,-50
  1512176786,-0.0028,-0.0204,0.4289,60.61,24.84,1010.80,-221,17,-50
  1512176786,0.0052,0.0020,0.4260,79.65,34.91,984.07,-221,17,-50
  1512176786,-0.0016,-0.0386,0.4238,94.36,44.43,1026.98,-221,17,-50
  1512176786,-0.0100,-0.0640,0.4294,79.35,37.48,971.01,-205,19,-62
  1512176786,0.0003,-0.0651,0.4277,43.88,64.03,1051.27,-205,19,-62
  1512176786,-0.0067,-0.0747,0.4277,82.09,51.45,1047.85,-205,19,-62
  1512176786,-0.0133,-0.0704,0.4300,59.39,25.63,983.09,-205,19,-62
  1512176786,-0.0192,-0.0513,0.4229,113.10,10.62,938.42,-205,8,-59
  1512176786,-0.0250,-0.0506,0.4204,157.23,11.05,934.81,-205,8,-59
  1512176786,0.0252,-0.0301,0.4204,151.98,34.24,998.84,-205,8,-59
  1512176786,0.0047,-0.0029,0.4145,120.79,92.41,997.92,-205,8,-59
  1512176786,-0.0059,0.0402,0.4064,105.59,74.46,1032.47,-205,8,-59
  1512176786,-0.0075,0.1023,0.3916,146.55,41.02,1029.30,-189,-7,-54
  1512176786,-0.0683,0.1004,0.4143,117.74,86.61,992.25,-189,-7,-54
  1512176786,-0.0577,0.0631,0.4386,111.69,24.23,1013.61,-189,-7,-54
  1512176786,-0.0250,0.0356,0.4296,146.67,38.57,930.42,-189,-7,-54
  1512176786,0.0856,0.0522,0.4446,61.83,9.70,998.66,-189,-7,-54
  1512176786,0.1270,0.0361,0.5015,10.19,-24.23,975.34,-166,-33,-79
  1512176786,0.1646,0.0559,0.4844,28.63,6.35,967.41,-166,-33,-79
  1512176786,0.0461,0.0061,0.4682,52.19,-13.85,940.31,-166,-33,-79
  1512176786,0.0450,0.0036,0.4515,97.78,-13.55,960.14,-166,-33,-79
  1512176786,0.0344,-0.0140,0.4454,78.37,18.43,975.28,-172,-3,-74
  1512176786,0.0305,0.0117,0.4301,56.95,2.87,1021.24,-172,-3,-74
