  time_unix,rotate_x,rotate_y,rotate_z,acc_x,acc_y,acc_z,mag_x,mag_y,mag_z
  1512205092,-0.0016,-0.0013,-0.0005,-99.00,-99.06,902.22,10,-3,3
  1512205092,-0.0008,0.0013,0.0001,-93.14,-95.95,906.98,10,-3,3
  1512205092,-0.0007,0.0009,-0.0019,-97.90,-99.12,892.09,10,-3,3
  1512205092,-0.0009,0.0005,-0.0001,-99.85,-104.43,901.18,10,-3,3
  1512205092,-0.0005,-0.0019,0.0003,-95.40,-93.99,914.37,0,10,3
  1512205092,-0.0019,0.0019,-0.0024,-97.35,-94.85,889.53,0,10,3
  1512205092,-0.0013,0.0013,-0.0003,-104.68,-103.94,888.37,0,10,3
  1512205092,-0.0015,-0.0013,-0.0009,-93.93,-98.14,908.45,0,10,3
  1512205092,-0.0015,0.0033,0.0005,-100.28,-93.51,883.97,-5,12,1
  1512205092,-0.0017,0.0019,0.0004,-101.44,-101.01,892.88,-5,12,1
  1512205092,-0.0025,-0.0015,0.0003,-96.92,-96.19,900.57,-5,12,1
  1512205092,-0.0013,0.0004,0.0001,-98.21,-102.72,896.30,-5,12,1
  1512205092,-0.0012,0.0017,0.0000,-101.44,-95.58,893.49,-5,12,1
  1512205092,-0.0023,0.0008,-0.0001,-102.60,-100.89,890.01,1,5,1
  1512205092,-0.0024,-0.0011,-0.0007,-100.16,-100.34,907.41,1,5,1
  1512205092,-0.0005,-0.0017,0.0004,-92.16,-96.80,915.95,1,5,1
  1512205092,-0.0029,0.0033,0.0011,-103.64,-93.14,888.73,1,5,1
  1512205092,-0.0024,0.0011,-0.0017,-96.19,-98.82,897.58,1,5,1
  1512205092,-0.0037,-0.0003,0.0000,-95.95,-98.27,905.94,5,8,1
  1512205092,0.0001,-0.0008,-0.0011,-99.43,-101.32,896.55,5,8,1
  1512205092,-0.0013,0.0021,0.0001,-96.37,-96.25,900.70,5,8,1
  1512205092,-0.0024,0.0016,-0.0015,-103.45,-93.51,879.94,5,8,1
  1512205092,-0.0021,0.0017,0.0004,-100.10,-100.22,896.18,8,1,11
  1512205092,-0.0017,0.0004,0.0008,-98.27,-95.64,914.00,8,1,11
  1512205092,-0.0024,0.0020,-0.0016,-102.54,-97.60,882.75,8,1,11
  1512205092,-0.0025,0.0027,0.0000,-98.02,-97.47,890.50,8,1,11
  1512205092,-0.0039,0.0005,-0.0005,-99.18,-100.59,898.74,8,1,11
  1512205092,-0.0005,0.0021,0.0005,-103.27,-97.41,897.40,-17,10,0
  1512205093,-0.0032,0.0015,-0.0011,-99.55,-98.33,897.58,-17,10,0
  1512205093,-0.0029,0.0012,-0.0013,-102.48,-93.26,883.54,-17,10,0
  1512205093,-0.0023,0.0009,0.0013,-97.11,-108.40,892.76,-17,10,0
  1512205093,-0.0001,0.0019,-0.0003,-93.63,-92.35,908.26,-3,-3,3
  1512205093,-0.0021,0.0020,0.0001,-99.91,-99.12,884.34,-3,-3,3
  1512205093,-0.0028,0.0003,-0.0001,-101.44,-101.26,898.99,-3,-3,3
  1512205093,-0.0017,-0.0007,-0.0015,-94.18,-98.51,915.89,-3,-3,3
  1512205093,0.0004,0.0015,-0.0001,-104.06,-96.50,894.23,-3,-3,3
  1512205093,-0.0035,0.0025,-0.0007,-96.98,-101.01,897.40,5,1,1
  1512205093,-0.0035,-0.0001,-0.0004,-98.51,-98.69,900.76,5,1,1
  1512205093,-0.0015,-0.0012,0.0000,-99.30,-101.50,896.79,5,1,1
  1512205093,-0.0005,0.0031,0.0015,-99.61,-97.47,896.18,5,1,1
  1512205093,-0.0028,0.0017,0.0003,-105.10,-96.31,882.57,5,1,1
  1512205093,-0.0017,0.0001,-0.0021,-97.60,-103.52,898.56,7,7,0
  1512205093,-0.0007,0.0000,0.0009,-96.44,-96.19,907.84,7,7,0
  1512205093,-0.0045,0.0029,-0.0011,-98.88,-96.74,881.96,7,7,0
  1512205093,-0.0033,0.0019,0.0011,-101.38,-101.01,887.39,7,7,0
  1512205093,0.0004,0.0011,-0.0008,-96.98,-95.70,908.26,14,7,-3
  1512205093,-0.0019,0.0027,0.0013,-104.00,-98.82,889.53,14,7,-3
  1512205093,-0.0009,0.0027,0.0001,-99.73,-99.37,895.75,14,7,-3
  1512205093,-0.0021,-0.0004,-0.0007,-98.14,-93.57,889.59,14,7,-3
  1512205093,0.0001,0.0001,0.0019,-103.64,-104.00,891.48,14,7,-3
  1512205093,-0.0003,0.0015,0.0003,-97.72,-93.69,904.85,3,10,-6
  1512205093,-0.0020,0.0023,-0.0008,-101.38,-99.06,880.13,3,10,-6
  1512205093,-0.0021,-0.0007,-0.0003,-102.97,-103.52,901.00,3,10,-6
  1512205093,-0.0001,-0.0024,0.0004,-91.67,-93.87,916.93,3,10,-6
  1512205093,-0.0029,0.0033,-0.0004,-105.71,-96.92,881.59,3,10,-6
  1512205093,-0.0032,0.0035,-0.0007,-102.42,-102.66,889.77,-1,1,8
  1512205093,-0.0009,-0.0004,-0.0008,-95.89,-94.73,904.97,-1,1,8
  1512205093,-0.0007,0.0012,-0.0008,-98.63,-97.60,897.09,-1,1,8
  1512205093,-0.0011,0.0015,0.0005,-97.47,-96.86,897.40,-1,1,8
  1512205093,-0.0013,-0.0007,-0.0019,-96.56,-97.90,898.44,3,-10,3
  1512205093,-0.0024,0.0023,0.0004,-100.89,-106.69,891.91,3,-10,3
  1512205093,-0.0017,0.0004,0.0013,-93.44,-93.38,912.72,3,-10,3
  1512205093,-0.0020,0.0016,0.0001,-103.76,-99.85,885.80,3,-10,3
  1512205093,-0.0015,0.0025,-0.0007,-101.75,-101.75,896.00,3,-10,3
  1512205093,-0.0017,-0.0004,-0.0003,-91.06,-98.45,908.20,-3,3,6
  1512205093,-0.0007,0.0007,-0.0008,-102.97,-97.84,896.00,-3,3,6
  1512205094,-0.0028,0.0025,-0.0004,-96.19,-99.24,893.49,-3,3,6
  1512205094,-0.0032,-0.0004,-0.0015,-96.62,-98.94,900.15,-3,3,6
  1512205094,0.0001,0.0012,0.0001,-99.24,-102.72,904.72,-3,3,6
  1512205094,-0.0001,-0.0012,-0.0003,-96.44,-93.14,912.17,1,1,15
  1512205094,-0.0023,0.0019,-0.0001,-102.23,-97.53,884.52,1,1,15
  1512205094,-0.0015,0.0007,-0.0003,-99.37,-102.36,900.02,1,1,15
  1512205094,-0.0001,-0.0009,0.0005,-91.74,-97.78,913.09,1,1,15
  1512205094,-0.0007,0.0012,0.0001,-101.56,-99.24,897.22,-8,1,1
  1512205094,-0.0017,0.0032,0.0008,-100.04,-100.83,893.62,-8,1,1
  1512205094,-0.0033,-0.0016,-0.0009,-96.37,-95.95,906.37,-8,1,1
  1512205094,-0.0011,-0.0005,0.0005,-101.93,-103.94,896.12,-8,1,1
  1512205094,-0.0036,0.0023,0.0011,-97.41,-95.58,895.81,-8,1,1
  1512205094,-0.0032,0.0017,-0.0004,-102.66,-96.44,887.76,-1,8,18
  1512205094,-0.0016,-0.0003,0.0001,-100.59,-104.74,897.95,-1,8,18
  1512205094,-0.0028,-0.0015,-0.0007,-89.84,-95.03,919.92,-1,8,18
  1512205094,-0.0032,0.0020,-0.0007,-103.52,-94.30,890.62,-1,8,18
  1512205094,-0.0032,0.0028,0.0003,-103.33,-101.44,891.54,8,1,1
  1512205094,-0.0009,0.0011,0.0001,-95.76,-99.30,903.32,8,1,1
  1512205094,-0.0029,0.0031,-0.0009,-99.49,-93.99,891.66,8,1,1
  1512205094,-0.0025,0.0028,0.0012,-100.10,-101.07,894.41,8,1,1
  1512205094,-0.0040,0.0009,-0.0013,-97.47,-95.34,897.58,8,1,1
  1512205094,-0.0035,0.0017,0.0005,-99.12,-98.27,896.67,7,3,13
  1512205094,-0.0019,0.0007,0.0005,-99.98,-95.95,897.34,7,3,13
  1512205094,-0.0033,0.0020,-0.0016,-99.49,-97.05,888.98,7,3,13
  1512205094,-0.0016,-0.0003,-0.0001,-101.68,-97.47,902.40,7,3,13
  1512205094,0.0007,0.0003,-0.0004,-92.35,-98.02,911.44,7,3,13
  1512205094,-0.0032,0.0033,-0.0015,-103.88,-94.24,883.36,-5,8,8
  1512205094,-0.0023,-0.0005,0.0003,-98.02,-102.72,897.09,-5,8,8
  1512205094,-0.0004,-0.0012,0.0000,-95.40,-94.97,916.20,-5,8,8
  1512205094,-0.0031,0.0016,0.0008,-100.83,-97.60,887.02,-5,8,8
  1512205094,-0.0013,0.0011,-0.0009,-98.69,-102.48,898.25,1,19,5
  1512205094,-0.0007,-0.0016,0.0000,-95.34,-96.74,909.73,1,19,5
  1512205094,-0.0020,0.0024,0.0000,-98.57,-98.45,894.41,1,19,5
  1512205094,-0.0004,0.0021,0.0001,-101.32,-100.28,896.12,1,19,5
  1512205094,-0.0043,-0.0001,-0.0023,-94.42,-97.23,908.57,1,19,5
  1512205094,-0.0031,0.0008,-0.0001,-100.40,-101.99,897.83,1,1,5
  1512205094,-0.0020,0.0020,-0.0004,-94.54,-94.06,898.68,1,1,5
  1512205095,-0.0021,0.0001,-0.0001,-96.50,-96.98,889.34,1,1,5
  1512205095,-0.0029,0.0004,0.0005,-101.50,-107.54,892.58,1,1,5
  1512205095,-0.0007,0.0000,0.0000,-93.57,-93.87,910.58,1,1,5
  1512205095,-0.0051,0.0005,-0.0011,-101.14,-100.28,887.94,-8,1,8
  1512205095,-0.0023,-0.0004,0.0004,-103.21,-102.48,890.44,-8,1,8
  1512205095,-0.0024,-0.0027,0.0001,-93.63,-96.80,910.71,-8,1,8
  1512205095,-0.0017,0.0020,-0.0007,-103.94,-96.80,882.26,-8,1,8
  1512205095,-0.0005,0.0019,-0.0001,-96.92,-98.63,898.07,-1,1,5
  1512205095,-0.0041,-0.0009,-0.0011,-98.69,-99.43,903.32,-1,1,5
  1512205095,-0.0016,0.0004,0.0000,-101.26,-102.11,898.13,-1,1,5
  1512205095,-0.0016,0.0024,0.0005,-98.14,-95.03,897.16,-1,1,5
  1512205095,-0.0036,0.0007,-0.0004,-104.19,-97.90,894.10,-1,1,5
  1512205095,-0.0009,0.0017,0.0007,-98.57,-100.16,903.38,-1,5,8
  1512205095,0.0007,0.0021,0.0017,-94.79,-96.07,905.64,-1,5,8
  1512205095,-0.0045,0.0023,0.0005,-101.87,-100.59,886.60,-1,5,8
  1512205095,-0.0028,0.0019,0.0003,-103.39,-100.16,896.85,-1,5,8
  1512205095,-0.0029,-0.0020,0.0007,-96.74,-95.95,909.73,-1,5,8
  1512205095,-0.0024,0.0028,-0.0004,-99.61,-95.46,892.64,-1,-8,5
  1512205095,-0.0011,0.0013,0.0004,-101.38,-100.22,896.30,-1,-8,5
  1512205095,-0.0027,0.0001,-0.0013,-97.35,-98.27,899.72,-1,-8,5
  1512205095,-0.0024,0.0019,-0.0001,-98.69,-95.70,883.73,-1,-8,5
  1512205095,-0.0025,0.0048,0.0015,-101.50,-103.70,897.40,5,1,1
  1512205095,-0.0036,-0.0005,-0.0016,-97.05,-97.35,898.86,5,1,1
  1512205095,-0.0019,0.0001,0.0008,-99.49,-104.86,897.34,5,1,1
  1512205095,-0.0013,0.0035,0.0011,-99.55,-95.89,897.34,5,1,1
  1512205095,-0.0028,0.0012,-0.0013,-97.90,-98.75,890.01,5,1,1
  1512205095,-0.0017,0.0011,-0.0009,-99.98,-102.29,896.91,-3,-14,10
  1512205095,0.0004,0.0007,0.0009,-99.06,-97.23,902.47,-3,-14,10
  1512205095,-0.0020,0.0020,-0.0008,-101.56,-95.83,884.64,-3,-14,10
  1512205095,-0.0019,0.0029,-0.0027,-101.07,-99.73,891.54,-3,-14,10
  1512205095,-0.0007,-0.0001,-0.0003,-93.81,-93.38,915.71,-3,-3,-6
  1512205095,-0.0016,0.0019,0.0005,-103.15,-93.51,889.04,-3,-3,-6
  1512205095,-0.0029,0.0043,0.0005,-100.46,-98.02,892.94,-3,-3,-6
  1512205095,-0.0035,-0.0016,-0.0007,-92.47,-93.44,913.15,-3,-3,-6
  1512205095,-0.0016,0.0020,0.0012,-102.11,-102.17,891.36,-3,-3,-6
  1512205095,-0.0001,0.0017,0.0017,-98.39,-93.26,899.41,7,0,-3
  1512205095,-0.0016,-0.0003,-0.0009,-96.74,-99.67,900.21,7,0,-3
  1512205095,-0.0012,-0.0005,0.0017,-103.33,-101.56,903.14,7,0,-3
  1512205096,-0.0008,0.0012,-0.0001,-93.69,-97.53,903.44,7,0,-3
  1512205096,-0.0020,0.0023,0.0000,-104.06,-98.27,884.40,7,0,-3
  1512205096,-0.0031,-0.0012,0.0009,-100.04,-101.81,905.64,-12,-1,18
  1512205096,-0.0017,-0.0007,0.0008,-94.42,-95.70,920.04,-12,-1,18
  1512205096,-0.0016,0.0004,0.0009,-102.36,-94.24,890.50,-12,-1,18
  1512205096,-0.0016,0.0017,0.0000,-101.75,-102.54,895.08,-12,-1,18
  1512205096,-0.0012,-0.0003,-0.0005,-93.81,-96.07,914.79,-1,-8,1
  1512205096,-0.0001,0.0009,0.0003,-100.83,-99.61,899.60,-1,-8,1
  1512205096,-0.0032,0.0044,0.0007,-99.73,-97.90,894.59,-1,-8,1
  1512205096,-0.0037,-0.0017,-0.0013,-97.41,-99.49,898.38,-1,-8,1
  1512205096,-0.0012,-0.0012,-0.0008,-97.72,-101.50,899.90,-1,-8,1
  1512205096,-0.0007,-0.0008,0.0003,-96.37,-99.55,912.41,-10,3,3
  1512205096,-0.0021,0.0040,-0.0004,-103.70,-97.72,886.05,-10,3,3
  1512205096,-0.0023,0.0020,0.0005,-100.52,-100.22,894.04,-10,3,3
  1512205096,-0.0013,-0.0013,-0.0008,-91.80,-94.24,910.34,-10,3,3
  1512205096,-0.0008,0.0007,-0.0004,-103.27,-100.59,893.74,-10,3,3
  1512205096,-0.0028,0.0027,0.0015,-98.57,-95.28,901.86,-5,-5,-8
  1512205096,-0.0023,0.0005,-0.0005,-98.69,-98.08,897.52,-5,-5,-8
  1512205096,-0.0020,0.0000,-0.0005,-101.68,-101.38,908.14,-5,-5,-8
  1512205096,-0.0003,-0.0017,0.0001,-97.17,-98.02,914.61,-5,-5,-8
  1512205096,-0.0056,0.0028,-0.0024,-99.79,-94.36,880.37,-5,8,-8
  1512205096,-0.0027,0.0019,0.0001,-100.16,-107.60,888.85,-5,8,-8
  1512205096,-0.0025,-0.0009,-0.0011,-92.22,-96.50,917.24,-5,8,-8
  1512205096,-0.0012,-0.0004,0.0000,-102.17,-97.84,898.32,-5,8,-8
  1512205096,-0.0024,0.0016,-0.0009,-101.20,-99.18,896.73,-5,8,-8
  1512205096,-0.0021,-0.0009,0.0003,-95.83,-101.14,904.24,-1,8,1
  1512205096,-0.0012,0.0004,-0.0012,-102.54,-101.01,900.21,-1,8,1
  1512205096,0.0011,0.0005,-0.0003,-96.01,-97.11,903.02,-1,8,1
  1512205096,-0.0037,0.0007,0.0004,-99.85,-94.42,895.08,-1,8,1
  1512205096,-0.0027,0.0001,-0.0016,-100.34,-102.97,895.81,-1,8,1
  1512205096,-0.0008,-0.0001,-0.0007,-91.43,-93.57,920.17,-5,8,5
  1512205096,-0.0024,0.0019,0.0001,-102.42,-96.13,890.44,-5,8,5
  1512205096,-0.0021,0.0024,0.0003,-100.77,-103.03,892.70,-5,8,5
  1512205096,-0.0029,-0.0029,-0.0007,-88.38,-93.87,910.46,-5,8,5
  1512205096,-0.0027,0.0011,-0.0003,-101.93,-102.60,897.03,0,-14,3
  1512205096,-0.0028,0.0009,0.0008,-101.44,-96.19,890.75,0,-14,3
  1512205096,-0.0015,0.0011,-0.0009,-98.45,-101.26,892.46,0,-14,3
  1512205096,-0.0008,-0.0013,0.0001,-99.37,-98.45,900.88,0,-14,3
  1512205097,-0.0011,-0.0003,0.0008,-95.28,-98.45,907.71,0,-14,3
  1512205097,-0.0043,0.0015,-0.0015,-100.59,-95.46,893.74,3,-7,-10
  1512205097,-0.0041,0.0016,-0.0020,-102.66,-104.37,893.68,3,-7,-10
  1512205097,-0.0025,-0.0004,-0.0005,-94.42,-95.21,915.77,3,-7,-10
  1512205097,-0.0025,0.0017,-0.0015,-105.77,-104.68,886.23,3,-7,-10
  1512205097,-0.0015,0.0035,-0.0003,-99.73,-101.50,892.03,-1,8,1
  1512205097,-0.0020,-0.0001,-0.0016,-93.69,-94.24,905.88,-1,8,1
  1512205097,-0.0039,0.0047,-0.0012,-100.52,-94.60,884.28,-1,8,1
  1512205097,-0.0045,0.0051,-0.0007,-101.01,-98.94,895.45,-1,8,1
  1512205097,-0.0049,0.0005,-0.0023,-92.35,-95.03,897.46,-1,8,1
  1512205097,-0.0019,-0.0001,-0.0001,-99.12,-99.43,897.58,-8,-5,-1
  1512205097,-0.0016,0.0052,-0.0043,-86.30,-105.77,894.41,-8,-5,-1
  1512205097,-0.0023,0.0007,0.0004,-107.42,-93.02,880.31,-8,-5,-1
  1512205097,-0.0024,0.0017,0.0015,-102.48,-104.92,888.79,-8,-5,-1
  1512205097,-0.0016,-0.0025,-0.0009,-96.37,-93.69,905.15,-8,-5,-1
  1512205097,-0.0012,0.0007,0.0004,-103.15,-95.34,882.57,-7,3,-3
  1512205097,-0.0005,0.0020,0.0012,-106.38,-98.94,890.69,-7,3,-3
  1512205097,-0.0011,-0.0005,-0.0025,-97.35,-97.90,899.29,-7,3,-3
  1512205097,-0.0028,0.0032,-0.0007,-99.67,-98.45,889.83,-7,3,-3
  1512205097,-0.0044,0.0044,0.0003,-98.88,-97.11,898.56,-3,-7,3
  1512205097,-0.0049,0.0027,-0.0033,-100.59,-98.27,891.05,-3,-7,3
  1512205097,-0.0047,0.0024,-0.0016,-106.32,-107.54,884.83,-3,-7,3
  1512205097,-0.0001,0.0007,0.0003,-88.38,-99.49,904.97,-3,-7,3
  1512205097,-0.0021,0.0019,0.0011,-99.85,-102.29,888.98,-3,-7,3
  1512205097,-0.0012,0.0023,0.0013,-100.52,-99.06,896.79,5,-5,11
  1512205097,0.0012,-0.0019,0.0004,-95.46,-96.92,926.21,5,-5,11
  1512205097,-0.0004,0.0028,0.0008,-103.76,-95.15,889.10,5,-5,11
  1512205097,-0.0020,0.0047,-0.0001,-97.66,-99.24,893.98,5,-5,11
  1512205097,-0.0039,0.0005,-0.0015,-96.86,-94.60,910.40,5,-5,11
  1512205097,-0.0004,0.0003,0.0011,-103.45,-99.12,897.22,1,5,5
  1512205097,-0.0024,0.0007,0.0009,-100.34,-96.13,893.37,1,5,5
  1512205097,0.0000,-0.0016,0.0001,-96.80,-95.09,897.40,1,5,5
  1512205097,-0.0012,0.0032,-0.0011,-97.84,-101.99,892.21,1,5,5
  1512205097,-0.0020,0.0015,0.0007,-95.76,-100.22,911.32,0,3,10
  1512205097,-0.0044,0.0005,-0.0013,-98.82,-93.08,897.77,0,3,10
  1512205097,-0.0028,0.0001,0.0004,-101.56,-104.61,895.81,0,3,10
  1512205097,0.0005,-0.0007,0.0004,-94.30,-98.51,917.97,0,3,10
  1512205097,-0.0015,0.0011,0.0007,-101.99,-95.34,884.58,0,3,10
  1512205098,-0.0015,0.0005,-0.0007,-100.52,-104.00,885.74,-5,8,5
  1512205098,-0.0023,-0.0045,0.0001,-92.10,-96.50,914.61,-5,8,5
  1512205098,-0.0021,-0.0003,-0.0003,-101.50,-93.81,891.54,-5,8,5
  1512205098,-0.0023,0.0012,0.0007,-100.16,-95.58,895.45,-5,8,5
  1512205098,-0.0028,-0.0004,-0.0013,-94.06,-95.89,897.40,-5,8,5
  1512205098,-0.0001,0.0009,-0.0005,-102.42,-96.62,900.33,3,3,0
  1512205098,-0.0039,0.0031,-0.0011,-101.38,-102.23,899.05,3,3,0
  1512205098,-0.0035,-0.0007,-0.0033,-91.43,-102.05,900.15,3,3,0
  1512205098,-0.0029,0.0017,0.0009,-98.33,-105.90,893.01,3,3,0
  1512205098,-0.0015,-0.0015,0.0003,-98.51,-99.49,911.62,5,15,-1
  1512205098,-0.0017,0.0001,-0.0012,-102.17,-98.82,891.17,5,15,-1
  1512205098,-0.0007,0.0007,0.0001,-100.16,-102.11,894.35,5,15,-1
  1512205098,-0.0013,-0.0007,-0.0005,-93.26,-94.24,908.39,5,15,-1
  1512205098,-0.0028,0.0023,-0.0003,-97.29,-91.92,881.71,5,15,-1
  1512205098,-0.0043,0.0017,-0.0009,-98.57,-101.93,896.67,7,3,3
  1512205098,-0.0031,-0.0023,-0.0005,-92.65,-95.89,912.48,7,3,3
  1512205098,0.0009,0.0005,-0.0007,-97.90,-96.31,899.78,7,3,3
  1512205098,-0.0023,0.0051,-0.0017,-101.68,-100.52,892.88,7,3,3
  1512205098,-0.0031,0.0012,-0.0012,-99.06,-98.45,891.72,5,-1,-1
  1512205098,-0.0007,0.0005,-0.0004,-100.46,-100.16,894.53,5,-1,-1
  1512205098,0.0004,-0.0012,0.0000,-99.49,-96.74,899.17,5,-1,-1
  1512205098,-0.0025,0.0007,-0.0007,-103.82,-100.34,887.94,5,-1,-1
  1512205098,-0.0001,0.0013,0.0008,-104.00,-101.81,891.30,5,-1,-1
  1512205098,-0.0023,0.0007,-0.0007,-97.05,-97.72,910.71,7,10,3
  1512205098,-0.0021,0.0025,-0.0011,-102.72,-97.17,884.22,7,10,3
  1512205098,-0.0031,0.0021,-0.0001,-98.69,-100.83,892.09,7,10,3
  1512205098,-0.0043,-0.0016,-0.0012,-95.40,-95.83,905.09,7,10,3
  1512205098,-0.0023,0.0017,0.0005,-101.14,-97.78,889.95,7,10,3
  1512205098,-0.0020,0.0040,0.0004,-99.37,-93.63,893.62,8,-1,1
  1512205098,-0.0047,0.0005,-0.0021,-101.99,-97.66,883.42,8,-1,1
  1512205098,-0.0021,0.0012,0.0003,-100.46,-98.94,892.40,8,-1,1
  1512205098,-0.0003,0.0004,0.0004,-98.27,-98.33,901.73,8,-1,1
  1512205098,-0.0015,0.0017,0.0004,-102.60,-97.96,883.18,-8,-1,8
  1512205098,-0.0011,-0.0011,0.0003,-96.31,-104.98,908.33,-8,-1,8
  1512205098,-0.0012,-0.0001,-0.0009,-94.60,-96.37,922.61,-8,-1,8
  1512205098,-0.0023,0.0015,-0.0008,-101.99,-93.57,894.23,-8,-1,8
  1512205098,-0.0043,0.0025,0.0016,-98.51,-102.91,900.94,-8,-1,8
  1512205099,-0.0024,0.0004,0.0003,-93.08,-96.74,916.38,-1,1,5
  1512205099,-0.0027,0.0031,-0.0003,-98.45,-98.21,890.14,-1,1,5
  1512205099,-0.0035,0.0048,0.0000,-100.46,-103.33,884.09,-1,1,5
  1512205099,-0.0032,-0.0025,-0.0008,-98.63,-98.21,903.99,-1,1,5
  1512205099,-0.0019,-0.0023,0.0009,-102.72,-101.01,900.39,-1,1,5
  1512205099,-0.0003,0.0011,0.0003,-103.64,-95.46,897.83,7,3,6
  1512205099,-0.0017,-0.0001,-0.0009,-102.42,-99.91,889.89,7,3,6
  1512205099,-0.0012,0.0016,0.0005,-102.42,-102.60,898.19,7,3,6
  1512205099,-0.0011,0.0023,-0.0011,-97.96,-96.44,899.54,7,3,6
  1512205099,-0.0035,0.0035,-0.0015,-99.12,-96.68,887.70,-5,-1,-1
  1512205099,-0.0039,0.0033,-0.0004,-103.52,-106.87,893.86,-5,-1,-1
  1512205099,-0.0032,0.0008,-0.0001,-94.24,-94.79,904.05,-5,-1,-1
  1512205099,0.0000,0.0016,-0.0008,-102.36,-96.92,882.32,-5,-1,-1
  1512205099,-0.0007,0.0045,0.0011,-101.26,-99.55,888.85,-5,-1,-1
  1512205099,0.0000,-0.0024,0.0000,-93.69,-97.47,918.70,-7,0,-3
  1512205099,-0.0024,0.0016,0.0016,-104.00,-100.95,886.23,-7,0,-3
  1512205099,-0.0009,0.0023,0.0000,-102.66,-96.92,895.81,-7,0,-3
  1512205099,-0.0012,-0.0009,-0.0013,-95.83,-97.11,909.91,-7,0,-3
  1512205099,-0.0037,0.0028,0.0004,-101.56,-94.36,904.17,1,1,1
  1512205099,-0.0007,0.0020,-0.0003,-99.12,-97.41,906.19,1,1,1
  1512205099,-0.0044,0.0011,-0.0011,-97.66,-96.44,890.50,1,1,1
  1512205099,0.0003,0.0004,-0.0003,-101.44,-102.23,892.27,1,1,1
  1512205099,-0.0009,-0.0007,0.0003,-98.63,-97.53,912.78,1,1,1
  1512205099,-0.0035,0.0017,-0.0009,-101.62,-96.50,895.94,-3,0,3
  1512205099,-0.0027,0.0013,0.0004,-100.40,-101.44,897.22,-3,0,3
  1512205099,-0.0020,-0.0005,-0.0013,-98.08,-99.79,914.79,-3,0,3
  1512205099,-0.0031,0.0031,-0.0015,-99.49,-95.89,882.87,-3,0,3
  1512205099,-0.0028,0.0052,-0.0003,-102.66,-106.81,886.60,-3,0,3
  1512205099,-0.0023,-0.0005,-0.0008,-94.18,-95.09,913.15,8,1,-5
  1512205099,-0.0007,0.0031,-0.0015,-103.15,-101.07,885.99,8,1,-5
  1512205099,-0.0017,0.0013,0.0007,-99.79,-98.33,887.51,8,1,-5
  1512205099,-0.0015,-0.0005,0.0004,-97.84,-99.67,891.17,8,1,-5
  1512205099,-0.0011,0.0028,0.0007,-105.53,-101.68,883.00,-3,3,3
  1512205099,-0.0027,0.0019,0.0000,-95.21,-96.62,901.49,-3,3,3
  1512205099,-0.0027,0.0005,-0.0004,-100.52,-95.83,890.99,-3,3,3
  1512205099,-0.0032,0.0013,0.0015,-102.66,-103.70,894.35,-3,3,3
  1512205099,-0.0009,0.0011,0.0001,-95.15,-93.81,899.72,-3,3,3
  1512205099,-0.0020,0.0023,0.0000,-101.62,-95.52,885.50,1,-5,11
  1512205100,-0.0019,0.0025,0.0007,-102.36,-102.91,894.53,1,-5,11
  1512205100,-0.0013,-0.0007,-0.0007,-96.31,-93.63,915.77,1,-5,11
  1512205100,-0.0029,0.0009,-0.0005,-103.15,-97.60,886.54,1,-5,11
  1512205100,-0.0019,0.0001,0.0008,-95.70,-95.58,893.62,-10,-7,-3
  1512205100,-0.0017,-0.0004,0.0001,-97.47,-98.63,912.41,-10,-7,-3
  1512205100,-0.0003,0.0013,0.0013,-100.59,-91.92,893.01,-10,-7,-3
  1512205100,-0.0028,0.0024,0.0007,-100.22,-102.97,898.50,-10,-7,-3
  1512205100,-0.0031,0.0000,-0.0004,-97.66,-95.52,907.65,-10,-7,-3
  1512205100,-0.0009,0.0021,-0.0015,-98.45,-100.16,895.08,-3,-7,3
  1512205100,-0.0032,0.0033,-0.0005,-97.96,-95.34,905.09,-3,-7,3
  1512205100,-0.0036,0.0020,-0.0023,-96.31,-97.29,890.69,-3,-7,3
  1512205100,-0.0021,-0.0001,0.0008,-101.50,-103.94,895.69,-3,-7,3
  1512205100,-0.0024,0.0001,0.0004,-92.83,-96.01,911.01,-3,-7,3
  1512205100,-0.0033,0.0041,0.0015,-101.56,-95.70,893.19,0,0,3
  1512205100,-0.0020,0.0028,-0.0001,-103.21,-106.02,889.71,0,0,3
  1512205100,-0.0028,-0.0013,0.0007,-91.74,-94.91,913.02,0,0,3
  1512205100,-0.0004,0.0024,-0.0013,-101.01,-99.18,901.79,0,0,3
  1512205100,-0.0025,0.0027,0.0003,-101.38,-99.24,892.94,-1,-5,15
  1512205100,-0.0049,-0.0007,-0.0021,-98.69,-98.08,893.49,-1,-5,15
  1512205100,-0.0035,-0.0004,-0.0005,-101.26,-104.13,897.40,-1,-5,15
  1512205100,-0.0003,0.0016,-0.0009,-100.71,-100.28,897.09,-1,-5,15
  1512205100,-0.0028,-0.0001,-0.0011,-104.80,-99.98,887.33,-1,-5,15
  1512205100,-0.0017,-0.0008,0.0015,-102.48,-103.94,896.97,1,-1,-5
  1512205100,-0.0008,0.0008,-0.0001,-97.84,-95.89,901.31,1,-1,-5
  1512205100,-0.0040,0.0023,-0.0020,-101.32,-96.92,886.41,1,-1,-5
  1512205100,-0.0052,0.0029,-0.0013,-100.34,-103.70,889.16,1,-1,-5
  1512205100,-0.0023,-0.0015,-0.0004,-95.95,-97.72,917.18,-15,8,1
  1512205100,-0.0023,0.0016,-0.0003,-103.15,-99.24,885.07,-15,8,1
  1512205100,-0.0017,0.0028,0.0000,-99.91,-101.01,892.21,-15,8,1
  1512205100,-0.0009,-0.0035,0.0004,-96.68,-98.27,908.26,-15,8,1
  1512205100,-0.0008,0.0008,-0.0008,-104.98,-97.05,892.76,-15,8,1
  1512205100,-0.0031,0.0041,-0.0009,-99.85,-102.66,889.34,3,0,10
  1512205100,-0.0025,-0.0017,-0.0007,-96.44,-97.11,903.75,3,0,10
  1512205100,-0.0033,0.0003,0.0011,-100.52,-104.37,896.06,3,0,10
  1512205100,-0.0021,0.0027,-0.0001,-99.49,-94.24,896.30,3,0,10
  1512205100,-0.0037,0.0007,-0.0007,-100.71,-102.60,890.08,3,0,10
  1512205100,-0.0020,0.0000,-0.0003,-100.46,-98.75,908.39,0,7,0
  1512205101,-0.0019,0.0008,-0.0008,-100.34,-99.06,904.91,0,7,0
  1512205101,-0.0039,0.0023,-0.0008,-98.33,-91.43,884.83,0,7,0
  1512205101,-0.0031,0.0009,0.0013,-100.59,-108.03,888.31,0,7,0
  1512205101,-0.0032,-0.0011,-0.0008,-95.40,-95.58,916.99,-7,7,3
  1512205101,-0.0007,0.0031,-0.0003,-103.58,-102.29,881.65,-7,7,3
  1512205101,-0.0021,0.0016,0.0015,-101.62,-98.51,893.01,-7,7,3
  1512205101,-0.0005,-0.0015,-0.0011,-96.56,-99.12,893.19,-7,7,3
  1512205101,-0.0013,0.0003,0.0003,-100.77,-101.75,899.05,-7,7,3
  1512205101,-0.0003,0.0013,-0.0007,-100.10,-98.21,897.58,1,8,5
  1512205101,-0.0029,0.0015,-0.0023,-103.09,-97.29,886.47,1,8,5
  1512205101,-0.0017,0.0013,-0.0017,-99.98,-101.62,895.87,1,8,5
  1512205101,-0.0020,0.0012,0.0007,-95.40,-94.60,900.94,1,8,5
  1512205101,-0.0024,0.0028,0.0000,-102.91,-98.75,879.88,1,8,5
  1512205101,-0.0029,0.0033,0.0009,-101.50,-102.84,888.43,3,7,-3
  1512205101,-0.0017,-0.0015,0.0001,-95.52,-94.36,910.58,3,7,-3
  1512205101,-0.0041,0.0037,-0.0008,-105.35,-102.91,883.67,3,7,-3
  1512205101,-0.0017,0.0016,-0.0001,-102.84,-96.19,888.61,3,7,-3
  1512205101,-0.0029,0.0000,0.0000,-94.48,-98.21,909.06,-14,-7,6
  1512205101,-0.0019,-0.0009,-0.0005,-102.84,-103.70,898.19,-14,-7,6
  1512205101,-0.0008,0.0009,0.0013,-96.50,-93.99,906.07,-14,-7,6
  1512205101,-0.0023,0.0020,-0.0013,-101.26,-96.31,879.88,-14,-7,6
  1512205101,-0.0005,0.0004,-0.0008,-99.73,-104.86,895.94,-14,-7,6
  1512205101,-0.0013,-0.0009,0.0003,-95.15,-92.77,911.68,5,5,1
  1512205101,-0.0024,0.0024,-0.0004,-102.05,-97.84,885.50,5,5,1
  1512205101,-0.0024,-0.0011,-0.0003,-100.10,-101.07,902.04,5,5,1
  1512205101,-0.0017,-0.0017,-0.0004,-94.73,-98.27,916.75,5,5,1
  1512205101,-0.0016,0.0012,-0.0004,-104.06,-96.62,890.44,1,12,-1
  1512205101,-0.0024,0.0024,0.0003,-99.49,-99.91,894.78,1,12,-1
  1512205101,-0.0024,-0.0013,-0.0015,-96.80,-95.58,907.78,1,12,-1
  1512205101,-0.0016,0.0007,0.0004,-99.18,-96.25,899.05,1,12,-1
  1512205101,-0.0023,0.0024,-0.0008,-97.23,-95.76,904.54,1,12,-1
  1512205101,-0.0025,-0.0012,-0.0023,-97.35,-99.85,899.35,-10,-3,-6
  1512205101,0.0000,-0.0019,0.0027,-103.70,-108.09,895.69,-10,-3,-6
  1512205101,-0.0009,0.0001,-0.0003,-98.39,-98.33,920.29,-10,-3,-6
  1512205101,-0.0048,0.0024,-0.0032,-99.73,-97.47,885.80,-10,-3,-6
  1512205101,-0.0031,0.0009,0.0005,-104.80,-106.63,892.21,-10,-3,-6
  1512205101,-0.0021,0.0003,0.0003,-94.30,-97.11,910.03,-3,-7,10
  1512205101,0.0009,0.0012,-0.0012,-99.98,-93.81,883.97,-3,-7,10
  1512205102,-0.0031,0.0031,-0.0003,-104.49,-100.10,890.08,-3,-7,10
  1512205102,-0.0072,0.0001,-0.0025,-95.64,-95.46,899.23,-3,-7,10
  1512205102,-0.0051,0.0012,-0.0009,-98.51,-100.34,892.52,-7,14,-3
  1512205102,-0.0011,0.0020,0.0008,-101.38,-99.37,894.04,-7,14,-3
  1512205102,-0.0017,0.0029,-0.0008,-100.16,-102.29,889.83,-7,14,-3
  1512205102,0.0004,0.0019,0.0017,-103.27,-100.28,898.44,-7,14,-3
  1512205102,0.0008,0.0016,0.0005,-96.07,-100.10,905.46,-7,14,-3
  1512205102,-0.0013,0.0032,0.0003,-101.01,-94.06,883.54,-5,5,-1
  1512205102,-0.0016,0.0024,-0.0003,-101.93,-103.33,896.18,-5,5,-1
  1512205102,-0.0012,0.0019,-0.0004,-96.86,-93.20,909.36,-5,5,-1
  1512205102,-0.0043,0.0031,-0.0013,-101.93,-94.06,889.40,-5,5,-1
  1512205102,-0.0021,0.0008,0.0005,-100.22,-100.28,895.32,-14,3,10
  1512205102,-0.0019,-0.0036,0.0007,-91.31,-97.78,910.46,-14,3,10
  1512205102,-0.0035,0.0017,0.0000,-102.78,-93.38,882.51,-14,3,10
  1512205102,-0.0040,0.0040,0.0007,-100.89,-99.98,892.76,-14,3,10
  1512205102,-0.0051,-0.0003,-0.0016,-97.29,-96.98,904.85,-14,3,10
  1512205102,-0.0007,0.0013,-0.0005,-100.28,-103.39,903.69,-1,-1,-1
  1512205102,-0.0013,0.0032,0.0005,-101.38,-100.40,905.40,-1,-1,-1
  1512205102,-0.0020,0.0043,-0.0005,-99.12,-97.53,886.66,-1,-1,-1
  1512205102,-0.0020,0.0013,0.0005,-98.27,-104.37,899.41,-1,-1,-1
  1512205102,0.0007,-0.0005,0.0017,-99.12,-99.18,909.36,-1,-1,-1
  1512205102,0.0007,0.0019,-0.0007,-101.93,-95.15,883.97,-1,-1,-18
  1512205102,-0.0020,0.0036,-0.0007,-105.29,-102.54,884.46,-1,-1,-18
  1512205102,-0.0052,-0.0001,0.0001,-96.19,-98.33,900.94,-1,-1,-18
  1512205102,-0.0024,-0.0003,0.0008,-101.68,-103.45,891.66,-1,-1,-18
  1512205102,-0.0019,0.0013,0.0015,-97.90,-97.72,898.93,-8,8,1
  1512205102,-0.0027,-0.0003,-0.0001,-100.77,-97.35,886.54,-8,8,1
  1512205102,-0.0036,0.0011,-0.0009,-103.39,-103.76,890.14,-8,8,1
  1512205102,-0.0009,0.0011,0.0011,-97.11,-95.95,901.43,-8,8,1
  1512205102,-0.0036,-0.0012,0.0005,-106.38,-100.40,894.47,-8,8,1
  1512205102,-0.0004,-0.0005,0.0008,-98.27,-98.33,907.84,-8,5,1
  1512205102,-0.0011,-0.0013,0.0007,-96.37,-99.24,917.36,-8,5,1
  1512205102,-0.0047,0.0019,-0.0003,-104.43,-97.05,886.78,-8,5,1
  1512205102,-0.0009,0.0033,0.0001,-97.41,-98.82,897.83,-8,5,1
  1512205102,-0.0024,-0.0009,-0.0024,-95.34,-94.48,912.60,-8,5,1
  1512205102,0.0000,0.0013,-0.0004,-97.29,-100.59,903.44,0,3,0
  1512205102,-0.0012,0.0024,0.0012,-98.39,-102.36,904.36,0,3,0
  1512205102,-0.0029,-0.0004,-0.0005,-93.87,-96.25,898.68,0,3,0
  1512205103,-0.0004,0.0007,-0.0003,-100.40,-106.69,895.81,0,3,0
  1512205103,0.0005,-0.0016,0.0016,-94.91,-94.30,919.43,-3,-14,-3
  1512205103,-0.0043,0.0008,-0.0008,-101.56,-97.90,883.79,-3,-14,-3
  1512205103,-0.0024,0.0017,0.0005,-104.86,-102.54,889.59,-3,-14,-3
  1512205103,-0.0028,-0.0017,0.0000,-96.68,-93.51,909.55,-3,-14,-3
  1512205103,-0.0005,0.0032,0.0001,-100.22,-98.39,882.02,-3,-14,-3
  1512205103,-0.0004,0.0045,0.0001,-103.70,-102.11,891.36,-5,-12,1
  1512205103,-0.0029,-0.0024,-0.0009,-98.27,-95.83,905.21,-5,-12,1
  1512205103,-0.0027,0.0035,-0.0017,-101.38,-101.07,886.78,-5,-12,1
  1512205103,-0.0029,0.0035,0.0004,-102.54,-97.84,884.83,-5,-12,1
  1512205103,-0.0031,0.0015,-0.0011,-102.29,-99.61,891.05,5,5,8
  1512205103,-0.0023,0.0009,-0.0004,-100.95,-101.50,892.03,5,5,8
  1512205103,-0.0009,0.0021,0.0017,-96.19,-96.31,899.17,5,5,8
  1512205103,-0.0027,0.0021,0.0009,-101.32,-96.07,886.23,5,5,8
  1512205103,-0.0021,0.0003,-0.0017,-101.62,-106.45,891.11,5,5,8
  1512205103,-0.0011,0.0012,0.0016,-93.14,-94.12,906.98,-12,8,8
  1512205103,-0.0009,0.0035,-0.0005,-100.16,-98.57,887.51,-12,8,8
  1512205103,0.0005,-0.0003,-0.0003,-100.65,-100.10,901.61,-12,8,8
  1512205103,-0.0021,-0.0009,-0.0020,-97.90,-101.56,907.84,-12,8,8
  1512205103,-0.0019,0.0021,-0.0013,-105.47,-96.37,883.30,-12,8,8
  1512205103,-0.0024,0.0016,0.0007,-102.60,-106.14,889.16,1,1,5
  1512205103,-0.0043,-0.0028,-0.0016,-95.15,-96.62,909.85,1,1,5
  1512205103,-0.0012,0.0019,0.0011,-101.26,-102.05,889.71,1,1,5
  1512205103,-0.0013,0.0021,-0.0005,-98.69,-99.12,890.81,1,1,5
  1512205103,-0.0021,-0.0007,-0.0011,-98.14,-100.83,892.09,15,-1,15
  1512205103,-0.0019,0.0013,-0.0004,-100.89,-101.50,901.98,15,-1,15
  1512205103,0.0009,-0.0008,0.0001,-94.06,-95.95,919.13,15,-1,15
  1512205103,-0.0041,0.0020,-0.0015,-103.70,-98.02,880.80,15,-1,15
  1512205103,-0.0031,0.0019,-0.0005,-104.43,-104.31,885.38,15,-1,15
  1512205103,-0.0017,0.0011,-0.0005,-95.15,-91.92,911.44,-5,15,-5
  1512205103,-0.0020,0.0027,-0.0003,-99.61,-97.90,883.24,-5,15,-5
  1512205103,-0.0032,0.0031,-0.0007,-99.30,-99.79,890.93,-5,15,-5
  1512205103,-0.0020,-0.0008,0.0000,-96.44,-96.92,896.06,-5,15,-5
  1512205103,-0.0011,0.0011,0.0000,-98.82,-97.35,892.88,-5,1,1
  1512205103,-0.0001,0.0016,-0.0011,-98.21,-95.83,894.53,-5,1,1
  1512205103,-0.0048,0.0001,-0.0013,-104.43,-98.51,888.73,-5,1,1
  1512205103,-0.0027,0.0000,-0.0005,-99.00,-100.22,906.01,-5,1,1
  1512205104,-0.0011,0.0023,-0.0017,-96.86,-99.79,910.83,-5,1,1
  1512205104,-0.0016,0.0039,-0.0005,-101.50,-92.90,875.12,8,1,8
  1512205104,-0.0009,0.0039,0.0013,-98.39,-105.47,885.86,8,1,8
  1512205104,-0.0024,-0.0005,-0.0001,-93.51,-93.38,911.13,8,1,8
  1512205104,-0.0012,0.0004,-0.0001,-100.89,-101.14,887.39,8,1,8
  1512205104,0.0005,0.0029,-0.0007,-101.75,-98.08,890.38,8,1,8
  1512205104,-0.0015,-0.0005,-0.0019,-96.13,-99.55,911.62,-1,12,-8
  1512205104,-0.0017,0.0013,0.0008,-102.17,-99.43,894.71,-1,12,-8
  1512205104,-0.0020,0.0023,-0.0009,-101.26,-97.72,893.86,-1,12,-8
  1512205104,-0.0017,0.0013,-0.0008,-100.10,-97.35,889.53,-1,12,-8
  1512205104,0.0011,-0.0007,0.0004,-108.89,-96.98,892.88,-3,3,13
  1512205104,-0.0012,0.0012,-0.0001,-94.79,-95.52,901.18,-3,3,13
  1512205104,-0.0019,0.0003,-0.0039,-99.73,-97.72,894.96,-3,3,13
  1512205104,-0.0032,0.0015,-0.0015,-100.65,-104.61,892.70,-3,3,13
  1512205104,-0.0024,-0.0008,-0.0024,-93.87,-96.62,912.84,-3,3,13
  1512205104,-0.0027,0.0023,-0.0016,-100.65,-97.17,889.59,3,0,3
  1512205104,-0.0024,0.0024,0.0004,-104.00,-105.90,890.56,3,0,3
  1512205104,0.0011,-0.0005,0.0000,-98.14,-99.12,900.88,3,0,3
  1512205104,-0.0012,0.0032,-0.0017,-101.75,-97.78,881.23,3,0,3
  1512205104,-0.0028,0.0020,-0.0007,-101.75,-100.89,892.21,3,0,3
  1512205104,-0.0056,-0.0009,-0.0033,-93.02,-96.19,905.52,0,17,20
  1512205104,-0.0023,0.0043,-0.0019,-105.35,-96.31,890.38,0,17,20
  1512205104,-0.0013,0.0035,-0.0013,-104.86,-94.30,895.45,0,17,20
  1512205104,-0.0032,0.0063,-0.0043,-103.64,-99.30,900.88,0,17,20
  1512205104,-0.0045,0.0032,-0.0004,-101.20,-96.98,899.48,3,-10,13
  1512205104,-0.0028,0.0016,-0.0011,-98.75,-99.67,901.67,3,-10,13
  1512205104,-0.0040,0.0028,0.0005,-102.91,-93.63,880.37,3,-10,13
  1512205104,-0.0008,-0.0011,0.0012,-98.27,-104.68,894.47,3,-10,13
  1512205104,0.0035,-0.0043,0.0028,-97.47,-98.27,916.08,3,-10,13
  1512205104,0.0001,-0.0020,0.0025,-103.76,-102.17,893.98,3,3,10
  1512205104,-0.0005,0.0028,0.0005,-109.01,-101.93,897.83,3,3,10
  1512205104,-0.0028,0.0001,-0.0015,-93.93,-98.33,906.74,3,3,10
  1512205104,-0.0019,0.0056,-0.0021,-103.21,-99.98,889.89,3,3,10
  1512205104,-0.0021,0.0051,-0.0012,-104.43,-99.37,891.85,-12,1,8
  1512205104,-0.0056,0.0027,-0.0035,-96.31,-97.35,896.06,-12,1,8
  1512205104,-0.0035,-0.0012,0.0007,-106.02,-100.95,888.43,-12,1,8
  1512205104,-0.0001,-0.0005,-0.0009,-101.32,-94.18,892.94,-12,1,8
  1512205104,-0.0024,-0.0021,-0.0021,-101.87,-94.73,887.08,-12,1,8
  1512205105,-0.0015,-0.0012,-0.0003,-101.56,-102.42,899.60,3,-7,0
  1512205105,-0.0009,-0.0025,0.0005,-90.03,-94.12,919.56,3,-7,0
  1512205105,-0.0039,0.0008,-0.0023,-99.98,-94.30,892.15,3,-7,0
  1512205105,-0.0019,0.0007,-0.0007,-97.66,-100.22,890.69,3,-7,0
  1512205105,-0.0052,0.0003,-0.0019,-94.97,-102.78,904.36,3,-7,0
  1512205105,-0.0019,0.0020,0.0007,-100.10,-99.61,900.15,1,-5,11
  1512205105,-0.0031,0.0044,0.0000,-99.43,-99.67,898.07,1,-5,11
  1512205105,-0.0028,-0.0001,-0.0008,-101.44,-100.46,889.83,1,-5,11
  1512205105,-0.0011,0.0020,0.0011,-100.89,-105.47,896.00,1,-5,11
  1512205105,-0.0012,0.0012,0.0005,-98.02,-95.46,909.61,0,3,6
  1512205105,-0.0031,0.0025,-0.0003,-103.39,-96.44,887.27,0,3,6
  1512205105,-0.0044,0.0029,-0.0009,-101.68,-102.54,895.81,0,3,6
  1512205105,-0.0031,-0.0025,-0.0019,-92.71,-94.54,909.36,0,3,6
  1512205105,-0.0040,0.0048,-0.0025,-100.71,-99.49,882.39,0,3,6
  1512205105,-0.0040,0.0044,0.0001,-103.64,-91.67,893.19,-12,5,1
  1512205105,-0.0052,0.0017,-0.0016,-97.72,-97.05,896.24,-12,5,1
  1512205105,-0.0031,0.0007,0.0008,-98.75,-101.26,891.60,-12,5,1
  1512205105,-0.0021,0.0008,-0.0004,-98.94,-96.56,896.18,-12,5,1
  1512205105,-0.0028,0.0025,-0.0007,-103.45,-97.53,876.16,-12,5,1
  1512205105,-0.0012,0.0009,0.0007,-100.77,-104.92,896.48,5,-8,1
  1512205105,-0.0012,0.0005,0.0013,-97.78,-98.27,911.74,5,-8,1
  1512205105,-0.0016,0.0024,0.0000,-102.66,-96.13,891.54,5,-8,1
  1512205105,-0.0028,0.0028,-0.0004,-99.30,-95.40,896.00,5,-8,1
  1512205105,-0.0011,-0.0007,-0.0004,-97.17,-101.07,913.27,8,-8,-1
  1512205105,-0.0011,0.0025,-0.0003,-101.99,-95.58,889.16,8,-8,-1
  1512205105,-0.0009,0.0021,-0.0003,-101.38,-98.27,899.11,8,-8,-1
  1512205105,-0.0043,-0.0011,-0.0015,-94.42,-95.34,907.47,8,-8,-1
  1512205105,-0.0032,0.0001,0.0001,-99.98,-104.80,895.02,8,-8,-1
  1512205105,-0.0003,-0.0003,0.0005,-99.06,-94.48,902.95,12,1,-5
  1512205105,-0.0045,0.0035,-0.0025,-99.73,-105.04,880.86,12,1,-5
  1512205105,-0.0035,0.0019,-0.0015,-104.00,-104.68,896.24,12,1,-5
  1512205105,-0.0021,0.0007,0.0019,-94.85,-98.63,905.46,12,1,-5
  1512205105,-0.0017,0.0025,0.0005,-100.89,-95.64,892.09,-3,7,-13
  1512205105,0.0011,-0.0001,0.0012,-102.36,-102.23,892.76,-3,7,-13
  1512205105,0.0000,-0.0001,0.0009,-98.33,-98.21,905.21,-3,7,-13
  1512205105,-0.0013,0.0007,0.0000,-104.74,-98.02,885.25,-3,7,-13
  1512205105,-0.0012,0.0028,0.0004,-98.88,-101.07,893.80,-3,7,-13
  1512205106,-0.0007,-0.0016,0.0008,-92.65,-97.11,916.44,10,0,0
  1512205106,-0.0031,0.0033,-0.0008,-101.01,-99.67,886.54,10,0,0
  1512205106,-0.0041,0.0033,0.0005,-101.32,-97.53,893.19,10,0,0
  1512205106,-0.0029,0.0003,-0.0021,-95.28,-97.35,906.31,10,0,0
  1512205106,-0.0024,-0.0005,0.0001,-100.77,-100.52,897.34,10,0,0
  1512205106,0.0000,-0.0003,-0.0004,-95.70,-93.51,902.22,-5,8,1
  1512205106,-0.0032,-0.0005,-0.0009,-97.72,-101.93,889.95,-5,8,1
  1512205106,-0.0009,0.0004,-0.0007,-100.52,-103.64,896.00,-5,8,1
  1512205106,-0.0008,-0.0005,-0.0017,-96.25,-96.98,914.67,-5,8,1
  1512205106,-0.0035,0.0016,-0.0017,-101.87,-99.06,891.66,-1,1,8
  1512205106,-0.0029,0.0020,-0.0001,-102.48,-102.36,892.15,-1,1,8
  1512205106,0.0000,0.0004,-0.0015,-96.13,-98.08,905.09,-1,1,8
  1512205106,-0.0035,0.0040,-0.0004,-101.99,-99.30,885.25,-1,1,8
  1512205106,-0.0025,0.0044,-0.0008,-104.37,-103.39,889.83,-1,1,8
  1512205106,-0.0031,0.0015,-0.0004,-99.61,-94.54,899.66,5,8,5
  1512205106,-0.0005,0.0008,0.0017,-103.82,-98.82,895.94,5,8,5
  1512205106,-0.0007,0.0008,-0.0003,-103.27,-96.19,897.28,5,8,5
  1512205106,-0.0016,0.0000,-0.0004,-105.16,-100.10,883.85,5,8,5
  1512205106,-0.0013,0.0001,0.0008,-101.62,-101.07,896.12,12,-1,8
  1512205106,0.0012,-0.0003,-0.0008,-95.64,-95.95,911.25,12,-1,8
  1512205106,-0.0025,0.0027,-0.0017,-105.10,-94.97,878.54,12,-1,8
  1512205106,-0.0039,0.0032,0.0011,-105.04,-102.84,891.91,12,-1,8
  1512205106,-0.0059,0.0005,-0.0021,-96.25,-101.20,902.28,12,-1,8
  1512205106,0.0000,0.0036,0.0000,-96.68,-95.76,894.78,5,-1,5
  1512205106,-0.0007,0.0009,0.0000,-98.82,-96.86,898.01,5,-1,5
  1512205106,-0.0015,0.0009,-0.0005,-102.91,-99.43,881.77,5,-1,5
  1512205106,-0.0021,-0.0001,-0.0007,-104.00,-100.59,888.12,5,-1,5
  1512205106,-0.0012,0.0001,0.0000,-97.78,-96.01,905.40,5,-1,5
  1512205106,-0.0021,0.0020,-0.0019,-102.36,-96.74,892.21,-3,7,-3
  1512205106,-0.0028,0.0025,-0.0003,-103.70,-102.97,889.34,-3,7,-3
  1512205106,-0.0017,-0.0009,-0.0008,-95.70,-97.47,903.81,-3,7,-3
  1512205106,-0.0021,0.0028,-0.0001,-99.73,-92.35,887.39,-3,7,-3
  1512205106,-0.0029,0.0040,-0.0007,-102.17,-104.00,897.77,-5,-5,11
  1512205106,-0.0043,0.0016,-0.0011,-98.08,-96.80,898.56,-5,-5,11
  1512205106,-0.0023,0.0020,0.0004,-100.77,-99.61,890.26,-5,-5,11
  1512205106,-0.0017,0.0052,0.0009,-103.21,-102.91,892.03,-5,-5,11
  1512205106,-0.0035,0.0007,-0.0023,-97.41,-97.72,890.50,-5,-5,11
  1512205106,-0.0008,-0.0011,0.0000,-100.04,-103.15,894.96,-7,3,-3
  1512205107,-0.0004,0.0001,0.0015,-99.18,-99.55,895.75,-7,3,-3
  1512205107,-0.0005,0.0023,0.0005,-98.51,-97.29,885.93,-7,3,-3
  1512205107,-0.0028,0.0033,0.0011,-103.15,-105.41,890.69,-7,3,-3
  1512205107,-0.0011,0.0005,0.0007,-98.39,-98.45,910.77,-7,3,-3
  1512205107,-0.0025,0.0013,-0.0004,-103.39,-97.23,887.39,-1,1,1
  1512205107,-0.0013,0.0025,0.0001,-100.10,-100.04,893.55,-1,1,1
  1512205107,-0.0004,-0.0005,-0.0012,-95.64,-96.31,898.50,-1,1,1
  1512205107,0.0001,0.0008,-0.0008,-105.22,-98.21,888.12,-1,1,1
  1512205107,-0.0036,0.0029,-0.0019,-97.60,-97.90,899.84,-5,1,11
  1512205107,-0.0037,0.0007,-0.0021,-101.87,-97.72,890.93,-5,1,11
  1512205107,-0.0020,0.0008,0.0005,-97.84,-104.37,894.59,-5,1,11
  1512205107,-0.0015,0.0015,0.0005,-98.63,-98.08,901.98,-5,1,11
  1512205107,-0.0009,0.0025,-0.0003,-101.26,-97.78,882.39,-5,1,11
  1512205107,-0.0023,0.0015,-0.0017,-102.42,-106.93,895.87,-12,-1,5
  1512205107,0.0000,-0.0001,0.0011,-96.13,-93.51,903.93,-12,-1,5
  1512205107,-0.0017,0.0020,0.0003,-100.83,-99.98,887.51,-12,-1,5
  1512205107,-0.0011,0.0005,0.0005,-104.31,-99.06,893.43,-12,-1,5
  1512205107,-0.0013,-0.0024,-0.0007,-96.98,-100.34,913.39,-12,-1,5
  1512205107,-0.0003,-0.0001,0.0004,-102.66,-91.49,894.41,-3,-3,16
  1512205107,-0.0007,0.0015,0.0005,-96.50,-97.96,899.60,-3,-3,16
  1512205107,-0.0016,-0.0019,-0.0004,-100.40,-97.78,905.40,-3,-3,16
  1512205107,-0.0007,-0.0001,-0.0007,-99.24,-100.52,897.83,-3,-3,16
  1512205107,-0.0017,0.0001,0.0000,-96.80,-95.95,906.62,-1,1,15
  1512205107,-0.0039,-0.0003,-0.0020,-100.52,-98.02,899.41,-1,1,15
  1512205107,0.0003,0.0011,0.0003,-97.60,-102.91,891.97,-1,1,15
  1512205107,0.0001,0.0008,0.0001,-96.98,-97.60,908.20,-1,1,15
  1512205107,-0.0031,0.0023,-0.0016,-96.01,-98.33,889.95,-1,1,15
  1512205107,-0.0023,0.0027,-0.0007,-93.81,-103.70,896.55,24,10,0
  1512205107,-0.0013,0.0004,0.0009,-87.89,-97.66,899.11,24,10,0
  1512205107,-0.0016,0.0013,0.0004,-105.10,-104.92,889.89,24,10,0
  1512205107,0.0015,0.0024,-0.0004,-96.68,-104.06,893.68,24,10,0
  1512205107,-0.0001,-0.0008,-0.0004,-95.89,-104.61,904.85,-15,5,15
  1512205107,0.0015,0.0017,0.0011,-101.14,-94.85,898.50,-15,5,15
  1512205107,-0.0011,0.0024,0.0003,-103.82,-103.70,888.31,-15,5,15
  1512205107,-0.0051,-0.0019,-0.0029,-95.03,-93.51,906.80,-15,5,15
  1512205107,-0.0020,0.0001,0.0008,-103.09,-95.64,891.60,-15,5,15
  1512205107,-0.0020,0.0016,-0.0009,-100.16,-98.63,898.86,15,8,5
  1512205107,-0.0059,0.0031,0.0000,-101.20,-99.37,890.81,15,8,5
  1512205108,-0.0024,0.0015,-0.0003,-97.60,-103.52,902.10,15,8,5
  1512205108,-0.0020,0.0004,-0.0012,-97.60,-99.24,919.01,15,8,5
  1512205108,-0.0061,0.0028,-0.0009,-99.73,-97.17,888.55,15,8,5
  1512205108,-0.0031,0.0019,0.0003,-103.76,-103.70,890.38,5,-8,8
  1512205108,-0.0043,-0.0003,-0.0001,-103.64,-98.14,906.68,5,-8,8
  1512205108,0.0013,-0.0011,-0.0001,-102.48,-98.63,896.85,5,-8,8
  1512205108,-0.0004,0.0032,0.0007,-103.70,-102.29,891.24,5,-8,8
  1512205108,-0.0013,-0.0031,-0.0003,-93.38,-95.15,907.96,0,0,6
  1512205108,0.0004,0.0016,-0.0001,-101.50,-105.16,890.75,0,0,6
  1512205108,-0.0021,0.0049,0.0009,-99.24,-97.11,889.59,0,0,6
  1512205108,-0.0019,0.0020,-0.0008,-100.46,-97.66,884.22,0,0,6
  1512205108,-0.0040,0.0015,0.0000,-104.74,-105.35,893.25,0,0,6
  1512205108,-0.0016,0.0005,0.0005,-98.57,-96.50,905.40,7,7,0
  1512205108,-0.0025,-0.0020,-0.0004,-102.66,-96.19,894.96,7,7,0
  1512205108,-0.0016,0.0011,0.0004,-104.49,-106.32,894.59,7,7,0
  1512205108,-0.0012,-0.0016,-0.0007,-97.35,-99.12,908.26,7,7,0
  1512205108,-0.0027,0.0024,-0.0017,-101.20,-98.69,886.05,7,7,0
  1512205108,-0.0049,0.0036,-0.0011,-99.24,-102.60,893.55,-7,3,3
  1512205108,-0.0047,0.0009,-0.0015,-98.57,-99.91,893.13,-7,3,3
  1512205108,-0.0007,0.0011,-0.0011,-97.90,-103.15,894.84,-7,3,3
  1512205108,-0.0013,0.0008,0.0012,-99.98,-101.50,895.94,-7,3,3
  1512205108,-0.0016,-0.0003,-0.0011,-98.88,-100.59,893.25,-5,5,5
  1512205108,-0.0008,0.0021,0.0004,-101.07,-105.22,896.55,-5,5,5
  1512205108,-0.0005,0.0008,-0.0005,-92.29,-99.18,908.57,-5,5,5
  1512205108,-0.0024,0.0021,-0.0001,-104.00,-95.95,887.02,-5,5,5
  1512205108,-0.0020,0.0041,0.0016,-99.37,-102.91,889.28,-5,5,5
  1512205108,-0.0032,0.0004,-0.0005,-93.02,-93.99,913.39,-7,7,0
  1512205108,-0.0015,0.0017,-0.0005,-104.31,-92.96,888.92,-7,7,0
  1512205108,-0.0017,0.0004,0.0007,-104.86,-99.91,890.44,-7,7,0
  1512205108,-0.0023,-0.0013,-0.0011,-101.38,-98.57,886.78,-7,7,0
  1512205108,-0.0027,-0.0005,0.0017,-100.95,-100.16,900.82,-7,7,0
  1512205108,-0.0039,0.0024,-0.0013,-97.47,-102.29,893.43,29,19,-52
  1512205108,-0.0060,0.0023,-0.0037,-101.75,-97.11,892.03,29,19,-52
  1512205108,-0.0025,0.0011,-0.0003,-99.91,-110.47,901.00,29,19,-52
  1512205108,0.0005,0.0041,-0.0011,-109.19,-111.02,911.19,29,19,-52
  1512205108,-0.0025,0.0053,-0.0004,-111.27,-94.60,888.55,22,22,-35
  1512205108,-0.0013,0.0024,0.0011,-109.13,-104.06,901.00,22,22,-35
  1512205108,-0.0001,0.0013,0.0003,-90.70,-96.98,898.86,22,22,-35
  1512205109,-0.0004,-0.0029,-0.0003,-97.11,-94.60,860.29,22,22,-35
  1512205109,0.0020,0.0040,0.0017,-107.60,-96.13,882.45,22,22,-35
  1512205109,-0.0023,-0.0025,0.0003,-95.89,-87.28,914.55,-14,-14,-20
  1512205109,-0.0017,-0.0008,-0.0019,-115.60,-116.39,900.63,-14,-14,-20
  1512205109,-0.0092,-0.0015,-0.0021,-96.13,-125.55,886.11,-14,-14,-20
  1512205109,-0.0077,0.0008,-0.0029,-95.64,-99.79,893.74,-14,-14,-20
  1512205109,-0.0019,0.0028,-0.0015,-107.30,-112.12,904.24,-5,-8,-11
  1512205109,-0.0007,-0.0004,-0.0004,-95.83,-98.88,925.60,-5,-8,-11
  1512205109,-0.0013,0.0037,-0.0008,-103.94,-100.83,886.35,-5,-8,-11
  1512205109,-0.0013,-0.0007,0.0003,-100.52,-104.00,897.83,-5,-8,-11
  1512205109,-0.0005,-0.0020,0.0007,-96.13,-99.24,910.71,-5,-8,-11
  1512205109,-0.0120,-0.0020,-0.0028,-100.28,-136.72,973.75,1,8,-5
  1512205109,0.0011,0.0028,0.0016,-95.70,-85.75,871.40,1,8,-5
  1512205109,-0.0049,-0.0051,-0.0004,-83.37,-92.16,898.38,1,8,-5
  1512205109,-0.0019,0.0037,0.0001,-102.97,-100.65,881.23,1,8,-5
  1512205109,-0.0017,0.0039,-0.0011,-98.21,-93.99,911.38,1,8,-5
  1512205109,-0.0017,0.0063,-0.0029,-107.54,-103.94,875.73,-3,-7,-10
  1512205109,-0.0083,0.0025,-0.0007,-98.21,-105.04,900.33,-3,-7,-10
  1512205109,-0.0040,-0.0008,-0.0025,-90.09,-101.99,913.33,-3,-7,-10
  1512205109,-0.0012,0.0028,-0.0004,-112.73,-106.38,889.28,-3,-7,-10
  1512205109,0.0008,0.0015,-0.0001,-98.57,-95.21,896.85,7,-3,-6
  1512205109,0.0003,-0.0024,0.0001,-93.87,-95.15,900.15,7,-3,-6
  1512205109,-0.0007,-0.0005,0.0008,-101.81,-103.52,899.29,7,-3,-6
  1512205109,-0.0028,-0.0009,0.0004,-90.70,-93.51,911.68,7,-3,-6
  1512205109,-0.0039,0.0059,-0.0008,-104.80,-99.37,875.00,7,-3,-6
  1512205109,-0.0043,0.0019,-0.0016,-102.11,-97.66,901.49,5,-5,5
  1512205109,-0.0075,-0.0037,-0.0028,-92.90,-96.74,915.83,5,-5,5
  1512205109,-0.0024,0.0023,0.0004,-107.36,-107.79,899.11,5,-5,5
  1512205109,0.0028,0.0003,0.0012,-97.23,-94.85,912.78,5,-5,5
  1512205109,-0.0011,0.0005,-0.0008,-109.07,-101.20,874.57,5,-5,5
  1512205109,-0.0023,0.0000,0.0000,-99.24,-108.22,896.55,-3,-7,-16
  1512205109,-0.0035,-0.0028,-0.0004,-87.59,-99.73,921.63,-3,-7,-16
  1512205109,-0.0005,0.0039,0.0004,-101.99,-103.09,893.80,-3,-7,-16
  1512205109,-0.0017,0.0008,-0.0001,-100.59,-102.42,892.64,-3,-7,-16
  1512205109,-0.0024,-0.0016,-0.0009,-96.92,-101.75,906.56,-1,-1,-8
  1512205109,0.0004,0.0008,0.0004,-104.68,-107.54,894.59,-1,-1,-8
  1512205109,0.0023,0.0041,0.0008,-105.83,-101.93,894.04,-1,-1,-8
  1512205110,-0.0017,-0.0016,-0.0012,-105.83,-98.75,894.41,-1,-1,-8
  1512205110,-0.0025,0.0003,0.0009,-102.91,-110.29,893.68,-1,-1,-8
  1512205110,-0.0023,0.0044,0.0013,-111.21,-121.83,889.77,3,-3,3
  1512205110,-0.0055,-0.0021,-0.0015,-102.60,-111.08,906.92,3,-3,3
  1512205110,-0.0060,0.0029,-0.0004,-106.75,-120.73,877.14,3,-3,3
  1512205110,-0.0044,0.0025,0.0001,-111.02,-143.13,893.01,3,-3,3
  1512205110,-0.0053,0.0017,-0.0025,-102.72,-130.49,898.25,3,-3,3
  1512205110,-0.0068,0.0040,-0.0008,-109.68,-130.55,888.18,8,-8,8
  1512205110,-0.0045,0.0024,-0.0005,-111.27,-147.46,896.24,8,-8,8
  1512205110,-0.0028,-0.0001,-0.0015,-110.78,-146.42,901.49,8,-8,8
  1512205110,-0.0047,0.0025,-0.0008,-114.32,-139.71,895.26,8,-8,8
  1512205110,-0.0061,0.0028,0.0007,-117.00,-150.39,889.89,5,8,-11
  1512205110,-0.0056,0.0027,-0.0004,-119.51,-165.16,895.14,5,8,-11
  1512205110,-0.0041,0.0003,0.0003,-116.46,-145.39,917.97,5,8,-11
  1512205110,-0.0049,0.0045,0.0004,-118.84,-146.06,885.86,5,8,-11
  1512205110,-0.0041,0.0035,0.0011,-123.11,-160.03,889.04,5,8,-11
  1512205110,-0.0036,0.0017,-0.0003,-117.07,-161.19,901.67,1,-8,-11
  1512205110,-0.0020,0.0000,-0.0012,-119.93,-151.73,898.80,1,-8,-11
  1512205110,-0.0024,0.0023,-0.0011,-120.85,-160.64,888.73,1,-8,-11
  1512205110,-0.0016,0.0016,0.0008,-117.13,-176.39,892.15,1,-8,-11
  1512205110,-0.0040,-0.0037,-0.0003,-120.06,-159.12,921.20,1,-8,-11
  1512205110,-0.0033,-0.0007,0.0025,-122.31,-157.17,901.43,1,12,1
  1512205110,-0.0056,0.0016,0.0031,-123.29,-178.59,891.97,1,12,1
  1512205110,-0.0031,0.0007,0.0033,-120.61,-174.26,900.21,1,12,1
  1512205110,-0.0035,-0.0012,0.0036,-121.70,-162.72,916.56,1,12,1
  1512205110,-0.0037,-0.0004,0.0020,-122.01,-163.51,890.26,-8,1,1
  1512205110,-0.0023,-0.0011,0.0032,-121.89,-160.95,887.15,-8,1,1
  1512205110,0.0008,0.0001,0.0040,-116.70,-149.90,890.14,-8,1,1
  1512205110,-0.0015,-0.0024,0.0024,-112.37,-139.77,912.60,-8,1,1
  1512205110,0.0016,0.0033,0.0037,-112.18,-155.52,891.30,-8,1,1
  1512205110,-0.0037,0.0037,0.0012,-107.91,-164.55,886.84,1,1,8
  1512205110,-0.0049,0.0017,0.0028,-112.24,-156.25,914.92,1,1,8
  1512205110,-0.0087,0.0041,0.0011,-117.31,-158.63,895.51,1,1,8
  1512205110,-0.0045,0.0029,0.0031,-129.76,-171.87,884.16,1,1,8
  1512205110,-0.0015,0.0007,0.0071,-122.80,-160.71,903.32,-1,-1,-5
  1512205110,-0.0015,-0.0029,0.0043,-124.08,-147.95,920.10,-1,-1,-5
  1512205110,-0.0003,0.0031,0.0076,-126.16,-152.04,888.61,-1,-1,-5
  1512205110,-0.0009,-0.0023,0.0060,-117.80,-161.44,886.17,-1,-1,-5
  1512205111,0.0009,-0.0012,0.0069,-110.11,-139.34,909.24,-1,-1,-5
  1512205111,-0.0017,-0.0015,0.0037,-119.20,-143.86,896.61,3,-3,-3
  1512205111,-0.0023,-0.0023,0.0036,-116.70,-167.66,892.21,3,-3,-3
  1512205111,-0.0009,0.0003,0.0035,-113.65,-159.61,905.40,3,-3,-3
  1512205111,-0.0069,-0.0017,0.0020,-119.08,-159.97,907.23,3,-3,-3
  1512205111,-0.0053,-0.0019,0.0043,-116.09,-162.41,900.02,3,-3,-3
  1512205111,-0.0011,-0.0003,0.0057,-116.94,-168.09,896.79,-14,7,-6
  1512205111,-0.0005,-0.0020,0.0063,-110.53,-150.82,907.47,-14,7,-6
  1512205111,-0.0012,0.0000,0.0059,-121.95,-145.39,889.59,-14,7,-6
  1512205111,0.0012,-0.0003,0.0065,-118.16,-165.10,889.71,-14,7,-6
  1512205111,0.0048,-0.0024,0.0063,-108.95,-143.19,911.56,5,-1,-1
  1512205111,0.0015,-0.0015,0.0035,-120.97,-143.74,900.82,5,-1,-1
  1512205111,-0.0016,0.0036,0.0059,-126.59,-166.14,891.11,5,-1,-1
  1512205111,0.0009,0.0004,0.0075,-120.42,-151.49,902.34,5,-1,-1
  1512205111,-0.0049,-0.0011,0.0047,-119.08,-151.25,909.12,5,-1,-1
  1512205111,-0.0020,0.0055,0.0049,-125.18,-157.65,891.66,1,-8,8
  1512205111,0.0000,0.0061,0.0065,-115.97,-159.18,874.27,1,-8,8
  1512205111,-0.0015,-0.0008,0.0073,-106.87,-150.45,918.27,1,-8,8
  1512205111,-0.0015,-0.0011,0.0077,-123.35,-143.37,892.15,1,-8,8
  1512205111,-0.0020,-0.0028,0.0075,-112.98,-157.84,897.03,1,-8,8
  1512205111,0.0005,-0.0021,0.0085,-100.16,-142.94,924.07,10,0,0
  1512205111,-0.0072,0.0017,0.0061,-113.77,-140.20,903.50,10,0,0
  1512205111,-0.0039,0.0047,0.0057,-121.46,-162.48,878.72,10,0,0
  1512205111,-0.0027,0.0023,0.0064,-118.90,-151.55,887.88,10,0,0
  1512205111,-0.0060,-0.0013,0.0076,-116.58,-135.68,901.55,-5,-1,1
  1512205111,-0.0011,0.0033,0.0075,-128.85,-156.56,886.05,-5,-1,1
  1512205111,0.0032,0.0039,0.0065,-112.92,-147.09,875.12,-5,-1,1
  1512205111,0.0012,0.0004,0.0063,-105.65,-142.82,894.04,-5,-1,1
  1512205111,-0.0027,-0.0019,0.0068,-112.67,-150.45,870.85,-5,-1,1
  1512205111,0.0011,-0.0049,0.0096,-113.16,-161.38,883.24,1,-1,5
  1512205111,-0.0031,-0.0138,0.0121,-114.50,-151.61,908.87,1,-1,5
  1512205111,-0.0011,-0.0121,0.0132,-106.26,-153.08,891.17,1,-1,5
  1512205111,0.0005,-0.0111,0.0146,-110.66,-165.95,887.63,1,-1,5
  1512205111,-0.0060,-0.0128,0.0161,-94.85,-155.09,924.87,1,-1,5
  1512205111,-0.0083,-0.0076,0.0157,-98.75,-144.10,893.62,8,8,1
  1512205111,-0.0028,-0.0048,0.0178,-103.88,-154.85,910.95,8,8,1
  1512205111,0.0031,-0.0012,0.0188,-101.62,-152.04,915.41,8,8,1
  1512205111,-0.0063,-0.0092,0.0141,-104.49,-146.24,905.46,8,8,1
  1512205112,-0.0024,0.0000,0.0280,-94.06,-144.78,882.14,7,-3,10
  1512205112,0.0032,-0.0028,0.0316,-95.58,-156.19,899.05,7,-3,10
  1512205112,-0.0056,-0.0096,0.0350,-101.38,-138.98,910.58,7,-3,10
  1512205112,0.0005,-0.0041,0.0380,-96.56,-144.41,890.62,7,-3,10
  1512205112,0.0017,-0.0025,0.0382,-106.69,-182.25,889.59,7,-3,10
  1512205112,0.0052,-0.0040,0.0376,-105.59,-140.50,914.12,-17,0,-3
  1512205112,-0.0071,-0.0085,0.0366,-96.07,-157.17,926.39,-17,0,-3
  1512205112,-0.0057,-0.0035,0.0353,-96.50,-167.97,885.50,-17,0,-3
  1512205112,-0.0055,0.0013,0.0353,-104.31,-179.81,836.12,-17,0,-3
  1512205112,-0.0037,-0.0036,0.0373,-124.15,-195.50,871.95,0,-14,0
  1512205112,-0.0071,-0.0130,0.0344,-126.10,-195.62,931.95,0,-14,0
  1512205112,-0.0076,-0.0145,0.0341,-122.86,-216.43,946.78,0,-14,0
  1512205112,-0.0060,-0.0115,0.0362,-96.56,-193.73,935.12,0,-14,0
  1512205112,-0.0164,0.0055,0.0242,-110.66,-214.54,884.70,0,-14,0
  1512205112,-0.0144,-0.0127,0.0229,-128.48,-219.97,933.59,12,1,-1
  1512205112,-0.0197,-0.0015,0.0246,-120.18,-215.09,893.80,12,1,-1
  1512205112,-0.0238,0.0003,0.0304,-99.73,-225.16,885.50,12,1,-1
  1512205112,-0.0173,-0.0168,0.0368,-131.29,-238.22,930.05,12,1,-1
  1512205112,-0.0132,-0.0092,0.0403,-139.59,-241.15,938.60,12,1,-1
  1512205112,-0.0111,-0.0130,0.0413,-132.20,-234.56,954.71,-7,-17,-3
  1512205112,-0.0072,-0.0048,0.0473,-121.22,-239.20,929.81,-7,-17,-3
  1512205112,-0.0057,0.0008,0.0498,-125.85,-253.78,888.49,-7,-17,-3
  1512205112,-0.0128,0.0073,0.0489,-109.44,-259.16,863.95,-7,-17,-3
  1512205112,-0.0129,0.0040,0.0486,-112.00,-261.29,907.53,-14,-3,-3
  1512205112,-0.0127,0.0004,0.0494,-100.46,-257.81,911.07,-14,-3,-3
  1512205112,-0.0130,0.0049,0.0442,-104.74,-266.85,875.37,-14,-3,-3
  1512205112,-0.0081,0.0044,0.0407,-101.93,-269.71,885.56,-14,-3,-3
  1512205112,-0.0083,-0.0012,0.0478,-130.92,-242.43,909.36,-14,-3,-3
  1512205112,-0.0176,-0.0020,0.0566,-154.79,-261.66,903.38,-1,-1,-1
  1512205112,0.0033,-0.0005,0.0599,-133.42,-247.44,917.97,-1,-1,-1
  1512205112,-0.0101,-0.0005,0.0610,-127.50,-251.22,945.43,-1,-1,-1
  1512205112,-0.0024,-0.0036,0.0656,-150.76,-241.46,897.58,-1,-1,-1
  1512205112,-0.0028,0.0016,0.0659,-140.14,-233.40,873.29,-1,-1,-1
  1512205112,-0.0168,-0.0089,0.0636,-176.76,-259.95,899.78,-17,-10,-3
  1512205112,-0.0108,-0.0040,0.0672,-126.59,-237.67,866.39,-17,-10,-3
  1512205112,-0.0158,-0.0120,0.0650,-120.54,-270.14,930.11,-17,-10,-3
  1512205112,-0.0107,-0.0063,0.0639,-83.62,-240.11,896.06,-17,-10,-3
  1512205112,-0.0214,-0.0003,0.0630,-97.90,-252.93,905.76,-28,-7,-6
  1512205113,-0.0025,-0.0017,0.0666,-98.94,-237.67,893.62,-28,-7,-6
  1512205113,-0.0092,0.0005,0.0724,-102.36,-253.97,892.82,-28,-7,-6
  1512205113,0.0084,-0.0028,0.0759,-68.30,-233.95,908.57,-28,-7,-6
  1512205113,-0.0019,0.0024,0.0751,-108.40,-244.63,884.58,-28,-7,-6
  1512205113,-0.0075,-0.0024,0.0747,-102.78,-224.73,890.20,-17,3,3
  1512205113,-0.0144,-0.0130,0.0756,-115.97,-257.87,894.04,-17,3,3
  1512205113,-0.0087,-0.0138,0.0818,-113.53,-222.84,901.67,-17,3,3
  1512205113,-0.0113,-0.0081,0.0767,-131.35,-211.30,958.80,-17,3,3
  1512205113,-0.0039,-0.0001,0.0743,-136.47,-193.60,937.50,-31,7,6
  1512205113,-0.0124,0.0108,0.0708,-144.90,-195.86,875.67,-31,7,6
  1512205113,-0.0178,0.0252,0.0656,-109.37,-207.95,830.69,-31,7,6
  1512205113,-0.0141,0.0358,0.0635,-118.10,-212.77,854.43,-31,7,6
  1512205113,-0.0064,0.0161,0.0700,-101.68,-189.94,873.96,-31,7,6
  1512205113,-0.0031,0.0061,0.0694,-139.77,-218.44,939.27,-38,14,13
  1512205113,-0.0024,0.0005,0.0691,-146.00,-201.60,949.16,-38,14,13
  1512205113,0.0019,0.0067,0.0704,-167.72,-211.55,889.83,-38,14,13
  1512205113,-0.0075,-0.0119,0.0734,-132.26,-204.59,916.50,-38,14,13
  1512205113,-0.0204,0.0051,0.0703,-119.75,-221.86,855.16,-38,14,13
  1512205113,-0.0079,-0.0116,0.0621,-158.75,-191.47,961.12,-38,14,13
  1512205113,-0.0382,-0.0021,0.0585,-113.89,-207.95,951.11,-38,14,13
  1512205113,-0.0360,0.0019,0.0518,-87.71,-250.18,887.15,-38,14,13
  1512205113,-0.0350,-0.0178,0.0626,-115.23,-206.85,920.90,-38,14,13
  1512205113,-0.0218,-0.0136,0.0635,-161.13,-189.70,898.68,-36,19,1
  1512205113,-0.0446,-0.0276,0.0541,-112.85,-208.25,939.33,-36,19,1
  1512205113,-0.0253,-0.0198,0.0602,-128.60,-212.28,890.08,-36,19,1
  1512205113,-0.0370,-0.0174,0.0555,-78.12,-213.56,896.30,-36,19,1
  1512205113,-0.0317,-0.0130,0.0538,-40.34,-218.87,891.42,-36,19,1
  1512205113,-0.0345,-0.0249,0.0553,-43.58,-239.50,925.54,-26,-1,11
  1512205113,0.0041,-0.0152,0.0591,-142.58,-198.73,901.55,-26,-1,11
  1512205113,-0.0004,-0.0019,0.0525,-126.10,-190.31,887.21,-26,-1,11
  1512205113,-0.0039,0.0003,0.0527,-91.37,-165.89,946.29,-26,-1,11
  1512205113,-0.0016,-0.0125,0.0486,-108.15,-239.93,970.21,-7,7,37
  1512205113,-0.0031,-0.0019,0.0553,-131.59,-171.33,844.06,-7,7,37
  1512205113,-0.0067,0.0068,0.0482,-137.82,-218.93,864.81,-7,7,37
  1512205113,-0.0205,-0.0043,0.0380,-72.57,-236.08,915.10,-7,7,37
  1512205113,-0.0166,-0.0049,0.0406,-121.46,-223.21,908.87,-7,7,37
  1512205113,-0.0123,-0.0003,0.0393,-110.17,-219.42,922.61,-17,-7,6
  1512205114,-0.0144,-0.0009,0.0406,-124.27,-184.39,883.97,-17,-7,6
  1512205114,-0.0250,0.0079,0.0306,-114.26,-185.18,905.33,-17,-7,6
  1512205114,-0.0209,0.0120,0.0298,-132.93,-203.06,914.92,-17,-7,6
  1512205114,-0.0261,0.0130,0.0290,-109.07,-208.56,887.51,-17,-7,6
  1512205114,-0.0229,-0.0045,0.0341,-111.27,-187.62,936.65,-7,3,-6
  1512205114,-0.0218,-0.0123,0.0385,-137.63,-212.59,902.47,-7,3,-6
  1512205114,-0.0198,-0.0129,0.0364,-84.90,-195.37,909.24,-7,3,-6
  1512205114,-0.0104,-0.0028,0.0372,-101.68,-214.17,919.86,-7,3,-6
  1512205114,-0.0043,0.0044,0.0328,-83.86,-193.73,882.57,-7,3,-6
  1512205114,-0.0138,0.0064,0.0284,-123.66,-206.36,948.24,-5,-1,18
  1512205114,-0.0064,0.0188,0.0265,-118.47,-146.67,945.80,-5,-1,18
  1512205114,-0.0063,0.0178,0.0270,-173.71,-179.14,927.92,-5,-1,18
  1512205114,-0.0052,0.0181,0.0270,-150.21,-177.80,880.37,-5,-1,18
  1512205114,-0.0197,0.0072,0.0282,-115.48,-224.98,895.75,-10,-14,3
  1512205114,-0.0048,-0.0021,0.0369,-116.70,-193.54,899.66,-10,-14,3
  1512205114,-0.0057,-0.0017,0.0328,-158.63,-204.41,878.60,-10,-14,3
  1512205114,-0.0040,-0.0008,0.0312,-87.95,-184.51,892.82,-10,-14,3
  1512205114,-0.0053,-0.0063,0.0262,-96.37,-210.88,923.65,-10,-14,3
  1512205114,-0.0101,-0.0097,0.0265,-102.11,-182.31,920.17,-10,10,13
  1512205114,-0.0084,-0.0069,0.0257,-151.43,-201.29,909.97,-10,10,13
  1512205114,-0.0036,0.0085,0.0290,-93.87,-191.71,858.22,-10,10,13
  1512205114,-0.0136,0.0056,0.0254,-66.53,-222.96,843.87,-10,10,13
  1512205114,-0.0025,-0.0132,0.0256,-90.52,-198.97,927.31,-12,-5,-11
  1512205114,-0.0027,-0.0115,0.0276,-88.26,-204.16,917.30,-12,-5,-11
  1512205114,-0.0052,-0.0084,0.0278,-108.58,-174.38,933.35,-12,-5,-11
  1512205114,-0.0075,-0.0156,0.0260,-37.66,-217.29,945.62,-12,-5,-11
  1512205114,-0.0161,-0.0152,0.0302,-35.64,-200.62,906.01,-12,-5,-11
  1512205114,-0.0093,-0.0169,0.0280,-142.46,-215.70,984.80,-28,-3,3
  1512205114,-0.0188,-0.0306,0.0192,-85.39,-196.11,984.68,-28,-3,3
  1512205114,-0.0111,-0.0188,0.0317,-93.99,-164.18,1004.94,-28,-3,3
  1512205114,-0.0210,0.0166,0.0192,-82.28,-210.45,922.91,-28,-3,3
  1512205114,-0.0071,0.0120,0.0181,-110.35,-150.33,899.78,-28,-3,3
  1512205114,0.0019,0.0216,0.0202,-145.87,-155.88,867.92,-19,-8,1
  1512205114,-0.0116,0.0085,0.0224,-114.32,-197.20,841.06,-19,-8,1
  1512205114,-0.0089,-0.0023,0.0257,-85.02,-208.56,881.65,-19,-8,1
  1512205114,-0.0025,0.0032,0.0276,-53.28,-189.39,891.36,-19,-8,1
  1512205114,-0.0097,-0.0047,0.0257,-84.11,-178.83,906.86,-19,-8,-1
  1512205114,-0.0154,-0.0149,0.0241,-92.47,-199.10,876.16,-19,-8,-1
  1512205115,-0.0178,-0.0172,0.0250,-83.74,-208.01,878.23,-19,-8,-1
  1512205115,-0.0097,-0.0190,0.0226,-71.84,-165.71,1018.19,-19,-8,-1
  1512205115,0.0004,-0.0079,0.0274,-89.84,-165.47,971.74,-19,-8,-1
  1512205115,-0.0105,-0.0113,0.0210,-83.86,-177.37,943.18,-7,-7,0
  1512205115,-0.0035,-0.0088,0.0254,-129.39,-154.11,871.52,-7,-7,0
  1512205115,0.0017,-0.0085,0.0272,-135.07,-183.04,926.09,-7,-7,0
  1512205115,0.0061,-0.0144,0.0269,-77.09,-123.41,928.28,-7,-7,0
  1512205115,0.0017,-0.0064,0.0282,-110.47,-201.05,931.21,-7,-7,0
  1512205115,0.0132,-0.0264,0.0293,-111.02,-165.22,956.12,-24,-3,6
  1512205115,-0.0004,-0.0156,0.0365,-73.06,-178.28,923.22,-24,-3,6
  1512205115,0.0015,-0.0069,0.0358,-112.67,-170.59,947.75,-24,-3,6
  1512205115,0.0071,-0.0097,0.0354,-122.07,-185.85,941.71,-24,-3,6
  1512205115,0.0107,-0.0166,0.0422,-54.69,-169.86,963.44,-24,-7,-3
  1512205115,0.0025,-0.0142,0.0442,-41.63,-184.33,986.02,-24,-7,-3
  1512205115,-0.0100,-0.0056,0.0502,-18.13,-209.47,850.71,-24,-7,-3
  1512205115,-0.0148,-0.0274,0.0530,33.20,-198.55,859.68,-24,-7,-3
  1512205115,-0.0141,-0.0152,0.0597,32.47,-185.73,857.30,-24,-7,-3
  1512205115,-0.0067,-0.0064,0.0566,31.43,-190.80,853.88,-15,-15,8
  1512205115,-0.0172,-0.0023,0.0563,42.91,-185.67,825.20,-15,-15,8
  1512205115,-0.0216,-0.0112,0.0605,25.39,-217.71,870.42,-15,-15,8
  1512205115,-0.0184,-0.0081,0.0598,10.13,-224.61,827.76,-15,-15,8
  1512205115,-0.0170,0.0075,0.0688,5.07,-175.96,849.00,-15,-15,8
  1512205115,-0.0232,0.0130,0.0667,5.68,-251.46,885.01,-36,-22,-15
  1512205115,-0.0108,0.0056,0.0770,-26.98,-110.41,847.84,-36,-22,-15
  1512205115,-0.0164,0.0011,0.0771,-11.35,-222.35,937.01,-36,-22,-15
  1512205115,0.0093,0.0100,0.0851,-38.15,-166.20,932.50,-36,-22,-15
  1512205115,0.0024,0.0220,0.0884,-59.57,-157.90,913.88,-33,-19,-5
  1512205115,-0.0003,0.0136,0.0968,-68.66,-140.62,857.24,-33,-19,-5
  1512205115,-0.0081,0.0060,0.0983,-65.06,-177.49,889.53,-33,-19,-5
  1512205115,-0.0136,0.0079,0.1039,-24.60,-140.32,884.03,-33,-19,-5
  1512205115,-0.0181,-0.0161,0.1068,-26.86,-181.46,966.92,-33,-19,-5
  1512205115,-0.0043,-0.0146,0.1107,-86.73,-176.45,901.98,-43,-12,1
  1512205115,-0.0127,-0.0137,0.1157,-90.27,-190.43,913.76,-43,-12,1
  1512205115,-0.0181,-0.0116,0.1266,-99.06,-132.20,888.67,-43,-12,1
  1512205115,-0.0097,0.0067,0.1190,-10.19,-159.18,948.12,-43,-12,1
  1512205115,-0.0016,-0.0145,0.1333,-43.27,-129.76,978.82,-43,-12,1
  1512205115,-0.0234,-0.0213,0.1298,-49.07,-199.22,960.69,-17,-24,6
  1512205115,-0.0350,-0.0442,0.1409,7.57,-198.06,1013.92,-17,-24,6
  1512205116,-0.0069,-0.0228,0.1401,11.90,-179.57,951.35,-17,-24,6
  1512205116,-0.0216,-0.0258,0.1454,21.30,-230.04,967.04,-17,-24,6
  1512205116,-0.0064,-0.0164,0.1570,45.23,-197.39,815.31,-24,-21,10
  1512205116,-0.0158,-0.0216,0.1615,27.22,-195.80,919.19,-24,-21,10
  1512205116,-0.0003,-0.0160,0.1742,-25.88,-188.17,959.66,-24,-21,10
  1512205116,0.0119,0.0071,0.1694,54.26,-180.11,895.94,-24,-21,10
  1512205116,-0.0013,0.0202,0.1660,46.94,-176.70,854.43,-24,-21,10
  1512205116,-0.0112,-0.0011,0.1683,49.44,-196.41,924.26,-40,-22,-18
  1512205116,0.0061,0.0101,0.1695,35.95,-206.12,916.93,-40,-22,-18
  1512205116,0.0140,0.0165,0.1774,23.32,-170.65,920.53,-40,-22,-18
  1512205116,-0.0023,0.0310,0.1758,57.31,-180.91,851.44,-40,-22,-18
  1512205116,-0.0091,0.0329,0.1788,87.65,-190.49,857.91,-43,-22,-1
  1512205116,0.0001,0.0286,0.1760,131.10,-187.62,887.94,-43,-22,-1
  1512205116,-0.0059,0.0490,0.1754,62.38,-201.23,915.16,-43,-22,-1
  1512205116,-0.0068,0.0875,0.1799,42.97,-159.00,867.80,-43,-22,-1
  1512205116,-0.0188,0.0666,0.1764,-3.17,-172.61,833.98,-43,-22,-1
  1512205116,-0.0397,0.0389,0.1855,-9.28,-162.90,790.04,-47,-29,-11
  1512205116,-0.0354,0.0184,0.1899,-18.98,-169.19,849.91,-47,-29,-11
  1512205116,-0.0268,0.0176,0.1715,-38.09,-164.00,909.06,-47,-29,-11
  1512205116,-0.0116,0.0337,0.1879,2.62,-142.33,870.79,-47,-29,-11
  1512205116,-0.0214,0.0245,0.1776,9.03,-218.87,836.73,-47,-29,-11
  1512205116,-0.0140,0.0225,0.1823,-26.86,-182.98,852.36,-54,-22,-11
  1512205116,-0.0278,-0.0021,0.1802,-5.80,-189.51,842.71,-54,-22,-11
  1512205116,-0.0387,-0.0209,0.1846,-2.69,-181.21,854.31,-54,-22,-11
  1512205116,-0.0509,-0.0349,0.1886,3.48,-177.80,876.53,-54,-22,-11
  1512205116,-0.0373,-0.0221,0.1953,46.39,-173.71,901.67,-59,-28,-6
  1512205116,-0.0293,-0.0305,0.1972,6.90,-168.58,906.49,-59,-28,-6
  1512205116,0.0013,-0.0134,0.1995,37.54,-166.63,931.88,-59,-28,-6
  1512205116,-0.0048,-0.0024,0.1948,43.58,-180.66,924.26,-59,-28,-6
  1512205116,-0.0121,-0.0242,0.1940,52.49,-154.42,979.49,-59,-28,-6
  1512205116,-0.0028,-0.0123,0.1980,33.51,-118.65,1015.62,-66,-38,-23
  1512205116,-0.0021,0.0153,0.2024,-24.66,-118.35,990.23,-66,-38,-23
  1512205116,0.0071,0.0152,0.2036,-48.03,-174.99,1013.43,-66,-38,-23
  1512205116,0.0117,0.0422,0.1996,-28.14,-196.29,922.55,-66,-38,-23
  1512205116,-0.0208,0.0377,0.1999,2.56,-213.87,888.55,-66,-38,-23
  1512205116,0.0032,0.0362,0.2028,25.88,-181.52,942.08,-77,-28,-13
  1512205116,0.0338,0.0439,0.2012,-26.61,-114.20,909.24,-77,-28,-13
  1512205116,0.0177,0.0224,0.2021,-52.37,-182.56,957.52,-77,-28,-13
  1512205117,0.0237,0.0093,0.2012,-12.15,-138.49,943.79,-77,-28,-13
  1512205117,0.0124,0.0125,0.2084,34.91,-154.66,973.02,-73,-31,-10
  1512205117,0.0249,0.0250,0.1935,6.23,-137.82,892.09,-73,-31,-10
  1512205117,0.0093,0.0312,0.2001,27.83,-159.36,955.99,-73,-31,-10
  1512205117,0.0146,0.0148,0.2059,-26.55,-167.85,972.90,-73,-31,-10
  1512205117,-0.0176,-0.0035,0.2023,48.83,-212.22,870.61,-73,-31,-10
  1512205117,-0.0217,-0.0164,0.2137,-49.80,-154.17,889.83,-80,-28,-16
  1512205117,-0.0242,-0.0192,0.2148,18.43,-162.72,962.04,-80,-28,-16
  1512205117,-0.0402,-0.0165,0.2117,28.87,-200.68,946.17,-80,-28,-16
  1512205117,-0.0326,-0.0182,0.2170,44.07,-142.88,961.06,-80,-28,-16
  1512205117,-0.0385,-0.0268,0.2037,60.30,-185.91,977.48,-80,-28,-16
  1512205117,-0.0402,-0.0174,0.2073,71.47,-192.81,917.97,-87,-56,-16
  1512205117,-0.0557,-0.0378,0.2136,73.55,-212.10,878.48,-87,-56,-16
  1512205117,-0.0196,-0.0099,0.2177,10.31,-194.70,888.37,-87,-56,-16
  1512205117,0.0043,0.0123,0.2210,89.60,-194.15,862.61,-87,-56,-16
  1512205117,0.0013,0.0052,0.2188,70.62,-191.89,934.14,-86,-33,1
  1512205117,0.0120,0.0096,0.2256,46.51,-158.69,929.69,-86,-33,1
  1512205117,0.0133,0.0045,0.2285,30.40,-188.35,953.74,-86,-33,1
  1512205117,0.0332,0.0173,0.2242,-16.24,-162.48,929.99,-86,-33,1
  1512205117,0.0037,0.0284,0.2229,6.71,-181.15,891.42,-86,-33,1
  1512205117,0.0027,0.0266,0.2190,-1.10,-174.99,896.42,-100,-40,-25
  1512205117,0.0020,-0.0012,0.2198,-7.57,-179.87,916.08,-100,-40,-25
  1512205117,-0.0088,-0.0036,0.2200,31.07,-172.42,892.27,-100,-40,-25
  1512205117,-0.0084,0.0089,0.2192,37.05,-184.75,844.42,-100,-40,-25
  1512205117,-0.0138,0.0029,0.2072,12.02,-202.21,916.56,-100,-40,-25
  1512205117,-0.0116,0.0146,0.2036,49.07,-231.57,929.99,-93,-40,-32
  1512205117,-0.0005,-0.0055,0.2184,17.58,-171.94,972.11,-93,-40,-32
  1512205117,-0.0104,-0.0076,0.2161,40.47,-174.32,944.34,-93,-40,-32
  1512205117,-0.0029,-0.0197,0.2229,46.33,-139.10,944.03,-93,-40,-32
  1512205117,0.0065,-0.0190,0.2289,20.63,-147.03,862.61,-100,-65,-11
  1512205117,0.0229,-0.0180,0.2288,55.18,-99.73,864.56,-100,-65,-11
  1512205117,0.0188,-0.0288,0.2264,94.36,-95.09,943.54,-100,-65,-11
  1512205117,0.0190,-0.0105,0.2225,135.74,-126.65,800.90,-100,-65,-11
  1512205117,0.0138,-0.0165,0.2205,38.27,-177.12,834.66,-100,-65,-11
  1512205117,-0.0021,0.0011,0.2092,82.70,-183.04,791.20,-105,-49,-20
  1512205117,-0.0328,0.0003,0.2236,86.91,-189.15,817.50,-105,-49,-20
  1512205117,-0.0328,-0.0012,0.2193,56.70,-151.43,937.56,-105,-49,-20
  1512205117,-0.0205,0.0129,0.2217,74.52,-138.85,927.43,-105,-49,-20
  1512205118,-0.0128,0.0069,0.2218,38.64,-138.49,977.29,-124,-65,-28
  1512205118,-0.0270,0.0053,0.2184,32.96,-165.47,905.03,-124,-65,-28
  1512205118,-0.0348,-0.0037,0.2237,57.50,-160.46,905.46,-124,-65,-28
  1512205118,-0.0361,0.0000,0.2120,53.59,-114.50,904.85,-124,-65,-28
  1512205118,-0.0372,0.0149,0.2222,49.13,-130.49,936.83,-124,-65,-28
  1512205118,-0.0336,0.0253,0.2125,64.94,-120.73,859.31,-115,-56,-10
  1512205118,-0.0348,0.0298,0.2036,60.79,-132.69,865.91,-115,-56,-10
  1512205118,-0.0193,0.0142,0.2043,37.60,-125.18,884.89,-115,-56,-10
  1512205118,-0.0254,-0.0036,0.2080,49.56,-121.70,918.03,-115,-56,-10
  1512205118,-0.0123,0.0044,0.2089,39.37,-144.17,936.52,-115,-56,-10
  1512205118,0.0036,-0.0061,0.2174,-1.89,-97.53,915.71,-110,-68,-22
  1512205118,-0.0128,-0.0003,0.2204,70.68,-144.53,840.70,-110,-68,-22
  1512205118,-0.0161,0.0017,0.2186,74.10,-169.68,884.34,-110,-68,-22
  1512205118,-0.0075,0.0068,0.2230,77.82,-102.72,925.72,-110,-68,-22
  1512205118,-0.0028,0.0152,0.2169,34.48,-126.83,909.79,-110,-68,-22
  1512205118,-0.0162,0.0084,0.2139,35.34,-120.42,934.33,-121,-72,-38
  1512205118,-0.0185,0.0129,0.2121,42.05,-138.24,945.50,-121,-72,-38
  1512205118,-0.0152,0.0214,0.2051,74.16,-113.77,946.17,-121,-72,-38
  1512205118,-0.0209,0.0169,0.2079,42.91,-112.98,950.13,-121,-72,-38
  1512205118,-0.0049,0.0245,0.2087,62.68,-121.58,934.27,-124,-79,-38
  1512205118,-0.0101,0.0324,0.2095,-10.13,-89.66,839.90,-124,-79,-38
  1512205118,-0.0221,0.0365,0.2053,10.93,-147.64,876.40,-124,-79,-38
  1512205118,-0.0071,0.0111,0.2129,43.27,-97.96,921.75,-124,-79,-38
  1512205118,-0.0097,0.0020,0.2116,75.56,-136.96,929.99,-124,-79,-38
  1512205118,-0.0109,0.0222,0.2044,66.59,-136.23,862.67,-142,-75,-32
  1512205118,-0.0097,0.0394,0.1987,100.71,-133.48,855.83,-142,-75,-32
  1512205118,-0.0121,0.0358,0.1983,70.74,-138.67,886.54,-142,-75,-32
  1512205118,-0.0164,0.0336,0.1960,93.02,-138.73,916.63,-142,-75,-32
  1512205118,-0.0274,0.0201,0.1975,104.43,-112.67,924.74,-142,-75,-32
  1512205118,-0.0186,0.0190,0.1949,111.45,-118.65,929.08,-144,-84,-30
  1512205118,-0.0216,0.0322,0.1937,45.47,-119.45,895.02,-144,-84,-30
  1512205118,-0.0281,0.0364,0.1923,-3.91,-124.82,879.46,-144,-84,-30
  1512205118,-0.0270,0.0240,0.1933,42.66,-111.82,851.81,-144,-84,-30
  1512205118,-0.0320,0.0101,0.1924,7.08,-132.63,903.75,-131,-72,-18
  1512205118,-0.0369,0.0116,0.1846,19.84,-157.04,901.86,-131,-72,-18
  1512205118,-0.0330,0.0059,0.1891,55.05,-106.57,879.21,-131,-72,-18
  1512205118,-0.0266,0.0016,0.1931,43.70,-118.90,851.26,-131,-72,-18
  1512205118,-0.0213,0.0013,0.1872,79.83,-113.28,917.66,-131,-72,-18
  1512205119,0.0044,0.0121,0.1784,62.50,-82.09,864.99,-124,-82,-22
  1512205119,-0.0134,0.0117,0.1891,71.23,-96.80,881.59,-124,-82,-22
  1512205119,-0.0217,0.0012,0.1795,83.44,-122.13,948.49,-124,-82,-22
  1512205119,-0.0209,0.0088,0.1834,50.11,-111.57,958.31,-124,-82,-22
  1512205119,-0.0221,0.0079,0.1822,65.19,-122.92,924.32,-138,-82,-28
  1512205119,-0.0116,0.0048,0.1874,35.28,-98.39,898.32,-138,-82,-28
  1512205119,-0.0212,0.0073,0.1843,67.26,-139.10,890.01,-138,-82,-28
  1512205119,-0.0230,0.0105,0.1824,72.69,-128.11,887.15,-138,-82,-28
  1512205119,-0.0130,0.0099,0.1800,73.12,-111.33,883.30,-138,-82,-28
  1512205119,-0.0020,0.0056,0.1744,6.84,-122.56,875.49,-138,-93,-32
  1512205119,-0.0063,0.0045,0.1716,37.23,-143.80,930.30,-138,-93,-32
  1512205119,0.0013,0.0085,0.1710,55.97,-135.50,873.84,-138,-93,-32
  1512205119,-0.0047,0.0144,0.1664,61.16,-146.12,888.85,-138,-93,-32
  1512205119,0.0061,0.0084,0.1716,75.56,-121.89,891.42,-138,-93,-32
  1512205119,0.0057,0.0149,0.1696,83.37,-124.33,910.40,-144,-105,-33
  1512205119,0.0137,0.0172,0.1716,20.94,-107.60,901.79,-144,-105,-33
  1512205119,0.0134,0.0099,0.1710,18.25,-110.96,888.73,-144,-105,-33
  1512205119,0.0103,0.0162,0.1715,30.03,-96.37,864.32,-144,-105,-33
  1512205119,0.0012,0.0035,0.1735,31.25,-92.41,913.15,-145,-82,-28
  1512205119,0.0007,-0.0121,0.1754,31.68,-59.69,950.74,-145,-82,-28
  1512205119,-0.0025,0.0051,0.1716,58.47,-97.47,873.54,-145,-82,-28
  1512205119,-0.0121,0.0003,0.1656,74.71,-101.75,873.41,-145,-82,-28
  1512205119,0.0023,0.0084,0.1691,38.39,-117.49,866.39,-145,-82,-28
  1512205119,0.0043,-0.0095,0.1680,21.97,-78.61,927.80,-140,-91,-30
  1512205119,0.0056,-0.0083,0.1696,26.31,-98.27,923.34,-140,-91,-30
  1512205119,0.0035,-0.0084,0.1682,36.56,-83.19,913.15,-140,-91,-30
  1512205119,-0.0013,-0.0057,0.1726,26.43,-90.76,903.50,-140,-91,-30
  1512205119,0.0003,-0.0017,0.1706,27.83,-80.20,931.40,-140,-91,-30
  1512205119,0.0080,0.0043,0.1704,24.11,-91.74,950.13,-145,-93,-15
  1512205119,0.0071,-0.0073,0.1718,30.33,-59.08,961.85,-145,-93,-15
  1512205119,-0.0071,-0.0138,0.1680,19.65,-66.22,921.14,-145,-93,-15
  1512205119,-0.0084,-0.0236,0.1666,-4.64,-79.59,900.51,-145,-93,-15
  1512205119,-0.0097,-0.0121,0.1652,23.68,-67.57,842.04,-152,-107,-15
  1512205119,-0.0172,0.0000,0.1567,28.26,-122.25,867.86,-152,-107,-15
  1512205119,-0.0089,0.0045,0.1615,24.72,-88.93,908.87,-152,-107,-15
  1512205119,-0.0127,-0.0021,0.1583,52.86,-60.55,910.77,-152,-107,-15
  1512205119,-0.0172,-0.0168,0.1591,10.07,-91.86,936.16,-152,-107,-15
  1512205120,-0.0281,-0.0210,0.1551,9.77,-107.12,883.18,-154,-123,-20
  1512205120,-0.0341,-0.0057,0.1531,45.65,-123.96,855.41,-154,-123,-20
  1512205120,-0.0013,0.0273,0.1495,12.21,-104.61,859.07,-154,-123,-20
  1512205120,0.0120,0.0561,0.1454,13.18,-66.04,874.02,-154,-123,-20
  1512205120,0.0197,0.0483,0.1478,21.42,-60.67,954.28,-154,-123,-20
  1512205120,0.0142,0.0258,0.1486,21.73,-86.79,874.69,-145,-128,-22
  1512205120,-0.0089,0.0196,0.1455,-9.34,-93.63,832.76,-145,-128,-22
  1512205120,-0.0103,0.0077,0.1477,-14.40,-72.02,890.87,-145,-128,-22
  1512205120,-0.0099,-0.0124,0.1531,-55.11,-52.55,931.52,-145,-128,-22
  1512205120,-0.0028,-0.0023,0.1530,-14.04,-64.03,969.60,-159,-118,-15
  1512205120,-0.0130,-0.0063,0.1499,13.92,-75.87,964.42,-159,-118,-15
  1512205120,-0.0205,-0.0345,0.1450,17.64,-85.51,983.58,-159,-118,-15
  1512205120,-0.0240,-0.0296,0.1376,30.52,-83.80,924.80,-159,-118,-15
  1512205120,-0.0201,0.0031,0.1220,-10.31,-66.89,900.27,-159,-118,-15
  1512205120,-0.0123,-0.0149,0.1060,29.85,-91.00,907.84,-140,-133,-23
  1512205120,-0.0264,-0.0366,0.1225,18.49,-90.64,927.00,-140,-133,-23
  1512205120,-0.0188,-0.0273,0.1281,36.13,-79.22,888.73,-140,-133,-23
  1512205120,-0.0162,-0.0393,0.1345,9.83,-77.76,883.85,-140,-133,-23
  1512205120,-0.0127,-0.0226,0.1374,34.91,-90.52,868.96,-172,-141,-27
  1512205120,-0.0176,-0.0029,0.1357,62.01,-117.25,872.19,-172,-141,-27
  1512205120,-0.0197,0.0186,0.1340,60.12,-88.56,845.52,-172,-141,-27
  1512205120,-0.0192,-0.0035,0.1380,50.05,-105.10,948.85,-172,-141,-27
  1512205120,-0.0077,0.0076,0.1265,25.09,-111.51,968.69,-172,-141,-27
  1512205120,-0.0016,0.0138,0.1308,0.61,-87.22,922.73,-158,-144,-20
  1512205120,0.0081,0.0099,0.1321,-13.00,-82.40,920.35,-158,-144,-20
  1512205120,0.0059,0.0120,0.1262,-10.74,-91.43,855.71,-158,-144,-20
  1512205120,0.0003,0.0317,0.1225,-5.74,-110.11,820.92,-158,-144,-20
  1512205120,-0.0140,0.0518,0.1137,49.62,-117.19,816.53,-158,-144,-20
  1512205120,-0.0168,0.0555,0.1031,68.91,-111.08,890.99,-168,-126,-13
  1512205120,-0.0093,0.0305,0.1103,-15.56,-72.20,906.98,-168,-126,-13
  1512205120,-0.0245,0.0032,0.1161,-4.39,-55.30,877.93,-168,-126,-13
  1512205120,-0.0270,-0.0216,0.1188,-54.26,-109.74,922.00,-168,-126,-13
  1512205120,-0.0101,-0.0117,0.1261,-29.05,-70.74,922.00,-151,-141,-27
  1512205120,0.0138,-0.0177,0.1334,-5.49,-70.50,974.37,-151,-141,-27
  1512205120,0.0084,-0.0310,0.1194,28.08,-96.01,970.58,-151,-141,-27
  1512205120,0.0005,-0.0158,0.1164,27.10,-128.36,903.14,-151,-141,-27
  1512205120,-0.0023,-0.0064,0.1057,29.30,-113.77,916.20,-151,-141,-27
  1512205120,0.0028,0.0040,0.1068,17.58,-82.03,856.93,-172,-148,-33
  1512205121,-0.0055,-0.0204,0.1053,8.12,-135.07,920.84,-172,-148,-33
  1512205121,-0.0069,0.0052,0.1095,19.35,-91.92,892.76,-172,-148,-33
  1512205121,-0.0081,0.0059,0.1135,-4.82,-105.16,908.51,-172,-148,-33
  1512205121,-0.0036,0.0099,0.1165,-1.10,-94.18,878.42,-172,-148,-33
  1512205121,-0.0047,0.0043,0.1206,14.65,-112.43,876.95,-175,-141,-6
  1512205121,0.0027,0.0128,0.1190,26.98,-107.12,882.51,-175,-141,-6
  1512205121,0.0041,0.0246,0.1186,34.91,-104.61,908.75,-175,-141,-6
  1512205121,0.0148,0.0290,0.1132,39.18,-86.85,914.31,-175,-141,-6
  1512205121,0.0146,0.0491,0.1123,37.05,-107.54,859.19,-159,-146,-22
  1512205121,0.0087,0.0362,0.1049,53.65,-104.86,912.35,-159,-146,-22
  1512205121,0.0028,0.0254,0.1057,24.41,-88.01,894.41,-159,-146,-22
  1512205121,0.0047,0.0067,0.1099,12.08,-74.46,968.26,-159,-146,-22
  1512205121,0.0060,0.0115,0.1113,-11.78,-97.29,936.10,-159,-146,-22
  1512205121,0.0097,0.0415,0.1113,7.14,-99.00,852.23,-165,-148,-20
  1512205121,0.0100,0.0517,0.1105,46.02,-118.04,837.10,-165,-148,-20
  1512205121,0.0007,0.0349,0.1057,27.95,-119.93,890.93,-165,-148,-20
  1512205121,0.0091,0.0301,0.1105,43.03,-84.47,886.41,-165,-148,-20
  1512205121,0.0045,0.0318,0.1092,-18.98,-98.21,864.32,-165,-148,-20
  1512205121,0.0113,0.0180,0.1128,9.52,-68.79,894.78,-156,-149,-15
  1512205121,0.0109,0.0237,0.1172,3.72,-78.98,875.67,-156,-149,-15
  1512205121,0.0181,0.0344,0.1166,-9.70,-76.84,881.41,-156,-149,-15
  1512205121,0.0048,0.0386,0.1103,-11.90,-71.23,932.31,-156,-149,-15
  1512205121,0.0104,0.0370,0.1093,-20.14,-97.90,972.78,-170,-142,-22
  1512205121,0.0081,0.0218,0.1075,-13.24,-88.93,905.15,-170,-142,-22
  1512205121,0.0075,0.0108,0.1128,-73.73,-77.45,931.46,-170,-142,-22
  1512205121,0.0194,0.0160,0.1173,-65.31,-48.95,873.78,-170,-142,-22
  1512205121,-0.0047,0.0376,0.1012,21.18,-100.77,848.27,-170,-142,-22
  1512205121,-0.0027,0.0336,0.1099,-7.63,-84.17,858.95,-166,-149,-11
  1512205121,-0.0075,0.0073,0.1083,-42.48,-104.37,877.87,-166,-149,-11
  1512205121,0.0031,0.0004,0.1109,13.06,-56.09,850.71,-166,-149,-11
  1512205121,0.0085,0.0084,0.1133,-17.58,-76.42,876.65,-166,-149,-11
  1512205121,0.0067,0.0168,0.1072,44.74,-88.13,883.85,-166,-153,-18
  1512205121,0.0043,0.0212,0.1036,27.77,-103.52,865.60,-166,-153,-18
  1512205121,0.0075,0.0024,0.1091,30.15,-113.28,853.64,-166,-153,-18
  1512205121,-0.0024,0.0052,0.1065,19.35,-110.53,832.09,-166,-153,-18
  1512205121,-0.0064,0.0125,0.1077,35.71,-96.07,880.86,-166,-153,-18
  1512205121,0.0056,0.0197,0.1080,31.98,-98.45,914.00,-173,-163,-25
  1512205121,0.0119,0.0317,0.1109,90.33,-71.04,941.10,-173,-163,-25
  1512205122,0.0142,0.0487,0.1109,106.99,-123.35,904.79,-173,-163,-25
  1512205122,0.0232,0.0570,0.1080,62.62,-97.05,914.67,-173,-163,-25
  1512205122,0.0120,0.0640,0.1119,49.32,-113.46,847.11,-173,-163,-25
  1512205122,0.0075,0.0189,0.1140,-5.19,-106.57,925.42,-165,-148,-20
  1512205122,0.0033,0.0169,0.1160,-6.96,-82.52,854.49,-165,-148,-20
  1512205122,0.0037,0.0103,0.1154,-64.39,-57.07,925.90,-165,-148,-20
  1512205122,-0.0015,0.0140,0.1198,7.75,-101.75,873.23,-165,-148,-20
  1512205122,-0.0072,0.0156,0.1124,-4.88,-106.81,894.71,-179,-165,-37
  1512205122,-0.0037,0.0182,0.1142,-16.66,-72.45,857.79,-179,-165,-37
  1512205122,-0.0096,0.0130,0.1146,-8.36,-86.12,914.61,-179,-165,-37
  1512205122,-0.0023,0.0322,0.1133,27.16,-79.04,885.07,-179,-165,-37
  1512205122,0.0049,0.0096,0.1245,22.95,-73.00,863.10,-179,-165,-37
  1512205122,-0.0071,0.0089,0.1298,39.92,-88.56,856.81,-182,-176,-23
  1512205122,-0.0003,-0.0158,0.1348,31.68,-99.73,908.63,-182,-176,-23
  1512205122,0.0105,-0.0196,0.1430,33.94,-80.02,913.88,-182,-176,-23
  1512205122,0.0189,-0.0234,0.1514,-3.66,-89.36,926.51,-182,-176,-23
  1512205122,0.0194,-0.0226,0.1533,-8.61,-104.98,956.91,-182,-176,-23
  1512205122,0.0198,-0.0133,0.1603,23.74,-62.93,824.22,-184,-171,-32
  1512205122,0.0047,-0.0117,0.1614,26.00,-93.08,892.15,-184,-171,-32
  1512205122,0.0048,-0.0180,0.1538,32.23,-68.18,936.10,-184,-171,-32
  1512205122,-0.0044,-0.0027,0.1551,18.49,-46.88,889.47,-184,-171,-32
  1512205122,-0.0036,-0.0055,0.1601,37.35,-103.27,941.77,-180,-181,-18
  1512205122,0.0076,-0.0142,0.1615,49.87,-75.87,929.26,-180,-181,-18
  1512205122,0.0013,0.0020,0.1645,40.28,-80.14,911.07,-180,-181,-18
  1512205122,0.0181,-0.0027,0.1686,-11.90,-77.15,947.08,-180,-181,-18
  1512205122,0.0229,0.0072,0.1711,19.17,-65.19,880.25,-180,-181,-18
  1512205122,0.0040,0.0113,0.1754,5.37,-89.42,840.64,-205,-185,-25
  1512205122,0.0045,0.0433,0.1752,-3.30,-112.98,830.32,-205,-185,-25
  1512205122,-0.0069,0.0647,0.1652,39.49,-95.89,801.21,-205,-185,-25
  1512205122,-0.0109,0.0493,0.1654,42.11,-84.23,890.44,-205,-185,-25
  1512205122,-0.0011,0.0270,0.1728,12.51,-93.44,978.09,-205,-185,-25
  1512205122,0.0027,0.0040,0.1815,13.67,-74.71,922.49,-177,-188,-32
  1512205122,-0.0001,-0.0085,0.1909,-18.01,-60.85,895.75,-177,-188,-32
  1512205122,0.0176,0.0095,0.1892,22.09,-59.27,942.14,-177,-188,-32
  1512205122,0.0161,0.0085,0.1924,44.43,-84.66,914.79,-177,-188,-32
  1512205122,0.0049,-0.0120,0.1921,6.04,-41.93,967.90,-196,-169,-16
  1512205122,-0.0081,-0.0285,0.1812,50.48,-96.92,989.62,-196,-169,-16
  1512205122,-0.0166,-0.0107,0.1779,42.60,-38.94,911.19,-196,-169,-16
  1512205123,-0.0001,-0.0212,0.1898,-5.68,-54.57,904.05,-196,-169,-16
  1512205123,-0.0268,-0.0077,0.1867,43.46,-110.41,803.16,-196,-169,-16
  1512205123,-0.0497,-0.0021,0.1909,100.16,-73.49,738.83,-186,-186,-33
  1512205123,-0.0494,-0.0092,0.2012,69.58,-119.32,832.64,-186,-186,-33
  1512205123,-0.0358,-0.0124,0.2052,137.39,-48.58,823.91,-186,-186,-33
  1512205123,-0.0228,-0.0029,0.2166,25.39,-84.11,891.11,-186,-186,-33
  1512205123,-0.0064,-0.0109,0.2198,43.03,-104.00,958.56,-186,-186,-33
  1512205123,-0.0270,0.0057,0.2185,95.95,-131.53,871.83,-188,-202,-28
  1512205123,-0.0221,0.0117,0.2229,73.43,-68.79,873.47,-188,-202,-28
  1512205123,-0.0198,-0.0056,0.2221,80.26,-135.56,970.15,-188,-202,-28
  1512205123,-0.0071,-0.0129,0.2240,57.07,-85.94,929.87,-188,-202,-28
  1512205123,-0.0127,0.0024,0.2225,-15.44,-98.02,951.48,-196,-208,-13
  1512205123,-0.0035,-0.0033,0.2272,7.26,-60.18,986.63,-196,-208,-13
  1512205123,-0.0188,-0.0067,0.2238,18.01,-106.02,950.87,-196,-208,-13
  1512205123,-0.0204,0.0080,0.2288,45.65,-72.75,834.59,-196,-208,-13
  1512205123,-0.0249,0.0104,0.2349,37.72,-68.60,848.94,-196,-208,-13
  1512205123,-0.0216,-0.0049,0.2397,65.80,-69.03,865.91,-188,-202,-25
  1512205123,-0.0266,-0.0305,0.2431,81.18,-65.31,904.17,-188,-202,-25
  1512205123,-0.0276,-0.0290,0.2450,49.07,-106.93,946.17,-188,-202,-25
  1512205123,-0.0021,-0.0366,0.2561,57.62,-66.16,949.16,-188,-202,-25
  1512205123,0.0108,-0.0354,0.2538,26.67,-82.34,933.47,-191,-216,-11
  1512205123,0.0055,-0.0081,0.2494,52.00,-104.25,936.58,-191,-216,-11
  1512205123,-0.0154,0.0261,0.2404,131.65,-104.37,808.90,-191,-216,-11
  1512205123,-0.0240,0.0439,0.2354,101.20,-130.62,893.86,-191,-216,-11
  1512205123,-0.0377,0.0369,0.2310,152.40,-89.72,921.51,-191,-216,-11
  1512205123,-0.0455,0.0308,0.2411,89.90,-57.80,981.57,-195,-223,-15
  1512205123,-0.0334,0.0425,0.2458,76.90,-96.44,949.34,-195,-223,-15
  1512205123,-0.0316,0.0380,0.2562,36.68,-74.83,890.20,-195,-223,-15
  1512205123,-0.0286,0.0474,0.2699,9.16,-82.64,917.24,-195,-223,-15
  1512205123,-0.0297,0.0356,0.2651,72.33,-122.99,880.00,-195,-223,-15
  1512205123,-0.0313,-0.0112,0.2631,47.49,-123.90,838.44,-195,-227,-32
  1512205123,-0.0160,-0.0117,0.2569,17.40,-87.46,869.26,-195,-227,-32
  1512205123,-0.0182,-0.0013,0.2510,48.28,-116.15,838.75,-195,-227,-32
  1512205123,-0.0201,-0.0041,0.2422,58.90,-107.54,860.66,-195,-227,-32
  1512205123,-0.0252,0.0020,0.2360,14.95,-111.15,872.07,-188,-230,-22
  1512205123,-0.0244,0.0041,0.2360,60.49,-94.12,836.00,-188,-230,-22
  1512205123,-0.0407,0.0049,0.2390,25.94,-102.97,885.99,-188,-230,-22
  1512205124,-0.0321,0.0020,0.2479,85.63,-109.56,932.56,-188,-230,-22
  1512205124,-0.0517,-0.0138,0.2574,105.59,-97.90,901.43,-188,-230,-22
  1512205124,-0.0302,-0.0031,0.2549,-12.94,-63.54,889.95,-182,-253,-16
  1512205124,-0.0244,0.0012,0.2569,71.35,-111.57,949.10,-182,-253,-16
  1512205124,-0.0226,0.0039,0.2655,59.81,-67.99,950.87,-182,-253,-16
  1512205124,-0.0079,0.0080,0.2635,58.78,-135.50,964.78,-182,-253,-16
  1512205124,-0.0036,0.0138,0.2567,49.44,-57.86,870.24,-189,-246,-20
  1512205124,-0.0068,0.0043,0.2503,30.09,-159.97,873.60,-189,-246,-20
  1512205124,-0.0088,-0.0032,0.2486,49.07,-116.46,893.07,-189,-246,-20
  1512205124,-0.0055,0.0019,0.2561,2.62,-68.85,922.00,-189,-246,-20
  1512205124,-0.0001,-0.0020,0.2526,24.11,-103.15,1000.18,-189,-246,-20
  1512205124,-0.0136,0.0346,0.2531,62.19,-86.36,915.28,-179,-253,-10
  1512205124,-0.0117,0.0521,0.2549,93.69,-118.53,925.17,-179,-253,-10
  1512205124,-0.0032,0.0538,0.2554,91.37,-102.17,925.78,-179,-253,-10
  1512205124,0.0020,0.0385,0.2603,75.38,-101.50,970.21,-179,-253,-10
  1512205124,0.0063,0.0451,0.2587,84.96,-111.76,971.31,-179,-253,-10
  1512205124,0.0177,0.0755,0.2525,56.46,-74.83,958.68,-180,-269,-25
  1512205124,0.0121,0.0799,0.2515,63.29,-140.50,937.38,-180,-269,-25
  1512205124,0.0188,0.0891,0.2377,42.48,-94.54,851.99,-180,-269,-25
  1512205124,0.0184,0.0739,0.2491,-37.17,-119.08,917.18,-180,-269,-25
  1512205124,0.0165,0.0638,0.2473,-6.04,-129.21,890.20,-177,-273,-22
  1512205124,0.0182,0.0712,0.2602,0.18,-95.46,842.47,-177,-273,-22
  1512205124,0.0097,0.0587,0.2591,-11.17,-104.37,904.11,-177,-273,-22
  1512205124,-0.0036,0.0318,0.2615,-3.11,-114.62,926.03,-177,-273,-22
  1512205124,-0.0104,0.0366,0.2649,4.70,-113.59,828.06,-177,-273,-22
  1512205124,-0.0200,0.0289,0.2634,33.08,-114.26,837.34,-179,-260,-13
  1512205124,-0.0234,0.0093,0.2659,51.33,-145.57,886.90,-179,-260,-13
  1512205124,-0.0172,0.0044,0.2699,54.81,-97.90,932.31,-179,-260,-13
  1512205124,-0.0089,0.0039,0.2674,26.18,-79.77,943.79,-179,-260,-13
  1512205124,-0.0103,0.0136,0.2638,23.32,-113.65,962.89,-188,-283,-11
  1512205124,-0.0012,0.0129,0.2607,45.53,-106.20,941.16,-188,-283,-11
  1512205124,0.0008,0.0257,0.2619,11.90,-100.46,874.15,-188,-283,-11
  1512205124,-0.0116,0.0128,0.2577,42.60,-135.19,907.35,-188,-283,-11
  1512205124,-0.0103,0.0236,0.2553,31.07,-153.93,870.24,-188,-283,-11
  1512205124,-0.0192,0.0249,0.2583,86.61,-105.35,865.05,-166,-269,-22
  1512205124,-0.0071,0.0270,0.2617,79.65,-147.34,929.63,-166,-269,-22
  1512205124,0.0104,0.0332,0.2635,41.08,-114.20,906.74,-166,-269,-22
  1512205124,-0.0067,0.0260,0.2615,52.06,-120.54,894.96,-166,-269,-22
  1512205125,-0.0007,0.0107,0.2649,59.63,-138.00,957.40,-166,-269,-22
  1512205125,-0.0085,0.0141,0.2614,46.51,-112.49,889.10,-163,-276,-22
  1512205125,-0.0031,0.0196,0.2609,28.56,-128.36,921.87,-163,-276,-22
  1512205125,0.0020,0.0060,0.2585,10.13,-104.19,942.75,-163,-276,-22
  1512205125,0.0029,-0.0012,0.2614,-16.97,-115.54,954.22,-163,-276,-22
  1512205125,-0.0051,0.0119,0.2590,-29.54,-102.29,859.56,-166,-287,-28
  1512205125,0.0009,0.0210,0.2563,5.49,-96.62,909.97,-166,-287,-28
  1512205125,0.0007,0.0136,0.2535,49.80,-147.77,936.46,-166,-287,-28
  1512205125,-0.0008,0.0154,0.2497,55.79,-119.02,844.12,-166,-287,-28
  1512205125,-0.0008,0.0076,0.2553,12.08,-101.50,940.92,-166,-287,-28
  1512205125,0.0044,0.0065,0.2559,16.30,-126.34,978.15,-161,-292,-6
  1512205125,0.0108,0.0249,0.2569,11.90,-89.72,909.00,-161,-292,-6
  1512205125,0.0071,0.0278,0.2629,20.57,-105.10,907.47,-161,-292,-6
  1512205125,0.0028,0.0158,0.2565,35.58,-125.55,986.39,-161,-292,-6
  1512205125,0.0016,0.0172,0.2518,25.70,-80.99,967.41,-161,-292,-6
  1512205125,0.0081,0.0177,0.2525,-13.67,-130.74,939.64,-177,-304,-15
  1512205125,-0.0049,0.0306,0.2498,-3.11,-85.88,820.31,-177,-304,-15
  1512205125,-0.0055,0.0181,0.2565,16.05,-110.29,919.80,-177,-304,-15
  1512205125,0.0089,0.0244,0.2557,17.70,-100.52,814.94,-177,-304,-15
  1512205125,-0.0150,0.0310,0.2534,45.23,-98.82,887.39,-163,-308,-5
  1512205125,0.0024,0.0101,0.2498,35.10,-181.95,907.65,-163,-308,-5
  1512205125,-0.0111,0.0063,0.2553,41.20,-112.49,843.99,-163,-308,-5
  1512205125,-0.0037,0.0156,0.2587,54.20,-138.06,882.63,-163,-308,-5
  1512205125,0.0064,0.0115,0.2561,-3.60,-115.36,883.00,-163,-308,-5
  1512205125,0.0052,0.0246,0.2535,16.97,-118.96,849.06,-168,-299,0
  1512205125,0.0107,0.0061,0.2519,0.98,-131.16,916.20,-168,-299,0
  1512205125,0.0138,0.0142,0.2487,11.66,-138.37,884.09,-168,-299,0
  1512205125,0.0047,0.0172,0.2495,41.44,-109.25,880.80,-168,-299,0
  1512205125,0.0052,0.0218,0.2518,13.43,-108.83,894.29,-168,-299,0
  1512205125,0.0028,0.0119,0.2533,14.53,-96.68,894.78,-156,-322,-11
  1512205125,-0.0024,0.0210,0.2546,61.71,-104.49,899.05,-156,-322,-11
  1512205125,-0.0057,0.0268,0.2485,37.48,-124.15,873.96,-156,-322,-11
  1512205125,-0.0085,0.0369,0.2449,42.30,-122.86,867.07,-156,-322,-11
  1512205125,-0.0107,0.0312,0.2499,31.56,-139.10,894.96,-156,-326,-8
  1512205125,-0.0149,0.0338,0.2487,-33.33,-114.87,846.50,-156,-326,-8
  1512205125,-0.0290,0.0060,0.2513,28.44,-128.78,899.35,-156,-326,-8
  1512205125,-0.0141,-0.0045,0.2613,-20.57,-76.48,874.57,-156,-326,-8
  1512205125,-0.0238,0.0229,0.2491,-2.44,-125.79,858.34,-156,-326,-8
  1512205126,-0.0092,0.0115,0.2561,28.44,-94.42,920.41,-156,-329,-5
  1512205126,-0.0112,0.0304,0.2485,-2.93,-143.92,900.15,-156,-329,-5
  1512205126,-0.0097,0.0196,0.2451,9.34,-81.67,865.78,-156,-329,-5
  1512205126,-0.0142,0.0096,0.2502,13.18,-103.88,885.50,-156,-329,-5
  1512205126,-0.0079,0.0004,0.2482,36.01,-96.50,958.01,-151,-338,-6
  1512205126,-0.0027,0.0141,0.2458,53.16,-140.50,897.46,-151,-338,-6
  1512205126,0.0076,0.0229,0.2418,8.24,-106.69,889.47,-151,-338,-6
  1512205126,-0.0009,0.0329,0.2457,65.19,-107.67,851.62,-151,-338,-6
  1512205126,-0.0077,0.0142,0.2467,52.98,-101.68,947.63,-151,-338,-6
  1512205126,0.0089,0.0134,0.2511,54.57,-106.87,956.97,-142,-340,-15
  1512205126,0.0017,0.0425,0.2427,19.17,-130.86,838.20,-142,-340,-15
  1512205126,0.0071,0.0316,0.2493,-18.49,-97.90,933.90,-142,-340,-15
  1512205126,-0.0009,0.0059,0.2499,15.20,-84.72,947.08,-142,-340,-15
  1512205126,-0.0031,0.0057,0.2487,14.28,-88.56,931.88,-142,-340,-15
  1512205126,-0.0073,0.0077,0.2437,-54.08,-87.34,936.22,-152,-340,-18
  1512205126,-0.0162,0.0202,0.2433,52.37,-90.88,905.82,-152,-340,-18
  1512205126,-0.0075,0.0170,0.2441,48.03,-122.01,897.22,-152,-340,-18
  1512205126,-0.0141,0.0196,0.2415,30.33,-79.77,834.66,-152,-340,-18
  1512205126,-0.0285,0.0024,0.2397,42.18,-125.31,904.79,-138,-350,-1
  1512205126,-0.0108,0.0084,0.2443,29.60,-115.17,889.22,-138,-350,-1
  1512205126,-0.0156,0.0083,0.2400,67.38,-104.31,901.67,-138,-350,-1
  1512205126,-0.0017,0.0095,0.2438,19.10,-80.32,932.31,-138,-350,-1
  1512205126,-0.0035,-0.0072,0.2435,35.52,-67.38,925.78,-138,-350,-1
  1512205126,-0.0045,0.0076,0.2413,24.72,-92.22,919.74,-131,-343,-18
  1512205126,0.0032,0.0188,0.2405,65.19,-25.39,936.10,-131,-343,-18
  1512205126,0.0024,0.0413,0.2346,50.90,-67.26,897.40,-131,-343,-18
  1512205126,-0.0011,0.0372,0.2296,59.02,-97.96,898.01,-131,-343,-18
  1512205126,0.0011,0.0333,0.2285,25.39,-74.95,892.21,-131,-343,-18
  1512205126,-0.0036,0.0181,0.2378,21.24,-83.98,915.47,-130,-349,-27
  1512205126,-0.0089,0.0041,0.2381,54.38,-56.21,890.20,-130,-349,-27
  1512205126,-0.0031,0.0048,0.2419,-59.45,-71.35,902.65,-130,-349,-27
  1512205126,-0.0067,0.0112,0.2328,-20.08,-57.74,894.84,-130,-349,-27
  1512205126,-0.0035,0.0236,0.2397,6.16,-60.06,871.15,-114,-347,-5
  1512205126,-0.0019,0.0326,0.2346,-0.67,-71.84,876.28,-114,-347,-5
  1512205126,0.0036,0.0330,0.2206,16.30,-95.34,887.63,-114,-347,-5
  1512205126,-0.0020,0.0461,0.2249,20.45,-47.36,804.44,-114,-347,-5
  1512205126,0.0001,0.0076,0.2281,19.65,-30.15,950.01,-114,-347,-5
  1512205127,-0.0007,0.0153,0.2265,-3.60,-38.94,899.78,-110,-368,11
  1512205127,0.0013,0.0221,0.2268,14.10,-59.14,912.35,-110,-368,11
  1512205127,0.0052,0.0281,0.2325,36.07,-53.22,877.81,-110,-368,11
  1512205127,-0.0045,0.0208,0.2288,22.40,-76.35,842.77,-110,-368,11
  1512205127,-0.0016,0.0129,0.2313,25.27,-6.84,909.24,-126,-359,0
  1512205127,-0.0081,0.0197,0.2234,39.25,-82.70,855.65,-126,-359,0
  1512205127,-0.0116,0.0092,0.2210,41.56,-62.07,880.49,-126,-359,0
  1512205127,-0.0069,0.0083,0.2254,48.89,-63.35,906.43,-126,-359,0
  1512205127,-0.0060,0.0164,0.2254,34.79,-52.49,861.63,-126,-359,0
  1512205127,-0.0141,0.0186,0.2233,81.18,-66.59,935.73,-117,-382,5
  1512205127,-0.0061,0.0181,0.2225,44.37,-71.72,953.86,-117,-382,5
  1512205127,-0.0043,0.0361,0.2241,34.91,-52.25,838.68,-117,-382,5
  1512205127,-0.0107,0.0304,0.2216,40.47,-49.38,938.48,-117,-382,5
  1512205127,-0.0045,0.0248,0.2242,36.50,-61.77,950.20,-117,-382,5
  1512205127,0.0039,0.0254,0.2284,0.06,-24.35,903.08,-114,-389,-1
  1512205127,0.0043,0.0357,0.2298,39.73,-71.72,849.67,-114,-389,-1
  1512205127,0.0001,0.0324,0.2269,6.77,-65.73,882.26,-114,-389,-1
  1512205127,0.0000,0.0282,0.2289,22.77,-47.61,901.31,-114,-389,-1
  1512205127,0.0025,0.0186,0.2260,-6.65,-37.41,930.05,-122,-373,3
  1512205127,-0.0069,0.0313,0.2220,62.68,-69.40,875.43,-122,-373,3
  1512205127,-0.0019,0.0482,0.2218,37.35,-76.54,823.85,-122,-373,3
  1512205127,0.0029,0.0467,0.2221,47.18,-29.05,887.76,-122,-373,3
  1512205127,-0.0009,0.0337,0.2213,51.70,-39.31,957.28,-122,-373,3
  1512205127,-0.0097,0.0274,0.2222,23.74,-65.25,911.50,-82,-386,-5
  1512205127,-0.0048,0.0276,0.2278,6.96,-6.84,879.76,-82,-386,-5
  1512205127,-0.0130,0.0298,0.2290,42.48,-45.65,877.01,-82,-386,-5
  1512205127,-0.0246,0.0192,0.2248,31.98,-54.81,938.54,-82,-386,-5
  1512205127,-0.0185,0.0234,0.2324,49.50,-39.55,903.32,-94,-373,6
  1512205127,-0.0201,0.0193,0.2333,43.33,-37.35,965.88,-94,-373,6
  1512205127,-0.0278,0.0182,0.2264,46.69,-53.22,905.64,-94,-373,6
  1512205127,-0.0370,0.0124,0.2225,42.66,-44.56,924.32,-94,-373,6
  1512205127,-0.0269,0.0012,0.2194,68.42,-62.81,951.35,-94,-373,6
  1512205127,-0.0185,0.0053,0.2185,9.58,-40.04,870.36,-87,-380,-13
  1512205127,-0.0153,0.0116,0.2205,2.69,-29.72,837.46,-87,-380,-13
  1512205127,-0.0103,0.0075,0.2293,13.92,-49.07,870.06,-87,-380,-13
  1512205127,-0.0120,-0.0029,0.2305,31.43,-33.87,905.33,-87,-380,-13
  1512205127,-0.0068,-0.0016,0.2349,6.29,-15.44,906.74,-87,-380,-13
  1512205127,-0.0210,0.0011,0.2249,-0.98,-36.25,916.14,-75,-393,8
  1512205128,-0.0220,0.0107,0.2224,37.90,-49.26,900.94,-75,-393,8
  1512205128,-0.0224,0.0356,0.2170,43.46,-59.27,818.36,-75,-393,8
  1512205128,-0.0177,0.0242,0.2140,54.08,-26.18,908.39,-75,-393,8
  1512205128,-0.0189,0.0052,0.2204,-18.80,-62.38,915.65,-79,-382,-1
  1512205128,-0.0225,-0.0048,0.2202,3.11,-34.24,914.31,-79,-382,-1
  1512205128,-0.0216,0.0015,0.2240,18.98,-40.53,850.65,-79,-382,-1
  1512205128,-0.0272,0.0037,0.2257,25.51,-67.02,892.82,-79,-382,-1
  1512205128,-0.0192,-0.0145,0.2234,17.33,-33.94,944.58,-79,-382,-1
  1512205128,-0.0150,-0.0032,0.2233,12.02,-55.54,906.92,-79,-410,-5
  1512205128,-0.0170,0.0103,0.2101,32.47,-108.76,936.83,-79,-410,-5
  1512205128,-0.0141,0.0402,0.2087,58.90,-65.00,865.84,-79,-410,-5
  1512205128,-0.0043,-0.0016,0.2129,44.13,-78.92,955.81,-79,-410,-5
  1512205128,-0.0107,-0.0096,0.2189,23.07,-76.54,865.30,-66,-394,-10
  1512205128,-0.0205,-0.0170,0.2169,8.42,-96.25,888.98,-66,-394,-10
  1512205128,0.0000,-0.0036,0.2300,7.32,-68.48,827.03,-66,-394,-10
  1512205128,-0.0040,0.0228,0.2272,37.17,-80.81,863.59,-66,-394,-10
  1512205128,-0.0025,0.0041,0.2268,46.14,-80.93,898.01,-66,-394,-10
  1512205128,-0.0105,-0.0052,0.2278,57.68,-90.03,911.50,-63,-398,0
  1512205128,-0.0115,-0.0128,0.2278,38.76,-65.80,905.94,-63,-398,0
  1512205128,-0.0148,-0.0145,0.2273,21.79,-82.64,934.20,-63,-398,0
  1512205128,-0.0149,-0.0041,0.2276,36.99,-69.15,927.25,-63,-398,0
  1512205128,-0.0060,0.0016,0.2353,15.93,-86.36,865.72,-63,-398,0
  1512205128,-0.0104,-0.0003,0.2368,16.97,-84.47,875.73,-61,-407,-15
  1512205128,-0.0104,-0.0085,0.2342,49.01,-94.97,898.13,-61,-407,-15
  1512205128,-0.0177,-0.0113,0.2344,47.55,-89.84,945.74,-61,-407,-15
  1512205128,-0.0088,-0.0072,0.2348,42.30,-90.03,902.04,-61,-407,-15
  1512205128,-0.0125,-0.0047,0.2401,58.29,-73.36,921.08,-57,-403,-8
  1512205128,-0.0009,-0.0040,0.2445,37.35,-58.04,926.57,-57,-403,-8
  1512205128,-0.0019,0.0080,0.2467,43.64,-77.03,882.08,-57,-403,-8
  1512205128,-0.0029,0.0128,0.2523,63.96,-77.94,867.92,-57,-403,-8
  1512205128,-0.0037,0.0093,0.2525,47.42,-83.74,921.45,-57,-403,-8
  1512205128,0.0068,0.0095,0.2593,18.13,-66.04,848.02,-49,-416,-10
  1512205128,-0.0043,0.0144,0.2569,26.61,-91.98,873.72,-49,-416,-10
  1512205128,-0.0004,0.0194,0.2553,53.28,-85.75,929.50,-49,-416,-10
  1512205128,0.0052,0.0354,0.2545,37.23,-49.87,975.40,-49,-416,-10
  1512205128,0.0081,0.0522,0.2466,7.26,-40.34,916.20,-43,-421,-5
  1512205128,0.0019,0.0503,0.2429,23.25,-55.48,925.17,-43,-421,-5
  1512205129,-0.0076,0.0345,0.2437,46.02,-69.27,970.76,-43,-421,-5
  1512205129,-0.0005,0.0312,0.2493,0.98,-47.36,893.37,-43,-421,-5
  1512205129,-0.0011,0.0334,0.2571,-7.20,-48.40,863.83,-43,-421,-5
  1512205129,0.0024,0.0326,0.2582,23.13,-81.24,893.19,-38,-416,3
  1512205129,-0.0003,0.0290,0.2553,66.41,-79.83,864.69,-38,-416,3
  1512205129,0.0029,0.0427,0.2591,39.18,-74.89,879.70,-38,-416,3
  1512205129,0.0008,0.0278,0.2510,40.71,-90.27,894.10,-38,-416,3
  1512205129,0.0008,0.0280,0.2507,49.93,-63.42,880.98,-38,-416,3
  1512205129,0.0051,0.0245,0.2569,38.51,-83.19,873.29,-42,-423,0
  1512205129,0.0073,0.0253,0.2587,27.04,-58.47,889.22,-42,-423,0
  1512205129,0.0109,0.0300,0.2615,44.68,-54.87,904.48,-42,-423,0
  1512205129,0.0105,0.0240,0.2674,51.76,-76.48,910.58,-42,-423,0
  1512205129,0.0121,0.0196,0.2840,24.78,-35.22,847.72,-33,-410,5
  1512205129,-0.0004,0.0096,0.2788,61.58,-64.39,896.36,-33,-410,5
  1512205129,-0.0115,0.0130,0.2796,78.61,-80.51,908.51,-33,-410,5
  1512205129,-0.0065,0.0286,0.2850,69.34,-54.26,856.69,-33,-410,5
  1512205129,-0.0077,0.0234,0.2913,72.02,-89.97,909.48,-33,-410,5
  1512205129,0.0040,-0.0067,0.2980,101.50,-63.11,919.68,-19,-424,-11
  1512205129,0.0013,-0.0037,0.3009,56.34,-55.73,903.87,-19,-424,-11
  1512205129,0.0174,0.0150,0.3021,15.69,-38.94,958.19,-19,-424,-11
  1512205129,0.0204,0.0316,0.3011,21.30,-58.84,936.40,-19,-424,-11
  1512205129,0.0112,0.0328,0.3011,54.38,-75.07,882.51,-19,-435,-11
  1512205129,0.0108,0.0250,0.3039,52.00,-81.18,883.85,-19,-435,-11
  1512205129,0.0095,0.0298,0.2989,59.69,-77.03,889.47,-19,-435,-11
  1512205129,0.0061,0.0325,0.3036,59.51,-74.65,872.99,-19,-435,-11
  1512205129,0.0095,0.0276,0.3073,20.02,-81.42,856.02,-19,-435,-11
  1512205129,-0.0011,0.0085,0.3139,47.97,-67.75,898.80,-12,-431,1
  1512205129,-0.0041,-0.0017,0.3181,9.52,-72.02,887.08,-12,-431,1
  1512205129,-0.0084,-0.0056,0.3202,24.05,-86.18,867.37,-12,-431,1
  1512205129,-0.0053,-0.0116,0.3242,1.46,-96.31,838.32,-12,-431,1
  1512205129,-0.0079,-0.0178,0.3262,40.65,-89.78,878.11,-12,-431,1
  1512205129,-0.0087,-0.0256,0.3261,49.87,-91.80,897.83,-1,-421,-1
  1512205129,-0.0097,-0.0348,0.3258,69.03,-92.96,907.78,-1,-421,-1
  1512205129,-0.0107,-0.0304,0.3221,58.47,-113.83,896.12,-1,-421,-1
  1512205129,-0.0101,-0.0342,0.3297,33.33,-94.18,925.72,-1,-421,-1
  1512205129,-0.0108,-0.0290,0.3338,28.26,-119.51,916.99,7,-433,-3
  1512205129,-0.0079,-0.0324,0.3401,31.86,-82.58,914.98,7,-433,-3
  1512205129,-0.0146,-0.0213,0.3389,51.88,-125.43,930.91,7,-433,-3
  1512205130,-0.0225,-0.0280,0.3465,84.59,-108.28,899.05,7,-433,-3
  1512205130,-0.0096,-0.0364,0.3465,30.82,-95.95,924.32,7,-433,-3
  1512205130,0.0008,-0.0257,0.3482,54.87,-93.87,912.35,5,-417,-1
  1512205130,0.0036,-0.0152,0.3514,58.47,-100.65,880.19,5,-417,-1
  1512205130,-0.0024,-0.0089,0.3541,74.58,-100.34,883.85,5,-417,-1
  1512205130,0.0031,-0.0133,0.3495,57.37,-137.63,954.71,5,-417,-1
  1512205130,0.0060,0.0021,0.3497,52.43,-100.34,926.45,5,-417,-1
  1512205130,-0.0003,0.0312,0.3418,76.97,-111.57,916.81,10,-451,16
  1512205130,0.0111,0.0526,0.3357,42.79,-81.48,988.22,10,-451,16
  1512205130,0.0144,0.0763,0.3290,58.59,-78.19,995.73,10,-451,16
  1512205130,0.0069,0.1005,0.3293,61.89,-56.88,900.70,10,-451,16
  1512205130,-0.0261,0.1003,0.3284,98.57,-102.36,921.87,15,-431,1
  1512205130,-0.0292,0.1103,0.3337,88.01,-111.02,848.94,15,-431,1
  1512205130,-0.0284,0.0541,0.3427,49.38,-41.26,966.31,15,-431,1
  1512205130,-0.0198,0.0617,0.3451,53.47,-83.07,857.30,15,-431,1
  1512205130,-0.0304,0.0694,0.3401,23.01,-134.70,813.96,15,-431,1
  1512205130,0.0005,0.0482,0.3493,-32.41,-143.92,770.08,45,-423,6
  1512205130,-0.0065,-0.0206,0.3518,-33.81,-166.14,787.29,45,-423,6
  1512205130,-0.0009,-0.0441,0.3651,-57.50,-136.66,783.75,45,-423,6
  1512205130,0.0200,-0.0587,0.3694,43.40,-146.67,889.28,45,-423,6
  1512205130,0.0009,-0.0554,0.3481,59.94,-149.41,883.24,45,-423,6
  1512205130,0.0041,-0.0471,0.3445,94.18,-126.59,903.56,40,-428,8
  1512205130,-0.0019,-0.0200,0.3198,155.82,-159.18,884.70,40,-428,8
  1512205130,-0.0016,-0.0535,0.3297,124.63,-147.09,900.09,40,-428,8
  1512205130,-0.0324,-0.0996,0.3384,79.28,-95.95,887.88,40,-428,8
  1512205130,-0.0300,-0.0499,0.3526,124.27,-115.42,873.72,49,-433,-13
  1512205130,-0.0575,-0.0543,0.3546,96.37,-86.67,949.04,49,-433,-13
  1512205130,0.0061,-0.0137,0.3566,56.70,-88.20,971.19,49,-433,-13
  1512205130,0.0004,-0.0127,0.3626,103.94,-67.20,938.29,49,-433,-13
  1512205130,-0.0209,-0.0302,0.3704,83.01,-63.48,939.58,49,-433,-13
  1512205130,-0.0093,-0.0250,0.3665,96.74,-127.01,952.33,63,-433,-16
  1512205130,-0.0059,-0.0212,0.3438,-16.05,-118.77,896.91,63,-433,-16
  1512205130,-0.0224,-0.0269,0.3471,81.97,-131.59,897.83,63,-433,-16
  1512205130,-0.0107,-0.0272,0.3442,49.07,-131.53,868.29,63,-433,-16
  1512205130,-0.0140,-0.0079,0.3370,60.67,-152.34,879.58,87,-423,16
  1512205130,-0.0113,0.0166,0.3330,70.37,-142.76,897.71,87,-423,16
  1512205130,0.0060,0.0172,0.3361,91.19,-134.16,906.43,87,-423,16
  1512205130,-0.0061,-0.0063,0.3463,62.13,-178.10,849.37,87,-423,16
  1512205131,-0.0198,-0.0240,0.3688,111.21,-151.06,862.49,87,-423,16
  1512205131,-0.0655,-0.0253,0.3747,57.43,-163.82,863.65,79,-438,-5
  1512205131,-0.0356,-0.0004,0.3659,99.79,-172.85,882.32,79,-438,-5
  1512205131,-0.0077,0.0128,0.3599,78.61,-164.86,935.73,79,-438,-5
  1512205131,0.0435,0.0197,0.3662,82.03,-157.10,971.13,79,-438,-5
  1512205131,0.0068,0.0298,0.3707,62.19,-187.87,876.83,79,-438,-5
  1512205131,-0.0120,0.0378,0.3515,43.40,-189.64,855.77,86,-438,-8
  1512205131,-0.0073,0.0318,0.3455,-2.08,-143.62,843.99,86,-438,-8
  1512205131,-0.0233,-0.0125,0.3627,100.28,-160.22,884.03,86,-438,-8
  1512205131,-0.0254,-0.0193,0.3570,110.60,-168.21,942.69,86,-438,-8
  1512205131,-0.0214,-0.0075,0.3573,63.54,-164.31,944.46,86,-438,-8
  1512205131,-0.0077,0.0043,0.3503,56.21,-143.92,939.27,110,-431,-8
  1512205131,0.0124,0.0184,0.3447,86.85,-177.06,907.59,110,-431,-8
  1512205131,-0.0105,0.0150,0.3352,103.64,-166.26,872.13,110,-431,-8
  1512205131,-0.0169,-0.0177,0.3590,93.20,-159.91,887.88,110,-431,-8
  1512205131,-0.0003,0.0047,0.3447,31.80,-139.59,886.05,114,-428,-15
  1512205131,-0.0072,-0.0004,0.3482,76.48,-133.67,871.64,114,-428,-15
  1512205131,-0.0177,-0.0051,0.3447,91.67,-186.83,915.53,114,-428,-15
  1512205131,0.0003,0.0007,0.3465,1.34,-123.60,890.14,114,-428,-15
  1512205131,-0.0085,-0.0121,0.3427,-1.04,-149.72,922.24,114,-428,-15
  1512205131,-0.0091,0.0003,0.3325,57.68,-181.03,923.95,119,-419,-6
  1512205131,-0.0072,0.0233,0.3242,69.52,-155.88,889.71,119,-419,-6
  1512205131,-0.0041,0.0294,0.3103,78.80,-184.63,957.15,119,-419,-6
  1512205131,0.0085,0.0356,0.2989,50.90,-174.01,923.40,119,-419,-6
  1512205131,0.0182,0.0377,0.2925,64.21,-155.03,879.70,119,-419,-6
  1512205131,0.0286,0.0302,0.2843,96.62,-140.62,901.18,126,-423,13
  1512205131,0.0349,0.0594,0.2682,82.58,-181.76,876.46,126,-423,13
  1512205131,0.0553,0.0771,0.2688,49.07,-174.62,910.64,126,-423,13
  1512205131,0.0602,0.0967,0.2666,60.18,-181.76,778.75,126,-423,13
  1512205131,0.0546,0.0723,0.2747,58.59,-182.01,806.40,137,-398,-13
  1512205131,0.0242,0.0352,0.2700,18.43,-180.42,866.58,137,-398,-13
  1512205131,-0.0044,0.0264,0.2679,3.60,-168.03,801.21,137,-398,-13
  1512205131,-0.0212,-0.0008,0.2680,-16.54,-169.62,880.43,137,-398,-13
  1512205131,-0.0304,-0.0152,0.2615,4.21,-156.68,910.71,137,-398,-13
  1512205131,-0.0337,0.0023,0.2458,-11.84,-193.85,890.99,130,-416,-3
  1512205131,-0.0438,0.0001,0.2405,11.11,-178.28,927.19,130,-416,-3
  1512205131,-0.0430,-0.0096,0.2324,8.18,-177.86,923.40,130,-416,-3
  1512205132,-0.0506,-0.0161,0.2284,31.80,-166.56,929.20,130,-416,-3
  1512205132,-0.0366,-0.0266,0.2237,30.03,-190.61,947.33,138,-417,8
  1512205132,-0.0338,-0.0186,0.2252,37.78,-176.70,907.10,138,-417,8
  1512205132,-0.0350,-0.0326,0.2264,46.33,-193.24,953.92,138,-417,8
  1512205132,-0.0180,-0.0309,0.2277,43.88,-195.98,964.66,138,-417,8
  1512205132,-0.0115,-0.0301,0.2333,55.24,-177.06,941.41,138,-417,8
  1512205132,-0.0103,-0.0325,0.2238,37.66,-205.20,965.45,149,-410,-5
  1512205132,0.0007,-0.0248,0.2230,17.52,-166.75,944.64,149,-410,-5
  1512205132,-0.0036,-0.0250,0.2250,22.71,-183.65,947.02,149,-410,-5
  1512205132,-0.0037,0.0015,0.2181,24.11,-189.82,905.94,149,-410,-5
  1512205132,-0.0111,-0.0016,0.2164,62.01,-208.13,931.27,149,-410,-5
  1512205132,-0.0047,-0.0048,0.2071,37.29,-193.42,932.01,165,-423,-6
  1512205132,-0.0217,0.0087,0.1992,77.21,-201.60,928.22,165,-423,-6
  1512205132,-0.0174,-0.0020,0.2017,36.13,-204.41,958.01,165,-423,-6
  1512205132,-0.0161,0.0013,0.2019,31.43,-204.35,917.97,165,-423,-6
  1512205132,-0.0162,0.0364,0.2004,88.99,-206.18,824.89,156,-393,1
  1512205132,-0.0154,0.0365,0.1992,63.05,-212.10,919.43,156,-393,1
  1512205132,-0.0141,0.0365,0.2008,116.82,-217.10,880.86,156,-393,1
  1512205132,-0.0246,0.0150,0.2037,71.04,-199.16,890.62,156,-393,1
  1512205132,-0.0210,0.0120,0.1953,36.87,-165.83,934.20,156,-393,1
  1512205132,-0.0120,0.0113,0.1989,18.19,-234.92,928.34,152,-393,-1
  1512205132,-0.0334,0.0264,0.1928,68.42,-218.75,881.77,152,-393,-1
  1512205132,-0.0292,-0.0001,0.1917,-32.47,-196.11,995.42,152,-393,-1
  1512205132,-0.0124,-0.0189,0.1898,19.96,-192.57,989.93,152,-393,-1
  1512205132,-0.0032,-0.0184,0.1973,-12.39,-163.02,930.36,152,-393,-1
  1512205132,-0.0024,-0.0117,0.1875,-27.04,-204.96,939.33,173,-389,11
  1512205132,-0.0109,-0.0023,0.1860,39.79,-214.48,893.74,173,-389,11
  1512205132,-0.0096,0.0184,0.1755,56.95,-221.86,875.43,173,-389,11
  1512205132,-0.0052,0.0043,0.1820,39.49,-190.00,852.48,173,-389,11
  1512205132,-0.0153,-0.0027,0.1655,48.40,-237.24,850.10,182,-391,-3
  1512205132,-0.0229,-0.0077,0.1683,19.65,-202.70,878.78,182,-391,-3
  1512205132,-0.0206,0.0218,0.1582,36.93,-230.47,858.95,182,-391,-3
  1512205132,-0.0095,0.0257,0.1515,44.07,-218.26,893.13,182,-391,-3
  1512205132,-0.0068,0.0262,0.1549,33.69,-209.66,882.39,182,-391,-3
  1512205132,-0.0128,0.0272,0.1546,39.98,-187.87,888.73,165,-398,3
  1512205132,-0.0150,0.0185,0.1360,-13.12,-180.91,925.96,165,-398,3
  1512205132,-0.0071,0.0160,0.1316,-11.96,-215.58,948.43,165,-398,3
  1512205132,-0.0043,0.0218,0.1273,-13.55,-200.74,902.53,165,-398,3
  1512205133,-0.0119,0.0261,0.1204,-2.44,-223.39,869.26,165,-398,3
  1512205133,-0.0029,0.0345,0.1190,-12.94,-196.29,857.06,184,-375,-1
  1512205133,-0.0164,0.0450,0.1069,20.02,-215.88,881.90,184,-375,-1
  1512205133,-0.0186,0.0410,0.1019,-1.04,-232.30,890.93,184,-375,-1
  1512205133,-0.0222,0.0380,0.0985,16.85,-208.80,880.80,184,-375,-1
  1512205133,-0.0210,0.0238,0.1024,11.47,-237.30,926.57,177,-375,8
  1512205133,-0.0316,0.0202,0.0991,-28.69,-221.25,889.71,177,-375,8
  1512205133,-0.0170,0.0341,0.0956,-1.46,-212.04,850.28,177,-375,8
  1512205133,-0.0087,0.0376,0.0909,20.39,-251.95,922.30,177,-375,8
  1512205133,0.0029,0.0454,0.0919,11.11,-216.92,916.93,177,-375,8
  1512205133,-0.0005,0.0582,0.0855,29.42,-194.89,872.19,172,-377,10
  1512205133,0.0023,0.0599,0.0787,-32.90,-207.82,889.83,172,-377,10
  1512205133,-0.0152,0.0457,0.0710,-11.11,-229.80,886.41,172,-377,10
  1512205133,-0.0004,0.0365,0.0768,-33.75,-212.10,943.97,172,-377,10
  1512205133,0.0049,0.0352,0.0822,-43.15,-161.87,881.47,166,-375,1
  1512205133,-0.0176,0.0348,0.0566,-2.93,-187.07,937.50,166,-375,1
  1512205133,-0.0206,0.0237,0.0565,-39.25,-212.40,942.99,166,-375,1
  1512205133,-0.0189,0.0296,0.0594,-42.54,-211.98,928.41,166,-375,1
  1512205133,-0.0088,0.0407,0.0531,3.97,-226.75,865.60,166,-375,1
  1512205133,-0.0044,0.0426,0.0557,22.03,-228.64,875.92,182,-356,16
  1512205133,0.0001,0.0511,0.0485,21.61,-213.81,919.92,182,-356,16
  1512205133,0.0079,0.0441,0.0531,-9.03,-202.76,902.10,182,-356,16
  1512205133,0.0065,0.0421,0.0447,-20.87,-222.96,902.95,182,-356,16
  1512205133,-0.0024,0.0336,0.0458,13.00,-213.81,882.32,182,-356,16
  1512205133,-0.0088,0.0352,0.0477,0.67,-207.34,849.18,180,-364,22
  1512205133,-0.0116,0.0232,0.0449,-54.44,-204.77,852.23,180,-364,22
  1512205133,-0.0189,0.0112,0.0441,-32.47,-182.86,873.72,180,-364,22
  1512205133,-0.0021,0.0076,0.0477,-26.86,-193.66,892.03,180,-364,22
  1512205133,-0.0099,-0.0012,0.0437,-41.02,-181.34,938.48,186,-373,27
  1512205133,-0.0161,-0.0033,0.0401,-52.12,-208.01,947.81,186,-373,27
  1512205133,-0.0140,-0.0039,0.0394,-47.55,-192.75,931.09,186,-373,27
  1512205133,-0.0202,0.0048,0.0376,-42.97,-220.28,885.74,186,-373,27
  1512205133,-0.0266,0.0127,0.0213,-15.99,-217.59,882.39,186,-373,27
  1512205133,-0.0216,0.0200,0.0242,-25.94,-231.02,882.08,186,-359,33
  1512205133,-0.0253,0.0256,0.0278,3.60,-212.28,883.61,186,-359,33
  1512205133,-0.0382,0.0061,0.0241,-25.39,-213.93,971.56,186,-359,33
  1512205133,-0.0506,0.0369,0.0216,-23.19,-244.32,758.00,186,-359,33
  1512205133,-0.0270,0.0170,0.0246,-3.17,-247.68,913.94,186,-359,33
  1512205134,-0.0281,0.0380,0.0270,-6.47,-234.80,796.33,188,-364,22
  1512205134,-0.0268,0.0149,0.0262,2.99,-256.10,957.28,188,-364,22
  1512205134,-0.0152,0.0354,0.0220,-18.07,-235.41,933.23,188,-364,22
  1512205134,-0.0230,0.0550,0.0142,-16.17,-200.44,889.71,188,-364,22
  1512205134,-0.0250,0.0505,0.0226,-55.30,-230.16,858.89,179,-352,16
  1512205134,-0.0128,-0.0300,0.0222,-75.93,-201.05,1040.89,179,-352,16
  1512205134,0.0095,0.0304,0.0330,-63.96,-153.08,887.45,179,-352,16
  1512205134,-0.0093,0.0096,0.0134,-59.57,-188.72,1013.31,179,-352,16
  1512205134,-0.0117,0.0278,0.0021,-86.00,-230.90,915.65,179,-352,16
  1512205134,-0.0196,0.0430,0.0045,-59.88,-191.28,906.56,193,-377,37
  1512205134,-0.0165,0.0193,0.0080,-49.19,-208.50,966.06,193,-377,37
  1512205134,-0.0168,0.0142,0.0080,-42.30,-187.07,953.74,193,-377,37
  1512205134,-0.0164,0.0190,0.0109,-19.10,-207.95,958.74,193,-377,37
  1512205134,-0.0170,0.0328,0.0117,-54.08,-206.12,954.77,193,-377,37
  1512205134,-0.0152,0.0407,0.0157,-22.46,-231.75,905.09,189,-377,0
  1512205134,-0.0214,0.0409,0.0216,-65.00,-203.86,879.09,189,-377,0
  1512205134,-0.0317,0.0293,0.0182,2.56,-208.56,910.58,189,-377,0
  1512205134,-0.0314,0.0281,0.0142,-23.07,-234.44,880.31,189,-377,0
  1512205134,0.0108,0.0660,0.0068,-24.41,-210.69,818.48,186,-363,3
  1512205134,-0.0107,-0.0192,0.0128,122.31,-305.79,1148.13,186,-363,3
  1512205134,-0.0108,0.0144,0.0218,-23.56,-209.47,959.05,186,-363,3
  1512205134,0.0119,-0.0138,-0.0049,-31.68,-267.58,1121.40,186,-363,3
  1512205134,-0.0072,-0.0035,0.0035,-41.81,-183.72,823.79,186,-363,3
  1512205134,-0.0039,0.0092,0.0036,-68.54,-281.01,953.55,198,-343,18
  1512205134,-0.0044,0.0210,-0.0064,-69.89,-253.23,815.98,198,-343,18
  1512205134,-0.0133,0.0083,0.0260,43.76,-167.05,811.40,198,-343,18
  1512205134,-0.0193,-0.0364,0.0144,-40.10,-255.13,957.76,198,-343,18
  1512205134,-0.0133,0.0164,0.0077,-9.77,-147.83,839.05,188,-350,-8
  1512205134,0.0003,0.0413,0.0024,-48.22,-260.25,922.73,188,-350,-8
  1512205134,0.0077,0.0675,-0.0045,20.14,-128.54,799.07,188,-350,-8
  1512205134,0.0045,-0.0134,0.0246,-81.73,-217.04,996.46,188,-350,-8
  1512205134,0.0083,-0.0313,0.0177,-100.65,-213.99,928.10,188,-350,-8
  1512205134,-0.0051,-0.0033,0.0176,-98.69,-202.88,897.46,189,-366,13
  1512205134,0.0156,-0.0184,0.0124,-56.34,-220.95,880.37,189,-366,13
  1512205134,0.0172,-0.0076,0.0101,-45.72,-181.46,871.03,189,-366,13
  1512205134,0.0168,0.0137,0.0033,43.21,-224.30,935.91,189,-366,13
  1512205134,0.0198,0.0178,0.0115,-13.79,-205.14,957.03,189,-366,13
  1512205134,0.0130,0.0254,-0.0136,53.41,-238.89,961.00,179,-370,13
  1512205135,0.0269,0.0406,-0.0040,-29.79,-211.06,914.43,179,-370,13
  1512205135,0.0242,0.0212,0.0003,4.82,-227.66,926.39,179,-370,13
  1512205135,0.0258,0.0083,0.0021,-36.56,-197.88,943.66,179,-370,13
  1512205135,0.0305,0.0330,0.0035,-37.48,-229.37,855.59,186,-363,3
  1512205135,0.0300,0.0703,-0.0025,44.98,-156.07,887.63,186,-363,3
  1512205135,0.0052,0.0329,0.0041,-104.92,-294.92,991.94,186,-363,3
  1512205135,0.0284,0.0541,-0.0246,-67.63,-221.19,691.89,186,-363,3
  1512205135,0.0506,0.0394,0.0136,-88.93,-182.92,916.32,186,-363,3
  1512205135,0.0049,-0.0035,-0.0087,-65.31,-245.00,872.92,166,-368,11
  1512205135,0.0170,0.0342,-0.0137,-83.86,-202.03,800.84,166,-368,11
  1512205135,0.0281,0.0035,0.0007,-118.04,-185.79,860.78,166,-368,11
  1512205135,0.0181,-0.0121,-0.0178,-57.74,-228.82,886.84,166,-368,11
  1512205135,0.0269,-0.0048,-0.0076,-85.57,-216.06,828.43,166,-368,11
  1512205135,0.0201,-0.0003,-0.0141,5.43,-192.02,933.53,177,-354,8
  1512205135,0.0201,0.0138,-0.0172,-81.60,-196.47,902.53,177,-354,8
  1512205135,0.0181,0.0076,-0.0158,-65.49,-216.43,901.06,177,-354,8
  1512205135,0.0157,0.0216,-0.0130,-55.36,-213.62,851.62,177,-354,8
  1512205135,0.0264,0.0029,-0.0016,-50.11,-137.88,840.03,163,-361,18
  1512205135,0.0293,-0.0284,0.0016,-45.96,-164.61,906.13,163,-361,18
  1512205135,0.0280,-0.0154,-0.0040,0.98,-123.72,900.02,163,-361,18
  1512205135,0.0471,0.0113,-0.0056,-30.09,-160.95,857.30,163,-361,18
  1512205135,0.0439,0.0016,-0.0166,-16.85,-187.68,896.73,163,-361,18
  1512205135,0.0349,-0.0069,-0.0208,-20.63,-190.00,890.38,180,-371,11
  1512205135,0.0458,-0.0176,-0.0173,-80.57,-142.70,900.57,180,-371,11
  1512205135,0.0515,-0.0101,-0.0138,-94.48,-105.83,879.58,180,-371,11
  1512205135,0.0401,-0.0100,-0.0240,-71.29,-148.19,912.54,180,-371,11
  1512205135,0.0401,-0.0035,-0.0254,-60.79,-145.02,923.46,180,-371,11
  1512205135,0.0469,0.0057,-0.0281,-77.58,-139.10,855.35,170,-357,15
  1512205135,0.0328,-0.0158,-0.0340,-41.44,-125.79,911.74,170,-357,15
  1512205135,0.0269,-0.0170,-0.0337,-30.21,-150.94,869.81,170,-357,15
  1512205135,0.0152,-0.0285,-0.0403,-24.05,-148.07,882.39,170,-357,15
  1512205135,0.0225,-0.0302,-0.0330,6.35,-120.24,885.80,182,-384,-6
  1512205135,0.0180,-0.0437,-0.0310,-44.74,-111.08,921.08,182,-384,-6
  1512205135,0.0154,-0.0330,-0.0301,-38.02,-111.82,880.13,182,-384,-6
  1512205135,0.0047,-0.0233,-0.0381,-77.33,-114.01,884.70,182,-384,-6
  1512205135,0.0148,-0.0252,-0.0401,-61.65,-119.93,900.76,182,-384,-6
  1512205135,0.0180,-0.0349,-0.0360,-58.65,-93.93,905.88,198,-375,-1
  1512205135,0.0200,-0.0076,-0.0459,-73.67,-91.74,845.21,198,-375,-1
  1512205136,0.0093,0.0033,-0.0510,-51.03,-118.41,846.86,198,-375,-1
  1512205136,0.0065,-0.0240,-0.0534,-70.86,-117.07,901.67,198,-375,-1
  1512205136,0.0140,-0.0277,-0.0471,-59.27,-93.38,836.67,170,-382,1
  1512205136,0.0104,-0.0264,-0.0458,-77.33,-115.97,880.07,170,-382,1
  1512205136,0.0140,-0.0208,-0.0567,-43.58,-119.63,875.18,170,-382,1
  1512205136,0.0140,-0.0186,-0.0523,-81.24,-100.28,907.35,170,-382,1
  1512205136,0.0158,-0.0201,-0.0562,-89.54,-99.18,915.47,170,-382,1
  1512205136,0.0016,-0.0377,-0.0606,-45.84,-66.83,899.66,161,-359,13
  1512205136,-0.0015,-0.0475,-0.0574,-96.13,-102.72,890.69,161,-359,13
  1512205136,0.0051,-0.0451,-0.0654,-101.50,-85.45,829.59,161,-359,13
  1512205136,0.0061,-0.0244,-0.0639,-84.84,-93.93,846.31,161,-359,13
  1512205136,0.0087,-0.0246,-0.0763,-20.75,-87.46,852.54,161,-359,13
  1512205136,0.0104,-0.0233,-0.0827,-43.33,-133.73,926.03,170,-375,8
  1512205136,0.0146,-0.0309,-0.0752,-75.01,-116.15,936.95,170,-375,8
  1512205136,0.0132,-0.0341,-0.0766,-78.86,-70.01,885.86,170,-375,8
  1512205136,0.0121,-0.0462,-0.0772,-57.86,-84.84,944.95,170,-375,8
  1512205136,0.0256,-0.0498,-0.0723,-84.17,-72.45,912.90,170,-375,8
  1512205136,0.0262,-0.0297,-0.0708,-58.04,-74.52,873.60,159,-371,5
  1512205136,0.0140,-0.0423,-0.0847,-102.97,-52.80,890.93,159,-371,5
  1512205136,-0.0013,-0.0607,-0.0811,-95.09,-51.15,950.56,159,-371,5
  1512205136,-0.0123,-0.0517,-0.0828,-123.90,-73.73,962.10,159,-371,5
  1512205136,-0.0032,-0.0173,-0.0925,-158.57,-66.22,965.70,158,-384,23
  1512205136,-0.0132,0.0146,-0.1003,-91.55,-42.54,926.27,158,-384,23
  1512205136,-0.0238,0.0210,-0.1096,-75.81,-79.96,963.20,158,-384,23
  1512205136,-0.0289,0.0190,-0.1087,-68.12,-91.43,880.13,158,-384,23
  1512205136,-0.0333,0.0011,-0.1060,-55.48,-58.78,889.83,158,-384,23
  1512205136,-0.0236,-0.0064,-0.1057,-68.36,-61.46,880.92,159,-382,49
  1512205136,-0.0198,-0.0140,-0.1109,-65.67,-113.71,826.05,159,-382,49
  1512205136,-0.0040,-0.0232,-0.1127,-76.35,-71.29,842.90,159,-382,49
  1512205136,-0.0008,-0.0493,-0.1156,-61.52,-69.58,870.30,159,-382,49
  1512205136,-0.0093,-0.0265,-0.1261,-70.92,-77.09,845.58,188,-364,45
  1512205136,-0.0092,-0.0348,-0.1268,-57.31,-102.78,935.49,188,-364,45
  1512205136,-0.0217,-0.0109,-0.1430,-21.30,-89.84,830.57,188,-364,45
  1512205136,-0.0288,-0.0096,-0.1442,-30.09,-91.25,950.07,188,-364,45
  1512205136,-0.0300,-0.0204,-0.1562,-90.03,-80.32,927.37,188,-364,45
  1512205136,-0.0306,-0.0097,-0.1602,-71.66,-71.90,872.99,193,-359,27
  1512205136,-0.0134,-0.0141,-0.1546,-70.25,-68.30,929.57,193,-359,27
  1512205136,-0.0144,-0.0103,-0.1579,-57.13,-100.46,945.25,193,-359,27
  1512205137,-0.0160,-0.0170,-0.1599,-62.44,-61.83,913.39,193,-359,27
  1512205137,-0.0166,-0.0397,-0.1477,-107.85,-48.89,936.58,193,-359,27
  1512205137,-0.0149,-0.0591,-0.1538,-112.73,-45.53,944.03,188,-368,32
  1512205137,-0.0040,-0.0230,-0.1687,-91.00,-86.49,861.02,188,-368,32
  1512205137,0.0017,-0.0073,-0.1687,-89.60,-88.50,911.32,188,-368,32
  1512205137,0.0180,0.0100,-0.1758,-54.87,-88.20,953.80,188,-368,32
  1512205137,0.0310,0.0015,-0.1747,-94.42,-32.10,954.71,189,-380,16
  1512205137,0.0354,0.0153,-0.1827,-93.08,-55.73,916.56,189,-380,16
  1512205137,0.0272,0.0144,-0.1863,-68.05,-85.21,859.50,189,-380,16
  1512205137,0.0232,0.0067,-0.1844,-68.24,-98.08,855.53,189,-380,16
  1512205137,0.0096,-0.0059,-0.1815,-60.18,-66.22,808.90,189,-380,16
  1512205137,-0.0021,-0.0221,-0.1804,-70.74,-75.07,879.58,173,-396,28
  1512205137,-0.0209,-0.0182,-0.1872,-48.46,-60.55,862.92,173,-396,28
  1512205137,-0.0265,-0.0148,-0.1915,-58.35,-64.88,912.11,173,-396,28
  1512205137,-0.0272,-0.0116,-0.2011,-12.08,-65.49,939.33,173,-396,28
  1512205137,-0.0270,-0.0186,-0.1969,-91.74,-75.38,898.25,173,-396,28
  1512205137,-0.0229,-0.0048,-0.2092,-74.58,-77.09,886.84,180,-382,25
  1512205137,-0.0071,0.0048,-0.2056,-121.15,-39.06,887.76,180,-382,25
  1512205137,0.0000,-0.0025,-0.2109,-94.24,-62.38,884.52,180,-382,25
  1512205137,-0.0111,-0.0092,-0.2149,-118.84,-68.79,900.21,180,-382,25
  1512205137,-0.0005,-0.0202,-0.2143,-143.13,-40.28,877.99,165,-391,16
  1512205137,0.0039,-0.0027,-0.2059,-118.04,-97.29,901.98,165,-391,16
  1512205137,0.0160,-0.0027,-0.2060,-133.12,-52.00,865.60,165,-391,16
  1512205137,0.0047,0.0134,-0.2093,-138.98,-72.08,816.89,165,-391,16
  1512205137,0.0075,0.0005,-0.2156,-96.56,-76.97,885.13,165,-391,16
  1512205137,-0.0047,-0.0081,-0.2151,-80.75,-73.18,927.06,152,-386,18
  1512205137,-0.0076,-0.0067,-0.2218,-106.57,-77.39,930.85,152,-386,18
  1512205137,-0.0025,-0.0064,-0.2189,-127.20,-49.74,929.08,152,-386,18
  1512205137,-0.0116,-0.0067,-0.2198,-70.80,-70.50,899.05,152,-386,18
  1512205137,-0.0089,-0.0081,-0.2178,-67.50,-39.49,992.92,145,-396,28
  1512205137,-0.0115,0.0125,-0.2276,-53.71,-71.96,963.13,145,-396,28
  1512205137,-0.0123,0.0168,-0.2345,-101.56,-59.20,984.19,145,-396,28
  1512205137,-0.0166,0.0093,-0.2382,-68.42,-101.44,930.73,145,-396,28
  1512205137,-0.0121,0.0036,-0.2236,-27.59,-32.59,925.84,145,-396,28
  1512205137,-0.0125,0.0181,-0.2270,-106.57,-53.16,915.89,137,-387,20
  1512205137,-0.0218,0.0172,-0.2345,-51.27,-35.71,1007.57,137,-387,20
  1512205137,-0.0103,0.0064,-0.2204,-78.25,9.40,900.09,137,-387,20
  1512205138,-0.0193,0.0218,-0.2429,-148.19,-56.27,900.45,137,-387,20
  1512205138,-0.0245,0.0276,-0.2461,-186.40,-17.27,811.46,137,-387,20
  1512205138,-0.0329,0.0184,-0.2461,-215.21,-44.25,874.33,144,-387,40
  1512205138,-0.0305,0.0052,-0.2471,-155.52,-56.88,871.03,144,-387,40
  1512205138,-0.0366,0.0152,-0.2530,-147.52,-62.07,927.98,144,-387,40
  1512205138,-0.0210,0.0166,-0.2591,-146.61,-23.13,944.82,144,-387,40
  1512205138,-0.0314,0.0080,-0.2638,-186.46,-24.23,965.33,145,-400,22
  1512205138,-0.0172,0.0138,-0.2609,-154.42,-50.72,911.32,145,-400,22
  1512205138,-0.0213,0.0489,-0.2615,-118.10,-1.53,880.49,145,-400,22
  1512205138,-0.0148,0.0672,-0.2630,-153.93,-70.37,890.14,145,-400,22
  1512205138,-0.0157,0.0879,-0.2860,-124.02,-60.36,892.09,145,-400,22
  1512205138,-0.0108,0.0846,-0.2666,-127.87,-46.20,876.04,147,-398,20
  1512205138,-0.0097,0.0619,-0.2782,-117.86,-61.22,948.91,147,-398,20
  1512205138,-0.0120,0.0586,-0.2742,-104.37,-28.20,860.66,147,-398,20
  1512205138,-0.0031,0.0041,-0.2593,-157.10,-18.13,916.56,147,-398,20
  1512205138,-0.0045,-0.0218,-0.2574,-172.18,-8.73,937.56,131,-396,42
  1512205138,0.0004,0.0368,-0.2710,-141.97,-67.14,869.45,131,-396,42
  1512205138,-0.0007,0.0095,-0.2743,-83.98,-28.81,909.12,131,-396,42
  1512205138,-0.0041,-0.0180,-0.2671,-142.27,-51.27,963.44,131,-396,42
  1512205138,-0.0024,-0.0055,-0.2779,-126.40,-27.71,907.71,131,-396,42
  1512205138,-0.0047,0.0216,-0.2696,-74.22,-80.20,900.63,122,-394,33
  1512205138,0.0047,0.0318,-0.2820,-139.59,-20.45,914.25,122,-394,33
  1512205138,0.0064,0.0157,-0.3429,-145.57,-101.20,905.40,122,-394,33
  1512205138,-0.0047,-0.0176,-0.2768,-105.10,-76.66,917.42,122,-394,33
  1512205138,0.0063,-0.0137,-0.2601,-182.43,-52.92,879.52,122,-394,33
  1512205138,0.0071,-0.0213,-0.2655,-139.16,-65.25,911.62,122,-398,37
  1512205138,0.0057,-0.0080,-0.2515,-101.56,-44.31,887.82,122,-398,37
  1512205138,0.0132,0.0119,-0.2577,-149.48,-61.77,898.86,122,-398,37
  1512205138,0.0069,0.0226,-0.2593,-138.73,-49.50,867.92,122,-398,37
  1512205138,-0.0013,0.0049,-0.2575,-117.92,-50.90,912.96,122,-419,23
  1512205138,-0.0043,-0.0057,-0.2531,-167.30,-75.01,900.57,122,-419,23
  1512205138,-0.0019,-0.0079,-0.2531,-114.38,-56.95,893.31,122,-419,23
  1512205138,0.0101,0.0100,-0.2545,-109.68,-65.12,924.56,122,-419,23
  1512205138,0.0193,0.0274,-0.2557,-135.56,-79.59,917.18,122,-419,23
  1512205138,0.0240,0.0221,-0.2626,-134.95,-77.33,924.44,115,-409,37
  1512205138,0.0290,0.0084,-0.2578,-138.12,-71.35,920.65,115,-409,37
  1512205138,0.0274,0.0044,-0.2514,-105.10,-48.40,883.42,115,-409,37
  1512205138,0.0268,0.0009,-0.2407,-145.08,-85.33,832.95,115,-409,37
  1512205139,0.0293,-0.0096,-0.2337,-100.95,-60.79,859.99,115,-409,37
  1512205139,0.0253,-0.0260,-0.2230,-113.59,-37.78,964.72,96,-414,22
  1512205139,0.0158,-0.0178,-0.2225,-123.17,-73.97,898.13,96,-414,22
  1512205139,0.0035,-0.0206,-0.2272,-106.99,-85.14,873.96,96,-414,22
  1512205139,0.0142,-0.0226,-0.2172,-85.08,-61.71,823.49,96,-414,22
  1512205139,0.0099,-0.0119,-0.2153,-78.43,-77.64,899.90,98,-405,27
  1512205139,0.0069,-0.0134,-0.2123,-52.06,-62.99,940.55,98,-405,27
  1512205139,0.0111,-0.0385,-0.1999,-76.60,-67.44,916.26,98,-405,27
  1512205139,0.0077,-0.0503,-0.1947,-99.00,-69.89,904.72,98,-405,27
  1512205139,0.0020,-0.0293,-0.1931,-111.88,-61.04,867.92,98,-405,27
  1512205139,0.0051,-0.0138,-0.1826,-72.75,-92.10,889.59,84,-423,23
  1512205139,0.0068,-0.0083,-0.1795,-44.31,-96.01,922.97,84,-423,23
  1512205139,0.0061,0.0057,-0.1718,-65.37,-74.16,879.15,84,-423,23
  1512205139,0.0020,-0.0113,-0.1609,-57.50,-104.31,890.01,84,-423,23
  1512205139,0.0029,-0.0196,-0.1557,-58.35,-91.31,892.82,84,-423,23
  1512205139,0.0071,-0.0141,-0.1409,-44.74,-50.60,850.71,94,-423,33
  1512205139,0.0113,-0.0216,-0.1344,-84.53,-97.66,927.25,94,-423,33
  1512205139,0.0148,-0.0188,-0.1302,-28.56,-85.88,911.74,94,-423,33
  1512205139,0.0051,-0.0072,-0.1226,-42.18,-88.07,887.94,94,-423,33
  1512205139,-0.0007,-0.0096,-0.1216,-16.60,-84.29,884.95,79,-435,28
  1512205139,-0.0150,-0.0130,-0.1135,-35.46,-97.60,864.69,79,-435,28
  1512205139,-0.0250,-0.0192,-0.1052,6.77,-102.11,880.68,79,-435,28
  1512205139,-0.0334,-0.0121,-0.0941,7.81,-103.70,865.54,79,-435,28
