time_unix,rotate_x,rotate_y,rotate_z,acc_x,acc_y,acc_z,mag_x,mag_y,mag_z
1512177495,-0.0019,-0.0023,-0.0008,-78.61,-78.74,935.91,5,-1,-5
1512177495,0.0007,0.0007,0.0013,-78.61,-76.17,917.72,5,-1,-5
1512177495,-0.0011,0.0047,0.0005,-72.63,-77.15,913.88,5,-1,-5
1512177495,0.0004,0.0007,0.0000,-79.04,-78.92,915.22,14,7,-10
1512177495,-0.0028,0.0016,0.0008,-80.02,-86.85,926.45,14,7,-10
1512177495,-0.0004,0.0028,-0.0004,-75.50,-69.09,923.46,14,7,-10
1512177495,-0.0008,-0.0005,-0.0007,-79.53,-72.51,902.04,14,7,-10
1512177495,-0.0024,0.0011,-0.0004,-77.21,-82.95,929.63,14,7,-10
1512177495,-0.0001,0.0015,0.0015,-68.73,-72.33,939.03,1,12,-5
1512177495,-0.0004,0.0013,-0.0005,-83.62,-75.99,907.71,1,12,-5
1512177495,-0.0028,0.0035,0.0000,-72.75,-84.11,918.21,1,12,-5
1512177495,-0.0004,0.0019,-0.0011,-70.50,-76.72,948.91,1,12,-5
1512177495,-0.0016,0.0008,-0.0005,-81.67,-80.99,925.84,1,12,-5
1512177495,-0.0031,0.0024,-0.0003,-70.19,-83.68,912.78,-1,5,-11
1512177495,-0.0021,0.0003,-0.0008,-77.03,-77.51,939.94,-1,5,-11
1512177495,-0.0024,0.0000,0.0000,-77.88,-83.13,930.05,-1,5,-11
1512177495,-0.0008,0.0021,0.0007,-72.27,-74.04,927.00,-1,5,-11
1512177495,-0.0004,-0.0003,-0.0001,-76.97,-73.18,924.01,-1,-8,-5
1512177495,-0.0035,-0.0005,0.0004,-39.73,-78.67,953.55,-1,-8,-5
1512177495,0.0012,0.0081,0.0005,-107.48,-93.93,915.47,-1,-8,-5
1512177495,0.0056,0.0033,0.0012,-96.56,-100.65,888.49,-1,-8,-5
1512177495,-0.0019,0.0012,-0.0009,-91.06,-113.77,900.88,-1,-8,-5
1512177495,-0.0067,0.0000,-0.0009,-64.88,-116.76,960.02,0,0,6
1512177495,-0.0007,0.0008,0.0012,-83.98,-101.99,883.24,0,0,6
1512177495,-0.0031,0.0043,0.0005,-70.01,-122.25,902.65,0,0,6
1512177495,-0.0025,0.0001,-0.0013,-77.21,-110.72,938.48,0,0,6
1512177495,-0.0020,0.0007,0.0003,-70.80,-120.12,916.02,0,3,6
1512177495,-0.0023,0.0024,-0.0003,-81.30,-122.01,908.63,0,3,6
1512177496,-0.0009,-0.0004,-0.0023,-71.11,-115.72,951.84,0,3,6
1512177496,-0.0033,0.0012,-0.0009,-83.80,-124.15,931.76,0,3,6
1512177496,-0.0004,0.0029,-0.0003,-80.20,-108.46,936.77,0,3,6
1512177496,-0.0017,-0.0019,-0.0003,-78.37,-99.61,945.31,0,-7,16
1512177496,-0.0013,-0.0008,0.0011,-89.17,-124.76,929.75,0,-7,16
1512177496,-0.0013,-0.0008,0.0013,-78.12,-110.90,943.91,0,-7,16
1512177496,-0.0033,-0.0043,0.0020,-77.09,-98.08,909.42,0,-7,16
1512177496,-0.0037,0.0017,-0.0004,-80.87,-125.61,918.58,0,-7,16
1512177496,-0.0003,-0.0032,-0.0003,-68.73,-109.44,942.02,-3,7,-3
1512177496,-0.0047,-0.0001,-0.0007,-75.32,-108.40,898.80,-3,7,-3
1512177496,-0.0065,0.0016,-0.0004,-76.23,-131.77,909.61,-3,7,-3
1512177496,-0.0021,-0.0015,0.0000,-74.10,-105.90,945.37,-3,7,-3
1512177496,-0.0011,0.0001,0.0019,-75.74,-100.59,897.52,15,-8,11
1512177496,-0.0001,0.0060,0.0033,-69.95,-127.75,916.20,15,-8,11
1512177496,-0.0012,-0.0008,0.0028,-64.82,-106.57,954.16,15,-8,11
1512177496,-0.0044,0.0012,0.0032,-80.32,-121.58,916.38,15,-8,11
1512177496,-0.0045,0.0027,0.0039,-69.82,-150.33,912.41,15,-8,11
1512177496,-0.0039,-0.0005,0.0029,-64.64,-120.18,951.17,1,19,8
1512177496,-0.0069,-0.0023,0.0059,-72.14,-133.97,914.61,1,19,8
1512177496,-0.0032,-0.0011,0.0047,-73.91,-169.07,898.13,1,19,8
1512177496,-0.0060,0.0001,0.0061,-71.35,-169.07,904.30,1,19,8
1512177496,-0.0043,0.0000,0.0051,-85.51,-160.16,961.18,19,15,-1
1512177496,-0.0119,-0.0024,0.0044,-71.84,-165.83,961.91,19,15,-1
1512177496,-0.0120,-0.0003,0.0060,-73.61,-172.91,958.01,19,15,-1
1512177496,-0.0145,-0.0021,0.0077,-73.61,-202.21,927.55,19,15,-1
1512177496,-0.0108,-0.0007,0.0116,-71.59,-203.06,903.26,19,15,-1
1512177496,-0.0127,-0.0048,0.0133,-71.11,-216.80,924.99,-3,-3,10
1512177496,-0.0140,-0.0008,0.0140,-68.91,-238.89,911.56,-3,-3,10
1512177496,-0.0152,-0.0027,0.0149,-60.61,-242.43,915.22,-3,-3,10
1512177496,-0.0180,-0.0040,0.0161,-57.74,-256.47,946.96,-3,-3,10
1512177496,-0.0150,-0.0028,0.0184,-66.41,-259.77,945.56,-3,-3,10
1512177496,-0.0144,0.0016,0.0176,-70.92,-263.24,943.24,5,15,22
1512177496,-0.0146,0.0016,0.0221,-50.60,-268.37,911.01,5,15,22
1512177496,-0.0129,-0.0012,0.0226,-66.59,-267.82,929.69,5,15,22
1512177496,-0.0129,-0.0052,0.0242,-66.53,-277.47,933.11,5,15,22
1512177496,-0.0076,-0.0001,0.0281,-79.83,-275.39,942.02,7,3,-3
1512177496,-0.0088,0.0036,0.0300,-73.18,-273.62,913.02,7,3,-3
1512177497,-0.0128,0.0009,0.0318,-69.34,-294.07,895.63,7,3,-3
1512177497,-0.0132,-0.0040,0.0348,-58.35,-311.34,957.95,7,3,-3
1512177497,-0.0039,-0.0004,0.0394,-79.04,-280.76,919.80,7,3,-3
1512177497,-0.0037,0.0013,0.0419,-85.45,-279.36,915.10,-1,5,1
1512177497,-0.0012,0.0017,0.0455,-86.79,-288.57,935.91,-1,5,1
1512177497,-0.0031,-0.0011,0.0479,-57.98,-291.20,942.20,-1,5,1
1512177497,0.0027,0.0051,0.0529,-88.07,-260.86,916.69,-1,5,1
1512177497,0.0012,0.0043,0.0505,-86.30,-265.81,938.96,1,-1,15
1512177497,-0.0037,0.0071,0.0533,-89.23,-302.55,973.57,1,-1,15
1512177497,-0.0043,0.0025,0.0593,-67.81,-258.24,922.49,1,-1,15
1512177497,-0.0051,0.0029,0.0599,-65.06,-275.76,897.28,1,-1,15
1512177497,-0.0020,0.0063,0.0630,-77.39,-270.69,934.39,1,-1,15
1512177497,0.0019,0.0055,0.0690,-66.77,-250.79,920.72,19,22,-8
1512177497,-0.0011,0.0039,0.0738,-49.38,-253.54,909.24,19,22,-8
1512177497,0.0013,0.0056,0.0748,-60.00,-245.85,908.26,19,22,-8
1512177497,0.0009,0.0064,0.0732,-46.75,-274.72,919.98,19,22,-8
1512177497,-0.0028,0.0037,0.0748,-73.97,-266.11,900.51,19,22,-8
1512177497,-0.0015,0.0017,0.0763,-50.05,-248.84,933.35,0,14,10
1512177497,-0.0020,0.0037,0.0768,-37.23,-295.65,957.21,0,14,10
1512177497,-0.0020,0.0083,0.0807,-27.89,-263.98,929.44,0,14,10
1512177497,0.0024,0.0117,0.0828,-67.38,-236.39,942.02,0,14,10
1512177497,0.0009,0.0053,0.0846,-43.82,-237.00,926.76,8,1,11
1512177497,0.0013,0.0089,0.0866,-70.80,-251.40,962.71,8,1,11
1512177497,-0.0067,0.0048,0.0887,-26.67,-236.02,958.74,8,1,11
1512177497,0.0063,0.0145,0.0929,-90.52,-212.40,945.98,8,1,11
1512177497,0.0080,0.0073,0.0921,-56.09,-241.52,935.18,8,1,11
1512177497,0.0053,0.0023,0.0969,-48.95,-215.39,900.39,-12,5,15
1512177497,-0.0105,-0.0089,0.0971,-33.87,-243.59,949.40,-12,5,15
1512177497,-0.0048,-0.0111,0.0963,-26.86,-242.98,920.10,-12,5,15
1512177497,-0.0057,-0.0124,0.0996,-47.18,-203.92,926.33,-12,5,15
1512177497,-0.0027,-0.0085,0.1019,-93.81,-226.26,942.08,-12,5,15
1512177497,0.0067,-0.0027,0.1004,-105.90,-246.40,916.81,-17,17,6
1512177497,0.0021,-0.0091,0.1043,-81.30,-246.58,938.17,-17,17,6
1512177497,0.0024,-0.0077,0.1081,-81.18,-254.82,958.56,-17,17,6
1512177497,0.0084,0.0011,0.1076,-69.64,-233.58,953.00,-17,17,6
1512177497,0.0021,0.0016,0.1116,-74.46,-231.14,932.56,-22,12,-8
1512177497,-0.0085,-0.0084,0.1116,-39.49,-229.31,914.49,-22,12,-8
1512177497,-0.0105,-0.0103,0.1154,-33.20,-264.22,948.24,-22,12,-8
1512177498,-0.0003,0.0020,0.1213,-60.06,-216.25,871.15,-22,12,-8
1512177498,-0.0085,-0.0041,0.1228,-29.48,-233.09,916.32,-22,12,-8
1512177498,0.0012,-0.0009,0.1230,-19.10,-235.11,931.95,-22,5,1
1512177498,0.0023,-0.0123,0.1318,28.56,-240.48,837.77,-22,5,1
1512177498,-0.0154,-0.0304,0.1324,-24.11,-221.62,951.54,-22,5,1
1512177498,0.0004,-0.0189,0.1330,8.06,-219.48,919.74,-22,5,1
1512177498,0.0000,-0.0041,0.1328,-32.10,-225.59,950.32,-33,1,-1
1512177498,-0.0076,-0.0004,0.1280,9.16,-287.78,903.44,-33,1,-1
1512177498,-0.0091,-0.0214,0.1337,-37.17,-212.83,889.59,-33,1,-1
1512177498,-0.0133,-0.0241,0.1380,-22.89,-236.94,912.72,-33,1,-1
1512177498,-0.0065,-0.0075,0.1394,-51.82,-223.14,958.31,-33,1,-1
1512177498,-0.0152,-0.0060,0.1413,-39.79,-229.55,911.19,-21,10,0
1512177498,-0.0113,-0.0045,0.1477,-20.94,-245.67,883.36,-21,10,0
1512177498,-0.0108,-0.0128,0.1487,5.98,-215.58,886.35,-21,10,0
1512177498,-0.0124,-0.0224,0.1565,9.09,-248.41,881.35,-21,10,0
1512177498,-0.0103,-0.0248,0.1537,-26.79,-235.11,941.53,-21,10,0
1512177498,-0.0119,-0.0085,0.1559,-11.96,-220.28,971.56,-42,-3,3
1512177498,-0.0013,0.0040,0.1573,24.41,-238.83,863.95,-42,-3,3
1512177498,0.0020,0.0180,0.1578,2.62,-191.89,855.77,-42,-3,3
1512177498,-0.0097,0.0052,0.1699,30.58,-252.14,929.44,-42,-3,3
1512177498,-0.0072,-0.0008,0.1855,23.25,-267.52,841.55,-42,14,0
1512177498,-0.0081,0.0061,0.1810,19.96,-182.31,845.15,-42,14,0
1512177498,-0.0113,0.0005,0.1728,-15.81,-234.44,971.62,-42,14,0
1512177498,0.0005,0.0096,0.1762,-21.55,-222.47,988.40,-42,14,0
1512177498,-0.0025,0.0065,0.1880,-13.79,-203.43,909.79,-42,14,0
1512177498,0.0047,0.0048,0.1819,-0.37,-213.87,1021.48,-45,7,6
1512177498,-0.0084,0.0148,0.1903,52.43,-194.89,961.98,-45,7,6
1512177498,-0.0095,0.0150,0.1892,69.82,-193.73,910.58,-45,7,6
1512177498,-0.0065,0.0268,0.1915,48.03,-205.99,905.40,-45,7,6
1512177498,-0.0157,0.0202,0.1947,59.75,-222.84,1007.57,-57,15,1
1512177498,-0.0100,0.0174,0.2153,60.79,-244.20,942.20,-57,15,1
1512177498,-0.0104,0.0269,0.2072,-3.85,-191.83,953.74,-57,15,1
1512177498,-0.0047,0.0434,0.2200,-19.90,-214.11,956.42,-57,15,1
1512177498,-0.0113,0.0232,0.2252,-30.94,-261.17,944.34,-57,15,1
1512177498,-0.0044,0.0244,0.2140,-35.95,-219.54,907.35,-47,22,1
1512177498,-0.0093,0.0024,0.2193,9.03,-231.81,897.58,-47,22,1
1512177498,-0.0033,-0.0052,0.2181,16.91,-200.13,898.07,-47,22,1
1512177499,-0.0051,-0.0087,0.2225,3.91,-226.87,880.43,-47,22,1
1512177499,0.0097,0.0009,0.2220,49.99,-211.30,945.56,-47,22,1
1512177499,0.0040,-0.0019,0.2206,54.69,-212.10,922.42,-57,15,-11
1512177499,0.0013,-0.0036,0.2228,27.65,-232.30,976.32,-57,15,-11
1512177499,-0.0048,-0.0188,0.2329,8.61,-164.67,914.55,-57,15,-11
1512177499,-0.0019,-0.0137,0.2386,-7.14,-227.91,951.90,-57,15,-11
1512177499,0.0009,-0.0087,0.2272,-34.48,-205.14,994.08,-54,1,5
1512177499,0.0116,0.0104,0.2349,-16.42,-199.95,918.21,-54,1,5
1512177499,0.0065,-0.0107,0.2349,-12.33,-197.45,838.99,-54,1,5
1512177499,0.0069,-0.0244,0.2329,17.70,-192.38,866.64,-54,1,5
1512177499,0.0079,-0.0342,0.2356,-17.21,-227.91,847.53,-54,1,5
1512177499,0.0270,-0.0015,0.2397,-3.23,-179.75,890.44,-65,15,-5
1512177499,-0.0097,-0.0278,0.2430,34.85,-222.72,1026.98,-65,15,-5
1512177499,-0.0033,-0.0254,0.2477,38.94,-204.47,988.16,-65,15,-5
1512177499,-0.0092,-0.0192,0.2466,25.51,-193.30,973.69,-65,15,-5
1512177499,-0.0162,-0.0121,0.2514,100.77,-184.75,925.42,-65,15,-5
1512177499,-0.0225,0.0027,0.2494,123.35,-196.17,979.80,-72,15,-5
1512177499,-0.0019,0.0387,0.2417,116.88,-176.88,966.61,-72,15,-5
1512177499,-0.0208,0.0366,0.2459,118.16,-208.98,925.96,-72,15,-5
1512177499,0.0053,0.0454,0.2471,83.98,-203.25,985.60,-72,15,-5
1512177499,0.0137,0.0278,0.2521,65.61,-185.91,879.33,-75,12,-15
1512177499,0.0023,0.0309,0.2589,41.08,-170.84,937.50,-75,12,-15
1512177499,0.0142,0.0389,0.2631,-0.37,-197.27,915.41,-75,12,-15
1512177499,0.0096,0.0324,0.2660,64.03,-209.90,863.71,-75,12,-15
1512177499,0.0125,0.0447,0.2695,75.56,-143.37,927.55,-75,12,-15
1512177499,0.0080,0.0381,0.2766,15.63,-176.33,954.59,-84,14,-13
1512177499,0.0061,0.0282,0.2691,45.59,-177.06,953.31,-84,14,-13
1512177499,-0.0012,0.0161,0.2630,6.84,-213.44,1013.37,-84,14,-13
1512177499,-0.0031,0.0108,0.2653,11.41,-168.40,954.71,-84,14,-13
1512177499,-0.0063,0.0092,0.2699,22.34,-176.51,989.93,-84,14,-13
1512177499,-0.0217,-0.0032,0.2720,48.03,-189.03,941.89,-93,8,-18
1512177499,-0.0346,-0.0056,0.2723,47.79,-117.92,898.01,-93,8,-18
1512177499,-0.0360,0.0212,0.2768,-3.17,-154.48,903.99,-93,8,-18
1512177499,-0.0407,0.0121,0.2708,85.82,-193.54,984.25,-93,8,-18
1512177499,-0.0527,-0.0084,0.2715,131.04,-159.36,858.64,-84,0,10
1512177499,-0.0192,0.0060,0.2738,83.13,-180.66,955.32,-84,0,10
1512177499,0.0032,0.0236,0.2790,134.58,-198.85,932.98,-84,0,10
1512177499,0.0001,0.0318,0.2855,127.93,-166.63,817.75,-84,0,10
1512177500,-0.0047,0.0192,0.2858,87.89,-178.83,889.59,-84,0,10
1512177500,0.0296,0.0329,0.2728,112.55,-177.00,980.59,-107,5,-11
1512177500,0.0246,0.0290,0.2732,82.15,-163.45,932.43,-107,5,-11
1512177500,0.0276,0.0305,0.2752,34.55,-159.42,971.62,-107,5,-11
1512177500,0.0202,0.0273,0.2822,48.03,-162.72,930.91,-107,5,-11
1512177500,0.0052,0.0116,0.2850,35.58,-138.12,910.89,-112,-3,-10
1512177500,0.0161,0.0264,0.2890,36.38,-127.14,1011.35,-112,-3,-10
1512177500,-0.0097,0.0061,0.2919,76.42,-97.72,957.52,-112,-3,-10
1512177500,-0.0092,0.0213,0.2935,49.80,-97.84,1008.18,-112,-3,-10
1512177500,-0.0192,0.0130,0.2862,93.02,-141.30,963.13,-112,-3,-10
1512177500,-0.0224,-0.0028,0.2820,64.94,-110.66,935.00,-128,-1,-18
1512177500,-0.0201,0.0210,0.2774,47.91,-165.89,867.74,-128,-1,-18
1512177500,-0.0137,0.0470,0.2780,45.10,-94.79,857.79,-128,-1,-18
1512177500,0.0032,0.0397,0.2716,88.20,-160.58,940.55,-128,-1,-18
1512177500,0.0144,0.0441,0.2706,103.27,-132.14,864.07,-128,-1,-18
1512177500,0.0266,0.0185,0.2758,64.94,-139.16,795.65,-121,12,1
1512177500,0.0150,-0.0341,0.2784,142.76,-190.61,771.91,-121,12,1
1512177500,0.0330,-0.0077,0.2803,117.25,-145.63,785.10,-121,12,1
1512177500,0.0177,0.0107,0.2900,50.60,-154.66,917.11,-121,12,1
1512177500,0.0221,0.0463,0.2863,117.25,-126.28,926.94,-144,-3,-20
1512177500,0.0137,0.0178,0.2870,55.11,-72.51,964.60,-144,-3,-20
1512177500,0.0261,0.0031,0.2787,90.27,-127.01,989.62,-144,-3,-20
1512177500,0.0156,0.0029,0.2810,52.00,-103.39,928.47,-144,-3,-20
1512177500,0.0025,0.0334,0.2710,103.76,-136.23,921.02,-144,-3,-20
1512177500,-0.0032,0.0585,0.2659,104.61,-112.98,991.58,-154,0,-20
1512177500,-0.0043,0.0583,0.2639,83.74,-102.29,940.19,-154,0,-20
1512177500,-0.0109,0.0341,0.2601,82.40,-108.34,1011.35,-154,0,-20
1512177500,-0.0080,0.0377,0.2606,57.92,-94.60,937.50,-154,0,-20
1512177500,-0.0154,0.0079,0.2647,67.44,-112.00,997.01,-154,0,-20
1512177500,-0.0145,-0.0068,0.2653,188.66,-165.65,892.64,-147,-10,-16
1512177500,-0.0113,-0.0148,0.2756,93.08,-89.84,940.00,-147,-10,-16
1512177500,-0.0097,-0.0004,0.2710,66.71,-182.74,948.18,-147,-10,-16
1512177500,-0.0035,0.0043,0.2687,91.74,-154.60,951.05,-147,-10,-16
1512177500,-0.0138,-0.0322,0.2722,40.59,-115.36,935.91,-140,-14,-23
1512177500,-0.0158,-0.0330,0.2700,23.62,-72.75,925.54,-140,-14,-23
1512177500,-0.0216,-0.0280,0.2751,-36.62,-64.51,997.13,-140,-14,-23
1512177500,-0.0300,-0.0012,0.2783,42.85,-26.67,961.36,-140,-14,-23
1512177500,-0.0390,0.0067,0.2778,75.26,-96.37,898.80,-140,-14,-23
1512177501,-0.0434,-0.0149,0.2670,92.22,-53.65,899.78,-149,-8,-18
1512177501,-0.0350,-0.0260,0.2619,94.12,-96.68,979.74,-149,-8,-18
1512177501,-0.0380,-0.0305,0.2530,134.70,-138.55,908.02,-149,-8,-18
1512177501,-0.0435,-0.0083,0.2550,124.02,-120.30,868.84,-149,-8,-18
1512177501,-0.0254,0.0130,0.2529,56.15,-78.92,961.18,-166,-8,-18
1512177501,-0.0238,0.0071,0.2466,114.87,-90.88,925.05,-166,-8,-18
1512177501,-0.0092,0.0196,0.2502,47.36,-47.18,876.89,-166,-8,-18
1512177501,0.0032,0.0141,0.2410,36.07,-111.76,1024.48,-166,-8,-18
1512177501,0.0012,0.0112,0.2405,2.20,-77.64,1008.30,-166,-8,-18
1512177501,-0.0087,0.0282,0.2450,-7.45,-75.62,927.98,-165,-35,-20
1512177501,0.0310,0.0501,0.2418,-0.43,-59.33,1061.40,-165,-35,-20
1512177501,0.0089,0.0213,0.2392,-68.42,-33.02,966.80,-165,-35,-20
1512177501,0.0107,-0.0052,0.2410,-71.78,-50.84,929.50,-165,-35,-20
1512177501,0.0133,-0.0107,0.2305,-26.49,-85.94,984.31,-165,-35,-20
1512177501,-0.0142,-0.0300,0.2302,77.82,-93.44,900.33,-152,-37,-45
1512177501,-0.0087,-0.0249,0.2229,53.28,-89.97,870.12,-152,-37,-45
1512177501,0.0024,-0.0092,0.2224,47.67,-21.24,985.23,-152,-37,-45
1512177501,-0.0017,0.0036,0.2165,77.58,-56.40,927.12,-152,-37,-45
1512177501,0.0125,-0.0104,0.2035,108.76,-60.42,1001.95,-170,-44,-49
1512177501,0.0137,0.0013,0.2101,23.56,-48.95,913.51,-170,-44,-49
1512177501,-0.0019,0.0059,0.2117,2.93,-51.21,879.03,-170,-44,-49
1512177501,0.0028,0.0145,0.2079,51.82,-70.31,921.39,-170,-44,-49
1512177501,-0.0067,0.0119,0.2121,81.79,-42.72,903.38,-170,-44,-49
1512177501,-0.0119,0.0119,0.2084,82.58,-80.57,972.78,-175,-38,-37
1512177501,-0.0242,0.0096,0.2053,60.91,-37.60,964.36,-175,-38,-37
1512177501,-0.0132,0.0146,0.2029,13.79,-52.86,960.88,-175,-38,-37
1512177501,-0.0136,0.0111,0.1967,4.03,-76.60,990.05,-175,-38,-37
1512177501,-0.0214,-0.0023,0.1955,30.15,-20.94,923.22,-191,-33,-28
1512177501,-0.0192,0.0011,0.1870,46.14,-64.64,950.56,-191,-33,-28
1512177501,-0.0156,-0.0044,0.1860,28.87,-77.94,910.46,-191,-33,-28
1512177501,-0.0204,0.0080,0.1824,62.13,-57.07,888.73,-191,-33,-28
1512177501,-0.0119,0.0154,0.1810,53.47,-57.31,1029.72,-191,-33,-28
1512177501,-0.0127,0.0103,0.1838,51.15,-37.60,969.12,-189,-56,-40
1512177501,-0.0160,0.0104,0.1796,16.05,-62.50,917.11,-189,-56,-40
1512177501,-0.0248,0.0009,0.1792,50.48,-34.85,877.75,-189,-56,-40
1512177501,-0.0085,0.0080,0.1772,32.04,-63.35,958.86,-189,-56,-40
1512177501,-0.0113,0.0097,0.1779,54.50,-35.10,839.54,-189,-56,-40
1512177502,-0.0101,-0.0009,0.1758,21.97,-50.90,911.74,-186,-42,-33
1512177502,-0.0080,-0.0039,0.1707,-10.86,-18.62,893.37,-186,-42,-33
1512177502,-0.0056,-0.0012,0.1740,-49.62,-73.24,884.58,-186,-42,-33
1512177502,0.0019,0.0053,0.1643,-13.73,-56.03,915.41,-186,-42,-33
1512177502,0.0112,0.0133,0.1611,-27.22,-44.86,954.59,-196,-42,-44
1512177502,0.0087,0.0068,0.1605,12.94,-36.38,945.07,-196,-42,-44
1512177502,0.0140,0.0229,0.1573,46.02,-54.26,969.06,-196,-42,-44
1512177502,0.0041,0.0142,0.1559,95.76,-49.32,961.79,-196,-42,-44
1512177502,0.0049,0.0080,0.1569,54.81,-19.35,920.72,-196,-42,-44
1512177502,0.0134,0.0072,0.1539,22.34,-31.13,925.35,-182,-63,-37
1512177502,0.0107,0.0040,0.1509,9.16,-39.67,911.80,-182,-63,-37
1512177502,0.0089,0.0028,0.1529,-39.98,-34.73,962.65,-182,-63,-37
1512177502,0.0092,-0.0057,0.1526,-36.99,-38.51,937.19,-182,-63,-37
1512177502,0.0138,0.0150,0.1479,18.43,-48.58,894.78,-189,-49,-47
1512177502,0.0222,0.0115,0.1451,18.49,-9.95,952.39,-189,-49,-47
1512177502,0.0120,-0.0075,0.1438,8.73,-8.36,906.19,-189,-49,-47
1512177502,0.0099,-0.0169,0.1439,-33.87,0.18,962.34,-189,-49,-47
1512177502,0.0027,-0.0188,0.1406,-14.10,-57.80,926.21,-189,-49,-47
1512177502,0.0084,-0.0149,0.1389,-12.76,-19.78,899.48,-195,-58,-28
1512177502,-0.0007,-0.0061,0.1354,15.63,-28.87,913.51,-195,-58,-28
1512177502,-0.0021,-0.0252,0.1340,30.09,-23.86,919.37,-195,-58,-28
1512177502,-0.0087,-0.0340,0.1338,21.61,-26.31,903.26,-195,-58,-28
1512177502,-0.0202,-0.0377,0.1321,-20.69,-11.41,913.51,-195,-58,-28
1512177502,-0.0193,-0.0229,0.1318,11.05,-14.65,924.26,-212,-61,-32
1512177502,-0.0123,-0.0080,0.1320,29.97,-37.17,893.98,-212,-61,-32
1512177502,-0.0117,-0.0104,0.1292,18.43,-20.45,896.18,-212,-61,-32
1512177502,-0.0154,-0.0140,0.1286,17.46,-14.40,901.92,-212,-61,-32
1512177502,-0.0153,-0.0290,0.1204,-25.02,-17.40,937.81,-203,-56,-40
1512177502,-0.0089,-0.0129,0.1140,-47.61,-31.37,963.93,-203,-56,-40
1512177502,-0.0043,0.0196,0.1125,-42.18,-13.92,958.01,-203,-56,-40
1512177502,-0.0130,0.0360,0.1075,12.33,-36.56,899.41,-203,-56,-40
1512177502,-0.0023,0.0530,0.1051,9.70,16.36,830.75,-203,-56,-40
1512177502,-0.0005,0.0381,0.1033,-13.00,29.05,909.24,-207,-74,-40
1512177502,0.0152,0.0282,0.1007,-59.75,-8.85,922.49,-207,-74,-40
1512177502,0.0032,-0.0028,0.1047,-49.13,-30.52,929.50,-207,-74,-40
1512177502,-0.0063,-0.0097,0.1146,-67.87,-31.80,913.09,-207,-74,-40
1512177502,-0.0027,-0.0148,0.0907,-28.99,-8.06,939.82,-207,-74,-40
1512177502,0.0145,-0.0057,0.0538,-103.52,-28.20,976.68,-207,-74,-30
1512177503,0.0055,-0.0302,0.0912,-55.66,-40.41,894.10,-207,-74,-30
1512177503,-0.0099,-0.0238,0.0818,-39.49,-9.89,841.00,-207,-74,-30
1512177503,-0.0047,-0.0015,0.0650,-21.91,-10.74,937.87,-207,-74,-30
1512177503,-0.0008,-0.0157,0.0531,-65.06,-4.15,909.91,-207,-74,-30
1512177503,0.0021,-0.0154,0.0635,-82.58,-21.30,899.17,-209,-72,-28
1512177503,0.0007,-0.0040,0.0598,-50.05,-54.57,884.83,-209,-72,-28
1512177503,-0.0057,0.0011,0.0664,-80.32,-13.85,886.29,-209,-72,-28
1512177503,-0.0012,0.0172,0.0663,-60.36,-35.16,935.36,-209,-72,-28
1512177503,0.0031,0.0261,0.0730,-66.89,-18.80,928.41,-217,-88,-37
1512177503,-0.0023,-0.0013,0.0647,-23.74,-40.41,929.93,-217,-88,-37
1512177503,-0.0064,-0.0120,0.0686,-16.91,-5.55,883.36,-217,-88,-37
1512177503,0.0059,-0.0068,0.0594,-25.45,-24.29,980.96,-217,-88,-37
1512177503,0.0142,0.0190,0.0555,-10.50,-30.70,895.39,-217,-88,-37
1512177503,-0.0077,0.0338,0.0477,-30.76,-18.62,888.61,-207,-81,-27
1512177503,-0.0189,0.0550,0.0365,-44.01,-46.81,914.98,-207,-81,-27
1512177503,-0.0272,0.0193,0.0360,-49.01,-31.07,927.67,-207,-81,-27
1512177503,-0.0270,-0.0149,0.0364,-78.49,-64.39,920.90,-207,-81,-27
1512177503,-0.0127,-0.0297,0.0446,-79.65,-2.81,870.30,-207,-66,-33
1512177503,-0.0032,-0.0117,0.0523,-66.83,-40.28,958.01,-207,-66,-33
1512177503,0.0088,-0.0257,0.0563,-20.75,20.39,891.05,-207,-66,-33
1512177503,0.0121,-0.0152,0.0562,-36.74,-10.99,949.46,-207,-66,-33
1512177503,0.0150,0.0004,0.0453,-88.01,-63.42,946.41,-207,-66,-33
1512177503,0.0071,-0.0005,0.0244,-27.40,-26.06,892.70,-205,-96,-22
1512177503,-0.0029,-0.0069,0.0148,55.66,-29.85,881.47,-205,-96,-22
1512177503,0.0013,0.0115,0.0308,-68.12,-29.42,957.76,-205,-96,-22
1512177503,0.0047,0.0097,0.0353,-61.52,25.33,970.40,-205,-96,-22
1512177503,0.0053,0.0213,0.0344,-75.38,-50.66,962.59,-205,-96,-22
1512177503,0.0008,0.0096,0.0373,-0.49,-43.95,938.84,-207,-77,-30
1512177503,0.0020,0.0099,0.0426,21.91,-32.23,860.66,-207,-77,-30
1512177503,0.0084,0.0308,0.0402,31.62,-41.14,888.06,-207,-77,-30
1512177503,0.0115,0.0300,0.0385,2.75,25.63,859.13,-207,-77,-30
1512177503,0.0055,0.0216,0.0348,-41.81,-38.76,885.31,-203,-84,-27
1512177503,0.0064,0.0049,0.0338,-47.91,-44.92,947.14,-203,-84,-27
1512177503,0.0088,0.0108,0.0405,-83.25,-39.43,848.02,-203,-84,-27
1512177503,0.0057,0.0202,0.0427,-49.50,-43.15,906.86,-203,-84,-27
1512177503,0.0115,0.0435,0.0449,-15.63,-28.63,921.87,-203,-84,-27
1512177503,0.0134,0.0435,0.0453,6.84,-16.85,943.30,-212,-89,-22
1512177503,0.0056,0.0249,0.0461,-15.87,6.53,913.21,-212,-89,-22
1512177504,-0.0001,0.0112,0.0463,-15.99,-24.96,866.21,-212,-89,-22
1512177504,-0.0089,-0.0076,0.0494,1.71,-22.71,910.46,-212,-89,-22
1512177504,0.0091,0.0242,0.0565,-4.70,0.67,947.63,-212,-89,-22
1512177504,0.0059,0.0301,0.0629,25.57,-28.93,953.25,-196,-74,-33
1512177504,0.0011,0.0240,0.0680,45.90,-17.21,955.32,-196,-74,-33
1512177504,0.0064,0.0190,0.0715,-39.61,-2.81,921.02,-196,-74,-33
1512177504,0.0047,0.0027,0.0786,-27.53,34.48,1019.29,-196,-74,-33
1512177504,-0.0035,0.0077,0.0814,-31.62,-17.64,974.91,-214,-77,-27
1512177504,0.0063,0.0221,0.0831,-33.20,4.82,928.71,-214,-77,-27
1512177504,-0.0023,-0.0003,0.0872,7.93,-34.06,937.81,-214,-77,-27
1512177504,0.0004,-0.0128,0.0921,29.85,-5.43,958.50,-214,-77,-27
1512177504,-0.0060,-0.0088,0.1003,17.27,-6.96,920.10,-214,-77,-27
1512177504,0.0023,0.0237,0.0999,19.59,-33.63,930.05,-203,-84,-30
1512177504,-0.0011,0.0305,0.1029,48.22,-13.24,876.22,-203,-84,-30
1512177504,-0.0011,0.0301,0.1092,93.44,-34.12,846.25,-203,-84,-30
1512177504,-0.0072,-0.0127,0.1166,15.75,7.93,955.44,-203,-84,-30
1512177504,0.0021,0.0083,0.1206,-4.27,-5.68,968.44,-203,-84,-30
1512177504,0.0088,0.0180,0.1273,5.07,-23.32,953.74,-214,-95,-44
1512177504,-0.0076,0.0057,0.1310,46.51,-21.00,838.07,-214,-95,-44
1512177504,-0.0020,0.0280,0.1381,30.64,-37.05,893.07,-214,-95,-44
1512177504,0.0096,0.0186,0.1395,26.18,-11.11,909.79,-214,-95,-44
1512177504,0.0033,0.0061,0.1429,56.64,-14.28,899.29,-233,-93,-42
1512177504,0.0091,0.0148,0.1451,25.33,-34.97,888.06,-233,-93,-42
1512177504,0.0230,0.0405,0.1439,17.82,-17.82,930.66,-233,-93,-42
1512177504,0.0189,0.0407,0.1485,23.07,-14.83,982.97,-233,-93,-42
1512177504,0.0181,0.0352,0.1563,48.83,-5.92,1027.34,-233,-93,-42
1512177504,0.0200,0.0381,0.1646,48.22,19.71,943.42,-221,-102,-44
1512177504,0.0093,0.0427,0.1646,38.94,-19.59,888.00,-221,-102,-44
1512177504,-0.0013,0.0134,0.1756,13.79,-5.43,899.84,-221,-102,-44
1512177504,0.0115,0.0047,0.1852,2.14,-21.73,984.68,-221,-102,-44
1512177504,0.0173,0.0011,0.1940,-0.49,5.98,972.60,-245,-102,-44
1512177504,0.0216,0.0048,0.2027,20.02,-25.21,917.91,-245,-102,-44
1512177504,0.0188,-0.0109,0.2023,19.23,-3.72,883.85,-245,-102,-44
1512177504,0.0141,-0.0164,0.2108,36.07,-10.13,934.27,-245,-102,-44
1512177504,0.0146,-0.0092,0.2119,83.13,-19.65,910.77,-245,-102,-44
1512177504,0.0166,-0.0104,0.2178,82.58,15.14,921.57,-261,-100,-52
1512177504,0.0169,-0.0049,0.2190,67.20,-34.18,911.93,-261,-100,-52
1512177504,0.0040,-0.0200,0.2277,46.02,11.47,906.19,-261,-100,-52
1512177505,0.0317,-0.0378,0.2340,81.79,-7.14,806.27,-261,-100,-52
1512177505,0.0044,0.0138,0.2349,90.27,-29.85,894.71,-261,-100,-52
1512177505,0.0021,0.0144,0.2479,109.37,-28.20,928.04,-251,-107,-42
1512177505,0.0017,-0.0069,0.2519,137.33,15.32,912.05,-251,-107,-42
1512177505,0.0027,0.0161,0.2567,82.64,-34.85,909.30,-251,-107,-42
1512177505,0.0149,0.0096,0.2635,65.25,1.59,954.28,-251,-107,-42
1512177505,0.0145,0.0128,0.2698,94.42,-29.79,932.13,-244,-114,-35
1512177505,0.0101,0.0125,0.2782,129.03,-58.17,899.54,-244,-114,-35
1512177505,0.0063,0.0326,0.2827,166.63,-45.23,938.96,-244,-114,-35
1512177505,-0.0036,0.0134,0.2843,138.49,-39.18,887.15,-244,-114,-35
1512177505,0.0076,0.0149,0.2859,99.98,-24.35,906.31,-244,-114,-35
1512177505,0.0108,0.0232,0.2929,33.26,-31.80,949.52,-244,-118,-38
1512177505,0.0057,0.0206,0.2937,64.27,-53.47,850.59,-244,-118,-38
1512177505,0.0049,0.0338,0.2993,93.38,-16.78,838.87,-244,-118,-38
1512177505,-0.0017,0.0154,0.3072,109.44,-65.49,878.91,-244,-118,-38
1512177505,0.0071,0.0260,0.3057,114.62,-4.76,898.74,-260,-112,-30
1512177505,0.0003,0.0280,0.3027,67.81,-51.70,958.62,-260,-112,-30
1512177505,0.0158,0.0357,0.3024,65.86,-18.86,913.39,-260,-112,-30
1512177505,-0.0039,0.0172,0.3084,36.50,10.44,944.34,-260,-112,-30
1512177505,-0.0111,-0.0057,0.3075,83.19,-33.87,902.71,-260,-112,-30
1512177505,-0.0031,0.0048,0.3060,52.49,-22.34,931.88,-258,-132,-25
1512177505,-0.0017,0.0051,0.3104,0.18,24.72,978.27,-258,-132,-25
1512177505,-0.0146,0.0016,0.3091,36.25,-29.05,982.18,-258,-132,-25
1512177505,-0.0261,-0.0011,0.3116,89.90,-89.36,955.75,-258,-132,-25
1512177505,-0.0260,-0.0076,0.3073,112.00,-34.91,962.77,-258,-132,-25
1512177505,-0.0340,-0.0230,0.3080,105.41,-69.58,897.71,-256,-141,-37
1512177505,-0.0254,-0.0083,0.3093,86.73,-45.17,909.30,-256,-141,-37
1512177505,-0.0442,-0.0332,0.3143,144.04,-21.18,827.64,-256,-141,-37
1512177505,-0.0374,-0.0373,0.3099,67.14,-43.40,882.14,-256,-141,-37
1512177505,-0.0242,-0.0419,0.3101,103.58,-47.12,963.99,-254,-139,-32
1512177505,-0.0182,-0.0330,0.3151,30.88,-0.37,926.64,-254,-139,-32
1512177505,-0.0180,-0.0425,0.3115,65.43,-73.85,866.09,-254,-139,-32
1512177505,-0.0080,-0.0306,0.3169,52.25,-87.83,824.77,-254,-139,-32
1512177505,-0.0088,-0.0156,0.3159,78.80,-21.06,819.76,-254,-139,-32
1512177505,0.0031,0.0025,0.3145,80.75,-84.35,918.76,-270,-151,-20
1512177505,0.0093,-0.0357,0.3180,103.45,-36.19,981.87,-270,-151,-20
1512177505,0.0029,-0.0433,0.3225,127.08,3.42,967.53,-270,-151,-20
1512177505,-0.0005,-0.0060,0.3166,144.35,-8.00,1049.99,-270,-151,-20
1512177506,-0.0052,0.0198,0.3196,147.22,16.97,1033.33,-270,-151,-20
1512177506,-0.0137,0.0401,0.3306,150.02,-35.83,970.70,-258,-167,-25
1512177506,-0.0248,0.0594,0.3549,99.91,-8.42,1064.82,-258,-167,-25
1512177506,-0.0192,0.0254,0.3270,141.17,43.33,1091.25,-258,-167,-25
1512177506,-0.0113,0.0097,0.3400,125.61,-18.01,911.87,-258,-167,-25
1512177506,-0.0196,-0.0013,0.3412,50.60,10.31,890.14,-274,-162,-30
1512177506,-0.0156,0.0104,0.3489,93.08,-26.61,857.97,-274,-162,-30
1512177506,0.0007,0.0149,0.3393,88.75,-82.82,927.67,-274,-162,-30
1512177506,-0.0214,0.0289,0.3505,169.25,-36.56,813.11,-274,-162,-30
1512177506,-0.0370,-0.0073,0.3365,148.38,-46.45,770.08,-274,-162,-30
1512177506,-0.0383,0.0047,0.3350,155.70,-48.10,883.79,-279,-181,-38
1512177506,-0.0391,0.0000,0.3362,113.16,-16.11,872.62,-279,-181,-38
1512177506,-0.0276,0.0076,0.3388,133.36,-52.98,858.34,-279,-181,-38
1512177506,0.0001,0.0080,0.3398,136.60,-25.82,937.32,-279,-181,-38
1512177506,-0.0087,-0.0004,0.3414,110.90,-7.14,940.73,-279,-181,-38
1512177506,0.0009,0.0197,0.3430,62.74,-21.30,992.92,-263,-193,-30
1512177506,0.0015,0.0417,0.3384,114.32,-30.82,990.66,-263,-193,-30
1512177506,-0.0133,0.0326,0.3406,150.70,-56.34,866.58,-263,-193,-30
1512177506,-0.0234,0.0349,0.3353,139.71,-41.02,903.26,-263,-193,-30
1512177506,-0.0378,0.0336,0.3380,76.72,-24.96,903.63,-275,-195,-32
1512177506,-0.0439,0.0085,0.3396,78.43,-35.77,932.74,-275,-195,-32
1512177506,-0.0282,0.0285,0.3445,101.68,-23.68,977.29,-275,-195,-32
1512177506,-0.0180,0.0553,0.3392,121.58,-29.48,978.82,-275,-195,-32
1512177506,0.0057,0.0935,0.3341,95.15,-23.56,1062.56,-275,-195,-32
1512177506,-0.0051,0.0846,0.3310,130.74,-58.47,971.07,-256,-193,-27
1512177506,-0.0055,0.1041,0.3386,69.82,-83.19,933.65,-256,-193,-27
1512177506,0.0486,0.0380,0.3545,179.02,-69.03,939.70,-256,-193,-27
1512177506,0.0161,0.0675,0.3310,71.41,-64.70,909.18,-256,-193,-27
1512177506,0.0197,0.0434,0.3384,48.03,-59.20,884.83,-268,-213,-28
1512177506,0.0105,0.0437,0.3514,66.77,-45.78,855.53,-268,-213,-28
1512177506,-0.0021,0.0378,0.3541,82.40,-83.01,835.75,-268,-213,-28
1512177506,-0.0115,0.0107,0.3486,104.25,-62.01,898.44,-268,-213,-28
1512177506,-0.0075,-0.0083,0.3499,68.24,-65.19,975.40,-268,-213,-28
1512177506,-0.0060,-0.0096,0.3483,162.29,-62.74,911.99,-275,-206,-22
1512177506,-0.0123,-0.0056,0.3396,166.14,-74.10,874.51,-275,-206,-22
1512177506,-0.0111,0.0067,0.3289,122.44,-60.49,884.95,-275,-206,-22
1512177506,-0.0112,0.0100,0.3242,99.61,-31.86,883.97,-275,-206,-22
1512177507,-0.0044,0.0198,0.3188,120.42,-66.83,888.98,-275,-206,-22
1512177507,-0.0029,0.0338,0.3225,73.06,-43.95,925.48,-267,-225,-30
1512177507,-0.0036,0.0333,0.3209,71.41,-69.52,925.90,-267,-225,-30
1512177507,-0.0035,0.0326,0.3205,124.94,-91.92,867.61,-267,-225,-30
1512177507,-0.0120,0.0071,0.3285,106.38,-61.16,953.92,-267,-225,-30
1512177507,-0.0063,0.0031,0.3321,49.13,-58.11,931.15,-251,-234,-38
1512177507,0.0117,-0.0024,0.3292,146.30,-92.59,929.50,-251,-234,-38
1512177507,-0.0043,0.0000,0.3346,110.60,-14.34,852.84,-251,-234,-38
1512177507,0.0024,-0.0023,0.3386,120.24,-54.63,958.68,-251,-234,-38
1512177507,0.0136,0.0178,0.3220,117.43,-45.72,821.96,-251,-234,-38
1512177507,0.0217,0.0374,0.3168,134.70,-39.06,939.51,-251,-248,-32
1512177507,0.0121,0.0205,0.3101,115.11,-31.07,994.38,-251,-248,-32
1512177507,0.0169,0.0282,0.3112,104.25,-51.82,918.40,-251,-248,-32
1512177507,0.0177,0.0401,0.3039,10.86,-7.93,935.42,-251,-248,-32
1512177507,0.0213,0.0124,0.3092,46.20,-19.65,927.92,-251,-248,-32
1512177507,0.0204,0.0425,0.3080,28.56,-41.20,1004.64,-258,-259,-45
1512177507,0.0104,0.0361,0.3165,48.52,-20.39,858.46,-258,-259,-45
1512177507,-0.0016,0.0200,0.3135,92.71,-50.66,850.04,-258,-259,-45
1512177507,0.0107,0.0047,0.3103,108.76,-21.42,872.56,-258,-259,-45
1512177507,0.0192,0.0172,0.3092,-1.28,29.85,950.32,-253,-271,-30
1512177507,0.0156,0.0169,0.3036,60.49,-49.87,958.07,-253,-271,-30
1512177507,-0.0027,0.0055,0.3019,81.48,-26.12,902.47,-253,-271,-30
1512177507,0.0065,0.0189,0.3019,59.81,-21.00,874.45,-253,-271,-30
1512177507,0.0083,0.0144,0.3021,41.69,-57.56,924.01,-253,-271,-30
1512177507,0.0161,0.0201,0.3087,22.03,-15.08,921.69,-253,-267,-40
1512177507,0.0033,0.0032,0.3069,81.67,-27.47,873.90,-253,-267,-40
1512177507,0.0144,0.0092,0.3009,18.25,-6.90,842.10,-253,-267,-40
1512177507,0.0150,0.0190,0.2999,84.47,-14.04,853.58,-253,-267,-40
1512177507,0.0028,0.0177,0.2981,94.73,10.74,1001.89,-254,-273,-42
1512177507,0.0072,0.0296,0.3011,43.21,37.35,903.38,-254,-273,-42
1512177507,0.0140,0.0418,0.2940,55.97,-24.29,942.63,-254,-273,-42
1512177507,0.0036,0.0361,0.2941,29.66,-0.12,966.25,-254,-273,-42
1512177507,-0.0059,0.0290,0.3013,44.19,-40.47,890.75,-254,-273,-42
1512177507,-0.0067,0.0100,0.3016,-15.50,29.97,967.04,-249,-282,-50
1512177507,-0.0115,0.0008,0.3019,42.60,-4.46,908.26,-249,-282,-50
1512177507,-0.0052,0.0005,0.2985,36.56,8.06,978.39,-249,-282,-50
1512177507,0.0019,0.0284,0.2981,-5.19,-12.70,956.79,-249,-282,-50
1512177507,-0.0005,0.0228,0.2981,15.38,-7.14,928.10,-249,-282,-50
1512177508,-0.0003,0.0220,0.2953,43.21,20.75,975.40,-235,-282,-47
1512177508,-0.0063,0.0048,0.2929,49.50,11.41,890.50,-235,-282,-47
1512177508,-0.0061,0.0146,0.2883,68.30,-64.27,856.08,-235,-282,-47
1512177508,-0.0033,0.0128,0.2862,101.44,18.55,865.72,-235,-282,-47
1512177508,-0.0023,0.0304,0.2896,45.41,-34.48,865.60,-254,-283,-38
1512177508,0.0119,0.0431,0.2842,49.74,-22.16,958.37,-254,-283,-38
1512177508,0.0036,0.0304,0.2815,-0.55,39.00,908.45,-254,-283,-38
1512177508,0.0039,0.0172,0.2920,28.38,-27.47,897.58,-254,-283,-38
1512177508,0.0075,0.0256,0.2874,0.12,-5.62,876.53,-254,-283,-38
1512177508,-0.0029,0.0068,0.2973,-66.22,21.30,998.72,-242,-292,-47
1512177508,0.0103,0.0213,0.2924,4.27,-53.04,1054.93,-242,-292,-47
1512177508,-0.0004,0.0076,0.2896,30.33,-8.30,921.51,-242,-292,-47
1512177508,-0.0300,0.0009,0.2855,78.43,-7.63,915.28,-242,-292,-47
1512177508,-0.0192,0.0069,0.2876,46.75,-9.58,971.56,-231,-303,-37
1512177508,0.0012,0.0230,0.2822,30.21,-24.60,976.75,-231,-303,-37
1512177508,-0.0077,0.0166,0.2818,69.52,-13.79,963.44,-231,-303,-37
1512177508,-0.0071,0.0153,0.2810,34.12,-23.62,952.21,-231,-303,-37
1512177508,0.0015,0.0246,0.2811,38.76,30.82,1020.02,-231,-303,-37
1512177508,-0.0008,0.0165,0.2790,58.90,13.12,1056.40,-231,-313,-40
1512177508,-0.0035,0.0212,0.2826,47.55,18.92,989.87,-231,-313,-40
1512177508,0.0069,0.0273,0.2803,37.17,15.75,855.71,-231,-313,-40
1512177508,0.0091,0.0387,0.2695,50.42,18.01,932.56,-231,-313,-40
1512177508,0.0092,0.0336,0.2755,69.76,-29.79,986.63,-231,-313,-40
1512177508,-0.0023,0.0089,0.2768,80.44,52.43,858.58,-231,-310,-50
1512177508,0.0057,0.0176,0.2767,29.66,-22.71,960.08,-231,-310,-50
1512177508,0.0091,0.0158,0.2739,69.82,35.16,947.45,-231,-310,-50
1512177508,-0.0076,0.0181,0.2827,37.78,-2.44,926.45,-231,-310,-50
1512177508,-0.0104,0.0313,0.2792,30.46,29.17,886.35,-221,-313,-47
1512177508,-0.0188,0.0204,0.2796,55.91,9.70,870.00,-221,-313,-47
1512177508,-0.0127,0.0164,0.2807,50.17,7.39,912.05,-221,-313,-47
1512177508,-0.0075,0.0132,0.2758,76.78,-20.51,946.96,-221,-313,-47
1512177508,-0.0040,0.0051,0.2799,66.59,9.22,948.12,-221,-313,-47
1512177508,0.0077,0.0178,0.2794,40.22,-5.80,957.40,-223,-322,-45
1512177508,0.0111,0.0234,0.2827,16.78,18.13,959.11,-223,-322,-45
1512177508,0.0056,0.0156,0.2779,59.51,0.98,938.11,-223,-322,-45
1512177508,-0.0063,0.0012,0.2776,36.74,-7.20,934.57,-223,-322,-45
1512177508,-0.0077,-0.0025,0.2782,53.22,15.44,841.19,-223,-326,-42
1512177508,-0.0148,0.0013,0.2762,45.78,-14.89,899.84,-223,-326,-42
1512177509,-0.0116,0.0087,0.2791,56.52,-2.62,866.70,-223,-326,-42
1512177509,-0.0244,0.0153,0.2775,73.55,2.26,823.97,-223,-326,-42
1512177509,-0.0164,0.0210,0.2784,4.82,16.11,956.36,-223,-326,-42
1512177509,-0.0076,0.0249,0.2774,54.50,-1.53,869.20,-214,-338,-37
1512177509,-0.0165,0.0063,0.2832,59.45,12.45,847.47,-214,-338,-37
1512177509,-0.0072,0.0041,0.2819,50.60,15.63,946.72,-214,-338,-37
1512177509,0.0109,0.0225,0.2831,-5.86,1.28,947.63,-214,-338,-37
1512177509,-0.0016,0.0093,0.2822,10.68,-14.28,903.87,-214,-338,-37
1512177509,-0.0016,-0.0052,0.2880,61.89,16.05,1005.92,-212,-354,-38
1512177509,-0.0005,-0.0060,0.2912,44.25,-40.22,960.57,-212,-354,-38
1512177509,0.0129,0.0333,0.2835,79.96,-2.38,962.10,-212,-354,-38
1512177509,-0.0096,0.0115,0.2768,113.16,-2.75,865.60,-212,-354,-38
1512177509,0.0004,0.0324,0.2804,68.54,43.64,924.50,-205,-343,-32
1512177509,-0.0039,0.0246,0.2792,74.22,8.73,902.22,-205,-343,-32
1512177509,0.0192,0.0357,0.2798,9.95,-0.98,930.36,-205,-343,-32
1512177509,0.0198,0.0308,0.2871,46.14,23.93,916.32,-205,-343,-32
1512177509,0.0134,0.0224,0.2896,-28.38,38.57,967.10,-205,-343,-32
1512177509,0.0320,0.0417,0.2887,14.77,34.85,903.02,-195,-354,-28
1512177509,0.0063,0.0166,0.2959,14.59,26.18,921.75,-195,-354,-28
1512177509,0.0037,0.0430,0.2919,-10.07,24.35,994.32,-195,-354,-28
1512177509,0.0008,0.0137,0.2925,-0.79,24.29,924.80,-195,-354,-28
1512177509,-0.0125,-0.0051,0.2899,57.43,15.50,949.71,-195,-354,-28
1512177509,-0.0100,-0.0149,0.2924,88.81,-5.43,890.44,-202,-350,-42
1512177509,-0.0083,-0.0023,0.2906,65.00,7.57,874.76,-202,-350,-42
1512177509,-0.0047,0.0141,0.2912,35.34,30.82,951.11,-202,-350,-42
1512177509,-0.0198,-0.0029,0.2879,28.14,-36.68,979.19,-202,-350,-42
1512177509,-0.0093,-0.0009,0.2874,22.03,13.92,910.10,-202,-354,-35
1512177509,-0.0127,-0.0146,0.2952,-5.80,28.20,912.41,-202,-354,-35
1512177509,0.0007,-0.0230,0.2936,28.99,6.71,1045.10,-202,-354,-35
1512177509,0.0019,0.0017,0.2969,48.77,51.09,949.10,-202,-354,-35
1512177509,-0.0027,0.0109,0.2987,55.66,-8.30,917.11,-202,-354,-35
1512177509,-0.0025,-0.0003,0.2949,49.62,7.08,911.93,-195,-368,-32
1512177509,-0.0009,0.0115,0.3013,33.26,53.47,908.87,-195,-368,-32
1512177509,0.0072,0.0165,0.2996,70.98,7.26,932.50,-195,-368,-32
1512177509,-0.0012,0.0124,0.3020,33.02,2.87,819.70,-195,-368,-32
1512177509,0.0019,-0.0013,0.3056,12.21,15.01,873.90,-166,-364,-42
1512177509,0.0056,-0.0164,0.3061,40.65,-4.21,907.78,-166,-364,-42
1512177510,0.0044,-0.0176,0.3092,16.11,4.09,882.51,-166,-364,-42
1512177510,-0.0011,-0.0320,0.3083,37.35,-6.65,908.20,-166,-364,-42
1512177510,0.0032,-0.0209,0.3107,42.36,34.73,947.63,-166,-364,-42
1512177510,0.0044,0.0003,0.3083,20.32,5.98,984.62,-177,-386,-32
1512177510,-0.0052,-0.0089,0.3068,71.35,3.48,952.27,-177,-386,-32
1512177510,-0.0154,-0.0079,0.3040,53.10,-9.70,981.08,-177,-386,-32
1512177510,-0.0204,-0.0028,0.3096,53.59,-9.46,906.92,-177,-386,-32
1512177510,-0.0056,0.0061,0.3072,47.36,-18.43,996.58,-177,-386,-32
1512177510,-0.0065,0.0100,0.3164,35.28,13.67,929.81,-182,-384,-40
1512177510,-0.0032,0.0081,0.3222,36.38,-53.65,893.49,-182,-384,-40
1512177510,0.0043,0.0124,0.3272,-36.50,-31.43,948.73,-182,-384,-40
1512177510,0.0132,0.0165,0.3290,39.86,-20.45,918.52,-182,-384,-40
1512177510,0.0029,0.0281,0.3274,51.94,-49.62,919.92,-161,-380,-23
1512177510,0.0091,0.0574,0.3257,57.25,-33.69,882.57,-161,-380,-23
1512177510,0.0166,0.0838,0.3285,91.43,-28.99,879.46,-161,-380,-23
1512177510,0.0260,0.0827,0.3193,72.57,-52.86,921.39,-161,-380,-23
1512177510,0.0081,0.0554,0.3256,85.69,-34.36,920.35,-161,-380,-23
1512177510,0.0200,0.0296,0.3260,30.46,-49.07,926.70,-152,-386,-15
1512177510,0.0274,0.0465,0.3344,-16.36,19.10,959.90,-152,-386,-15
1512177510,0.0361,0.0643,0.3361,12.94,-25.45,970.15,-152,-386,-15
1512177510,0.0121,0.0601,0.3450,11.05,-32.90,936.40,-152,-386,-15
1512177510,0.0019,0.0473,0.3430,65.92,-12.02,902.28,-140,-391,-23
1512177510,-0.0024,0.0321,0.3481,-3.60,-41.32,921.33,-140,-391,-23
1512177510,0.0039,0.0358,0.3437,35.89,-36.13,891.24,-140,-391,-23
1512177510,0.0096,0.0414,0.3473,26.49,4.03,877.81,-140,-391,-23
1512177510,0.0031,0.0563,0.3445,106.20,-30.21,902.83,-140,-391,-23
1512177510,0.0033,0.0325,0.3489,70.98,-6.10,873.84,-130,-412,-20
1512177510,0.0224,0.0060,0.3483,22.46,-46.63,891.48,-130,-412,-20
1512177510,0.0201,-0.0257,0.3525,52.67,-48.77,929.44,-130,-412,-20
1512177510,0.0166,-0.0329,0.3577,29.30,-22.83,859.37,-130,-412,-20
1512177510,0.0218,0.0059,0.3598,23.93,-50.48,898.25,-130,-412,-20
1512177510,0.0140,0.0084,0.3603,26.55,-1.71,903.44,-135,-410,-22
1512177510,0.0072,-0.0181,0.3589,58.59,-51.33,956.97,-135,-410,-22
1512177510,0.0156,-0.0190,0.3550,76.17,-25.51,923.03,-135,-410,-22
1512177510,0.0172,-0.0003,0.3534,56.88,-37.17,918.27,-135,-410,-22
1512177510,0.0250,-0.0023,0.3462,100.89,-69.09,903.93,-137,-405,-23
1512177510,0.0221,0.0063,0.3501,47.85,-56.09,874.57,-137,-405,-23
1512177510,0.0306,-0.0132,0.3455,48.89,-55.11,883.30,-137,-405,-23
1512177511,0.0192,-0.0162,0.3565,40.53,-33.20,883.85,-137,-405,-23
1512177511,0.0248,-0.0157,0.3573,47.67,-81.79,901.86,-137,-405,-23
1512177511,0.0196,-0.0196,0.3633,63.78,-31.62,862.98,-114,-410,-18
1512177511,0.0158,-0.0005,0.3643,69.58,-92.83,952.21,-114,-410,-18
1512177511,0.0194,-0.0052,0.3676,102.72,-85.82,995.36,-114,-410,-18
1512177511,0.0064,-0.0138,0.3651,58.53,-86.36,912.90,-114,-410,-18
1512177511,0.0190,-0.0037,0.3683,39.37,-102.84,951.54,-114,-410,-18
1512177511,0.0222,-0.0224,0.3726,-4.03,-80.81,980.96,-122,-409,-16
1512177511,0.0276,-0.0059,0.3692,28.81,-76.97,1047.18,-122,-409,-16
1512177511,0.0242,0.0237,0.3682,46.45,-35.10,968.32,-122,-409,-16
1512177511,0.0081,0.0577,0.3566,115.11,-4.58,1009.58,-122,-409,-16
1512177511,-0.0166,0.0923,0.3487,202.39,-66.71,1009.64,-105,-416,-27
1512177511,-0.0141,0.0952,0.3499,184.57,-13.12,940.49,-105,-416,-27
1512177511,-0.0068,0.0603,0.3585,108.22,-61.22,898.44,-105,-416,-27
1512177511,-0.0063,0.0276,0.3764,130.55,-102.42,788.64,-105,-416,-27
1512177511,0.0075,-0.0065,0.3864,41.26,-108.83,815.06,-105,-416,-27
1512177511,0.0230,-0.0229,0.3979,29.54,-104.86,873.60,-93,-410,-25
1512177511,0.0397,-0.0121,0.4149,-25.33,-121.22,925.60,-93,-410,-25
1512177511,0.0268,-0.0124,0.4017,52.31,-62.50,880.74,-93,-410,-25
1512177511,0.0272,-0.0462,0.4029,76.35,-43.82,967.71,-93,-410,-25
1512177511,0.0169,-0.0491,0.3810,66.77,-112.30,918.27,-93,-410,-25
1512177511,-0.0012,-0.0603,0.3670,138.12,-120.24,910.03,-93,-431,-11
1512177511,-0.0065,-0.0583,0.3574,146.06,-88.32,906.49,-93,-431,-11
1512177511,-0.0125,-0.0510,0.3783,44.31,-130.13,912.48,-93,-431,-11
1512177511,-0.0019,-0.0666,0.3804,116.21,-125.49,907.17,-93,-431,-11
1512177511,-0.0107,-0.0826,0.3870,81.54,-84.78,897.52,-72,-417,-32
1512177511,0.0164,-0.0519,0.4087,31.92,-112.43,977.78,-72,-417,-32
1512177511,0.0345,-0.0453,0.4092,102.60,-98.69,969.79,-72,-417,-32
1512177511,0.0272,-0.0513,0.4155,104.19,-103.03,901.25,-72,-417,-32
1512177511,0.0309,-0.0471,0.4135,154.72,-101.87,889.28,-72,-417,-32
1512177511,0.0153,-0.0490,0.4160,150.76,-108.70,852.60,-59,-423,-33
1512177511,0.0230,-0.0357,0.3968,174.74,-126.77,890.75,-59,-423,-33
1512177511,0.0173,-0.0261,0.3987,152.53,-59.33,887.51,-59,-423,-33
1512177511,0.0260,-0.0076,0.4024,135.31,-133.91,924.38,-59,-423,-33
1512177511,0.0200,0.0128,0.4019,184.75,-116.39,907.47,-57,-421,-28
1512177511,0.0005,0.0001,0.4091,164.25,-137.70,940.49,-57,-421,-28
1512177511,-0.0003,-0.0028,0.4155,136.96,-106.99,917.91,-57,-421,-28
1512177511,0.0028,-0.0079,0.4242,180.54,-88.56,888.49,-57,-421,-28
1512177512,0.0085,0.0061,0.4188,108.40,-98.08,914.98,-57,-421,-28
1512177512,0.0165,-0.0057,0.4204,125.24,-86.36,971.50,-59,-419,-44
1512177512,0.0130,-0.0029,0.4253,127.44,-108.89,886.17,-59,-419,-44
1512177512,0.0423,0.0366,0.4216,151.86,-110.05,1052.12,-59,-419,-44
1512177512,0.0305,0.0429,0.4181,182.13,-42.72,902.34,-59,-419,-44
1512177512,0.0289,0.0495,0.4076,192.38,-132.26,929.02,-59,-419,-44
1512177512,0.0478,0.0666,0.4301,109.37,-58.78,960.39,-29,-449,-32
1512177512,0.0660,0.0675,0.4105,132.08,-19.96,946.96,-29,-449,-32
1512177512,0.0924,0.0949,0.3802,261.96,-165.47,1119.20,-29,-449,-32
1512177512,0.0844,0.1613,0.3847,116.15,0.92,831.79,-29,-449,-32
1512177512,0.0507,0.1136,0.3896,145.08,-151.25,863.04,-31,-433,-40
1512177512,0.0441,0.0495,0.4137,120.54,-117.80,822.45,-31,-433,-40
1512177512,0.0158,0.0244,0.4121,55.91,-119.63,776.18,-31,-433,-40
1512177512,-0.0144,0.0133,0.4159,43.15,-142.33,860.17,-31,-433,-40
1512177512,-0.0450,-0.0320,0.4111,153.75,-96.56,873.96,-31,-433,-40
1512177512,-0.0742,-0.0258,0.3933,163.57,-79.53,839.36,-15,-428,-32
1512177512,-0.0586,-0.0088,0.3876,116.15,-114.56,902.34,-15,-428,-32
1512177512,-0.0647,0.0040,0.3988,192.57,-87.34,921.81,-15,-428,-32
1512177512,-0.0506,-0.0085,0.3936,163.15,-151.12,990.54,-15,-428,-32
1512177512,-0.0385,-0.0296,0.3935,116.39,-158.39,947.81,-15,-428,-32
1512177512,-0.0340,-0.0197,0.3864,142.70,-87.46,992.43,-10,-440,-50
1512177512,-0.0362,-0.0161,0.3916,144.41,-153.26,977.11,-10,-440,-50
1512177512,-0.0222,-0.0036,0.3910,103.70,-127.44,887.88,-10,-440,-50
1512177512,-0.0322,-0.0105,0.3907,148.80,-92.65,841.13,-10,-440,-50
1512177512,-0.0097,-0.0120,0.3866,128.72,-214.48,980.83,-1,-428,-49
1512177512,-0.0273,-0.0019,0.3820,221.13,-98.63,962.34,-1,-428,-49
1512177512,-0.0252,-0.0128,0.3808,155.33,-163.21,925.84,-1,-428,-49
1512177512,-0.0091,-0.0372,0.3722,165.77,-131.65,945.62,-1,-428,-49
1512177512,0.0028,-0.0288,0.3683,99.98,-154.36,934.69,-1,-428,-49
1512177512,-0.0067,-0.0272,0.3615,89.23,-144.90,877.20,-5,-435,-42
1512177512,-0.0149,0.0097,0.3615,105.29,-182.43,946.84,-5,-435,-42
1512177512,0.0039,0.0109,0.3328,97.72,-153.99,910.16,-5,-435,-42
1512177512,-0.0336,0.0011,0.3155,148.86,-170.41,873.66,-5,-435,-42
1512177512,-0.0230,0.0016,0.3123,105.90,-163.39,919.86,3,-440,-50
1512177512,-0.0258,0.0276,0.3096,72.51,-156.43,881.77,3,-440,-50
1512177512,-0.0281,0.0346,0.3013,106.81,-158.87,946.78,3,-440,-50
1512177512,-0.0334,0.0360,0.2916,136.84,-171.51,906.80,3,-440,-50
1512177513,-0.0234,0.0333,0.2943,85.63,-171.75,900.27,3,-440,-50
1512177513,-0.0121,0.0344,0.2935,102.72,-151.92,1001.16,19,-431,-42
1512177513,-0.0069,0.0313,0.2786,55.66,-166.99,875.92,19,-431,-42
1512177513,-0.0067,0.0328,0.2786,76.90,-199.28,1013.43,19,-431,-42
1512177513,-0.0249,0.0385,0.2722,87.71,-193.12,898.74,19,-431,-42
1512177513,-0.0206,0.0376,0.2545,106.20,-188.23,940.98,19,-431,-42
1512177513,-0.0269,0.0555,0.2498,114.93,-200.62,868.23,19,-400,-35
1512177513,-0.0192,0.0430,0.2433,73.36,-192.75,921.45,19,-400,-35
1512177513,-0.0288,0.0324,0.2382,100.22,-193.79,931.46,19,-400,-35
1512177513,-0.0310,0.0357,0.2313,105.59,-209.47,875.24,19,-400,-35
1512177513,-0.0162,0.0609,0.2298,13.92,-187.74,1003.11,35,-416,-44
1512177513,-0.0158,0.0687,0.2168,43.27,-159.30,922.30,35,-416,-44
1512177513,-0.0188,0.0542,0.2158,9.83,-196.59,950.07,35,-416,-44
1512177513,-0.0089,0.0704,0.2088,35.58,-176.82,1005.13,35,-416,-44
1512177513,-0.0071,0.0493,0.2032,1.16,-124.39,1004.76,35,-416,-44
1512177513,-0.0089,0.0238,0.2023,-7.69,-165.59,945.56,28,-423,-40
1512177513,-0.0021,0.0240,0.2083,-7.87,-183.90,979.80,28,-423,-40
1512177513,-0.0250,0.0348,0.1820,46.88,-168.46,945.86,28,-423,-40
1512177513,-0.0028,0.0360,0.1645,41.81,-189.76,905.21,28,-423,-40
1512177513,-0.0016,0.0329,0.1736,59.02,-230.65,972.17,28,-423,-40
1512177513,-0.0162,0.0316,0.1722,74.04,-213.75,913.39,35,-398,-30
1512177513,-0.0169,0.0289,0.1695,56.40,-192.38,891.42,35,-398,-30
1512177513,-0.0225,0.0272,0.1419,74.34,-143.25,883.36,35,-398,-30
1512177513,-0.0246,0.0205,0.1533,33.75,-181.27,913.27,35,-398,-30
1512177513,-0.0079,0.0133,0.1462,12.27,-174.44,908.02,49,-373,-57
1512177513,-0.0108,-0.0057,0.1493,6.96,-192.08,904.11,49,-373,-57
1512177513,-0.0077,-0.0097,0.1461,26.37,-215.03,889.10,49,-373,-57
1512177513,-0.0134,-0.0095,0.1450,41.93,-179.75,902.95,49,-373,-57
1512177513,-0.0286,0.0152,0.1325,39.18,-175.17,930.97,49,-373,-57
1512177513,-0.0237,0.0052,0.1210,13.98,-228.52,983.46,54,-389,-28
1512177513,-0.0209,0.0280,0.1153,-0.18,-184.88,974.43,54,-389,-28
1512177513,-0.0461,-0.0165,0.1194,139.16,-270.94,853.15,54,-389,-28
1512177513,-0.0137,0.0605,0.0909,181.03,-214.84,882.39,54,-389,-28
1512177513,-0.0385,0.0639,0.0960,75.20,-258.67,927.31,54,-389,-28
1512177513,0.0011,0.0499,0.0830,90.33,-187.50,947.69,54,-382,-35
1512177513,-0.0209,0.0047,0.0880,61.04,-151.98,887.51,54,-382,-35
1512177513,-0.0208,-0.0065,0.0927,46.94,-238.46,922.12,54,-382,-35
1512177513,-0.0080,-0.0089,0.0888,39.92,-177.37,1033.33,54,-382,-35
1512177514,-0.0328,0.0272,0.1083,14.83,-197.81,996.09,52,-384,-44
1512177514,-0.0182,0.0514,0.0814,57.50,-216.92,983.15,52,-384,-44
1512177514,-0.0422,0.0666,0.0844,35.40,-196.41,898.19,52,-384,-44
1512177514,-0.0493,0.0352,0.0743,-15.99,-203.67,946.90,52,-384,-44
1512177514,-0.0377,0.0545,0.0613,-11.11,-178.47,910.03,52,-384,-44
1512177514,-0.0280,0.0308,0.0210,-66.28,-147.09,977.36,82,-389,-38
1512177514,-0.0358,0.0318,0.0534,-24.35,-188.72,897.71,82,-389,-38
1512177514,-0.0413,0.0483,0.0527,-16.36,-218.20,891.85,82,-389,-38
1512177514,-0.0542,0.0350,0.0640,-36.44,-204.59,891.05,82,-389,-38
1512177514,-0.0485,0.0201,0.0679,-38.33,-177.12,926.64,68,-393,-45
1512177514,-0.0326,0.0321,0.0607,13.55,-211.12,894.47,68,-393,-45
1512177514,-0.0148,0.0455,0.0527,-10.07,-183.41,965.39,68,-393,-45
1512177514,-0.0188,0.0337,0.0417,13.00,-212.77,875.06,68,-393,-45
1512177514,-0.0099,0.0087,0.0394,-159.18,-184.88,967.41,68,-393,-45
1512177514,-0.0100,0.0248,-0.0117,11.35,-101.56,799.93,70,-377,-60
1512177514,-0.0043,0.0285,0.0304,-5.07,-276.55,965.88,70,-377,-60
1512177514,-0.0025,0.0137,0.0321,30.70,-200.93,814.58,70,-377,-60
1512177514,-0.0149,0.0087,0.0406,17.58,-223.75,922.00,70,-377,-60
1512177514,-0.0071,-0.0077,0.0510,-25.15,-230.47,866.94,70,-377,-60
1512177514,0.0031,-0.0003,0.0285,-3.05,-199.77,969.36,66,-398,-60
1512177514,0.0084,0.0256,0.0309,32.65,-205.69,937.56,66,-398,-60
1512177514,0.0083,0.0208,0.0474,-8.67,-220.28,1001.71,66,-398,-60
1512177514,0.0329,0.0387,0.0105,-60.97,-161.38,1020.81,66,-398,-60
1512177514,0.0308,0.0555,0.0136,-71.35,-224.00,902.10,63,-384,-60
1512177514,0.0361,0.0490,0.0031,-35.64,-181.52,938.78,63,-384,-60
1512177514,0.0273,0.0445,-0.0023,-7.51,-139.65,888.55,63,-384,-60
1512177514,0.0161,0.0495,-0.0037,-20.02,-182.43,920.17,63,-384,-60
1512177514,0.0800,0.0734,-0.0150,-95.52,-154.91,1034.30,63,-384,-60
1512177514,0.0559,0.0799,-0.0080,-28.50,-184.33,936.58,65,-389,-45
1512177514,0.0270,0.0811,0.0025,-51.76,-195.37,815.25,65,-389,-45
1512177514,0.0113,0.0545,0.0039,-31.43,-175.35,870.67,65,-389,-45
1512177514,-0.0023,0.0330,-0.0196,-138.12,-176.88,832.03,65,-389,-45
1512177514,-0.0005,0.0228,-0.0364,-125.31,-179.50,836.49,65,-389,-45
1512177514,0.0282,0.0318,-0.0398,-147.03,-202.82,919.07,79,-379,-22
1512177514,0.0648,0.0409,-0.0727,-116.88,-121.22,902.89,79,-379,-22
1512177514,0.0438,0.0284,-0.0493,-133.48,-119.26,906.86,79,-379,-22
1512177514,0.0630,0.0364,-0.0334,-106.02,-46.63,870.54,79,-379,-22
1512177514,0.0421,0.0248,-0.0334,-37.60,-91.98,818.66,65,-364,1
1512177515,0.0385,0.0232,-0.0418,-74.83,-198.91,817.20,65,-364,1
1512177515,0.0407,-0.0016,-0.0888,-194.70,-121.95,948.97,65,-364,1
1512177515,0.0065,-0.0369,-0.0867,-104.00,-181.70,882.87,65,-364,1
1512177515,0.0390,-0.0004,-0.0664,-114.62,-128.05,867.13,65,-364,1
1512177515,0.0380,0.0182,-0.0676,-98.08,-111.63,823.61,52,-377,-27
1512177515,0.0587,0.0233,-0.0651,-99.00,-104.80,981.20,52,-377,-27
1512177515,0.0634,-0.0112,-0.0579,-61.04,-99.55,959.05,52,-377,-27
1512177515,0.0622,-0.0286,-0.0648,-78.74,-118.23,969.54,52,-377,-27
1512177515,0.0634,-0.0297,-0.0631,-83.37,-91.13,880.86,56,-377,-10
1512177515,0.0550,-0.0150,-0.0720,-18.74,-119.32,897.89,56,-377,-10
1512177515,0.0571,-0.0093,-0.0719,-5.86,-69.27,920.90,56,-377,-10
1512177515,0.0394,-0.0273,-0.0683,-5.13,-104.98,864.50,56,-377,-10
1512177515,0.0216,-0.0433,-0.0759,-26.37,-100.52,848.88,56,-377,-10
1512177515,0.0153,-0.0473,-0.0658,-50.78,-97.78,872.92,57,-400,-22
1512177515,0.0246,-0.0322,-0.0747,-22.09,-59.57,885.74,57,-400,-22
1512177515,0.0032,-0.0477,-0.0679,9.22,-52.31,860.23,57,-400,-22
1512177515,0.0158,-0.0390,-0.0747,-24.23,-97.35,940.19,57,-400,-22
1512177515,0.0172,-0.0402,-0.0783,-42.91,-65.00,895.57,57,-400,-22
1512177515,0.0242,-0.0309,-0.0768,-115.23,-82.28,924.87,56,-398,-20
1512177515,0.0293,-0.0326,-0.0771,-89.97,-79.28,948.67,56,-398,-20
1512177515,0.0053,-0.0688,-0.0808,-48.58,-99.49,909.06,56,-398,-20
1512177515,0.0154,-0.0539,-0.0844,-111.88,-70.13,797.97,56,-398,-20
1512177515,0.0202,-0.0253,-0.0916,-135.62,-83.80,863.59,56,-398,-20
1512177515,0.0079,-0.0304,-0.1004,-90.03,-94.73,900.76,59,-387,-23
1512177515,0.0273,-0.0507,-0.1015,-168.40,-36.07,861.88,59,-387,-23
1512177515,0.0190,-0.0561,-0.0997,-145.81,-39.67,840.88,59,-387,-23
1512177515,0.0184,-0.0421,-0.1103,-110.05,-49.32,885.99,59,-387,-23
1512177515,0.0103,-0.0380,-0.1204,-101.07,-34.55,924.99,49,-394,-3
1512177515,0.0225,-0.0387,-0.1104,-95.09,-73.00,915.65,49,-394,-3
1512177515,0.0198,-0.0249,-0.1164,-145.39,-30.64,857.73,49,-394,-3
1512177515,0.0162,-0.0414,-0.1224,-54.63,-96.74,911.56,49,-394,-3
1512177515,0.0214,-0.0457,-0.1168,-146.79,-18.86,903.02,49,-394,-3
1512177515,0.0209,-0.0429,-0.1217,-195.25,-34.42,905.88,49,-398,-10
1512177515,0.0165,-0.0550,-0.1140,-147.52,-39.25,985.05,49,-398,-10
1512177515,-0.0100,-0.0570,-0.1197,-73.79,-54.20,990.11,49,-398,-10
1512177515,-0.0048,-0.0353,-0.1190,-35.28,-44.01,984.19,49,-398,-10
1512177515,-0.0286,-0.0439,-0.1214,-102.23,2.56,976.07,52,-391,20
1512177515,-0.0284,-0.0381,-0.1244,-76.23,-46.08,910.46,52,-391,20
1512177516,-0.0474,-0.0357,-0.1313,-64.39,-36.01,964.29,52,-391,20
1512177516,-0.0265,-0.0224,-0.1293,-120.48,-37.48,896.79,52,-391,20
1512177516,-0.0262,-0.0329,-0.1372,-58.17,-28.56,841.49,52,-391,20
1512177516,-0.0205,-0.0566,-0.1341,-129.76,-23.38,847.60,65,-382,28
1512177516,-0.0013,-0.0550,-0.1366,-157.41,-34.67,858.34,65,-382,28
1512177516,-0.0138,-0.0313,-0.1465,-37.84,-16.91,876.10,65,-382,28
1512177516,-0.0172,-0.0129,-0.1668,-60.79,-63.84,888.73,65,-382,28
1512177516,-0.0224,-0.0233,-0.1659,-102.23,-32.29,962.46,65,-382,28
1512177516,-0.0095,-0.0149,-0.1658,-114.38,-13.61,928.71,65,-393,28
1512177516,-0.0193,-0.0130,-0.1700,-150.27,-76.66,965.45,65,-393,28
1512177516,-0.0124,0.0013,-0.1695,-141.11,9.16,912.23,65,-393,28
1512177516,-0.0208,-0.0097,-0.1716,-141.11,-34.73,868.04,65,-393,28
1512177516,-0.0160,-0.0357,-0.1732,-145.51,-51.70,979.98,63,-387,16
1512177516,-0.0115,-0.0128,-0.1678,-118.71,18.43,932.86,63,-387,16
1512177516,-0.0007,-0.0063,-0.1824,-98.21,-61.83,1005.25,63,-387,16
1512177516,0.0194,0.0036,-0.1882,-176.03,-49.62,876.04,63,-387,16
1512177516,0.0282,0.0220,-0.1961,-135.44,-16.42,939.64,63,-387,16
1512177516,0.0366,0.0324,-0.1996,-117.92,18.49,945.56,54,-396,8
1512177516,0.0340,0.0354,-0.2071,-140.93,-22.52,806.46,54,-396,8
1512177516,0.0076,0.0097,-0.2037,-163.21,-14.16,891.54,54,-396,8
1512177516,-0.0005,-0.0052,-0.2020,-165.65,-52.86,841.49,54,-396,8
1512177516,-0.0107,0.0076,-0.2045,-172.85,3.30,851.14,54,-396,8
1512177516,-0.0316,-0.0031,-0.1969,-149.29,-61.95,892.52,43,-389,11
1512177516,-0.0161,-0.0065,-0.2161,-159.00,-23.50,817.38,43,-389,11
1512177516,-0.0241,0.0011,-0.2236,-202.58,-46.94,931.40,43,-389,11
1512177516,-0.0276,-0.0092,-0.2290,-188.17,3.85,920.84,43,-389,11
1512177516,-0.0206,-0.0085,-0.2284,-155.88,-67.38,941.10,33,-393,11
1512177516,-0.0061,0.0029,-0.2380,-193.60,-51.88,951.72,33,-393,11
1512177516,-0.0209,0.0055,-0.2429,-145.08,3.17,941.89,33,-393,11
1512177516,-0.0160,0.0234,-0.2493,-180.48,-59.51,856.93,33,-393,11
1512177516,-0.0023,0.0188,-0.2438,-194.34,-22.34,965.52,33,-393,11
1512177516,-0.0059,0.0069,-0.2418,-195.86,21.67,994.32,28,-405,13
1512177516,0.0130,0.0270,-0.2459,-210.02,26.73,840.21,28,-405,13
1512177516,0.0069,0.0160,-0.2535,-398.25,-7.45,1031.62,28,-405,13
1512177516,-0.0017,0.0454,-0.2724,-288.45,-3.23,937.99,28,-405,13
1512177516,-0.0280,0.0321,-0.2676,-267.82,-10.50,1028.69,28,-405,13
1512177516,-0.0230,0.0217,-0.2772,-167.24,-15.26,1042.11,19,-403,18
1512177516,-0.0325,0.0344,-0.2771,-152.10,-1.46,1032.10,19,-403,18
1512177517,-0.0213,0.0510,-0.2944,-324.95,-2.08,875.43,19,-403,18
1512177517,-0.0390,0.0328,-0.3025,-281.49,-35.03,976.93,19,-403,18
1512177517,-0.0232,0.0399,-0.2910,-265.38,5.31,884.16,31,-391,6
1512177517,-0.0471,0.0370,-0.2956,-259.34,9.83,879.39,31,-391,6
1512177517,-0.0269,0.0161,-0.3097,-369.26,-45.47,995.73,31,-391,6
1512177517,-0.0469,0.0166,-0.3021,-306.34,59.39,921.14,31,-391,6
1512177517,-0.0439,0.0304,-0.3039,-242.80,2.08,964.11,31,-391,6
1512177517,-0.0478,0.0129,-0.3189,-279.85,-54.38,953.86,19,-400,18
1512177517,-0.0354,0.0158,-0.3053,-218.99,51.09,951.72,19,-400,18
1512177517,-0.0625,0.0611,-0.3217,-181.88,-59.08,876.59,19,-400,18
1512177517,-0.0494,0.0771,-0.3220,-202.51,29.79,948.55,19,-400,18
1512177517,-0.0598,0.0812,-0.3189,-143.92,-41.81,946.17,19,-400,18
1512177517,-0.0459,0.0660,-0.3152,-190.55,-48.83,920.29,17,-401,6
1512177517,-0.0237,0.0525,-0.3139,-212.16,-38.94,864.20,17,-401,6
1512177517,-0.0069,0.0188,-0.3033,-290.65,-57.80,938.23,17,-401,6
1512177517,-0.0076,0.0091,-0.2929,-166.81,6.53,992.00,17,-401,6
1512177517,0.0158,0.0132,-0.2894,-200.01,36.07,1012.76,8,-386,32
1512177517,0.0298,0.0015,-0.2913,-266.60,-0.92,952.03,8,-386,32
1512177517,0.0282,0.0178,-0.2941,-149.11,42.18,933.47,8,-386,32
1512177517,-0.0105,0.0152,-0.3027,-172.91,41.69,978.82,8,-386,32
1512177517,-0.0157,-0.0068,-0.3092,-239.75,-14.04,928.65,8,-386,32
1512177517,-0.0594,-0.0162,-0.3097,-171.57,-5.62,996.64,1,-396,25
1512177517,-0.0333,-0.0084,-0.3005,-269.47,-41.20,977.78,1,-396,25
1512177517,0.0053,0.0182,-0.2968,-289.12,-33.14,849.24,1,-396,25
1512177517,0.0016,0.0365,-0.2900,-147.58,1.40,781.98,1,-396,25
1512177517,0.0081,0.0332,-0.2858,-191.16,2.62,898.13,1,-396,25
1512177517,-0.0043,0.0023,-0.2854,-177.06,-43.33,812.26,-1,-421,8
1512177517,-0.0099,-0.0148,-0.2860,-93.51,-39.79,827.70,-1,-421,8
1512177517,0.0000,0.0099,-0.2840,-110.96,-21.36,935.42,-1,-421,8
1512177517,0.0193,0.0238,-0.2906,-199.52,3.91,928.53,-1,-421,8
1512177517,0.0001,0.0212,-0.2870,-174.44,-31.68,880.68,-17,-416,27
1512177517,0.0080,0.0053,-0.2860,-220.15,-24.78,905.88,-17,-416,27
1512177517,0.0015,-0.0072,-0.2778,-229.61,-70.56,894.59,-17,-416,27
1512177517,0.0333,0.0021,-0.2724,-181.82,-10.38,920.29,-17,-416,27
1512177517,0.0087,-0.0190,-0.2595,-140.81,-22.09,954.53,-17,-416,27
1512177517,0.0055,-0.0395,-0.2533,-104.06,-57.62,924.74,-14,-398,16
1512177517,0.0236,-0.0133,-0.2478,-113.34,32.65,900.39,-14,-398,16
1512177517,0.0222,-0.0024,-0.2471,-155.76,-15.50,909.61,-14,-398,16
1512177518,0.0206,-0.0148,-0.2433,-119.45,-13.06,922.85,-14,-398,16
1512177518,0.0248,-0.0285,-0.2360,-169.98,4.76,938.60,-38,-401,13
1512177518,0.0025,-0.0249,-0.2346,-73.73,-54.93,944.76,-38,-401,13
1512177518,0.0113,0.0024,-0.2265,-118.77,-49.74,894.41,-38,-401,13
1512177518,-0.0079,0.0097,-0.2200,-0.24,-34.00,938.84,-38,-401,13
1512177518,0.0053,0.0033,-0.2091,-89.23,6.29,926.39,-38,-401,13
1512177518,0.0124,-0.0173,-0.2084,-110.41,-34.61,893.19,-43,-407,11
1512177518,0.0240,-0.0490,-0.2276,-227.91,88.56,1151.18,-43,-407,11
1512177518,0.0242,0.0043,-0.1862,-192.38,42.85,974.85,-43,-407,11
1512177518,0.0029,-0.0040,-0.1995,-285.58,8.36,941.10,-43,-407,11
1512177518,-0.0063,-0.0264,-0.1740,-139.77,-46.02,889.04,-43,-407,11
1512177518,-0.0079,-0.0309,-0.1654,-159.12,2.56,839.11,-43,-421,22
1512177518,-0.0087,-0.0381,-0.1614,-173.16,-48.40,902.47,-43,-421,22
1512177518,-0.0154,-0.0493,-0.1541,-113.22,-40.59,855.22,-43,-421,22
1512177518,-0.0348,-0.0896,-0.1354,-44.74,17.40,1000.85,-43,-421,22
1512177518,-0.0103,-0.0703,-0.1374,-60.55,-36.13,932.50,-52,-430,23
1512177518,-0.0280,-0.0310,-0.1274,-50.11,44.07,924.74,-52,-430,23
1512177518,-0.0312,-0.0168,-0.1316,9.28,-33.57,980.16,-52,-430,23
1512177518,-0.0152,-0.0350,-0.1325,-18.55,-29.36,969.79,-52,-430,23
1512177518,-0.0260,-0.0382,-0.1196,-24.60,-21.48,872.74,-52,-430,23
1512177518,-0.0220,-0.0293,-0.0973,-30.46,-16.11,1033.57,-56,-426,-6
1512177518,-0.0393,0.0254,-0.0851,-0.98,-72.08,880.43,-56,-426,-6
1512177518,-0.0217,-0.0096,-0.0943,-1.95,-2.08,912.84,-56,-426,-6
1512177518,-0.0176,-0.0121,-0.0658,41.75,-73.49,969.12,-56,-426,-6
1512177518,-0.0092,0.0064,-0.0469,-88.38,-59.51,889.53,-56,-426,-6
1512177518,-0.0141,0.0172,-0.0522,-87.89,9.77,945.50,-65,-421,1
1512177518,-0.0128,0.0045,-0.0451,36.62,-52.67,884.58,-65,-421,1
1512177518,-0.0093,0.0274,-0.0158,-52.49,-15.69,949.34,-65,-421,1
1512177518,-0.0188,0.0566,-0.0365,-10.68,-5.43,948.55,-65,-421,1
1512177518,-0.0112,0.0625,-0.0413,10.68,-48.22,1001.59,-50,-421,5
1512177518,-0.0278,0.0551,-0.0281,-19.96,-43.09,867.86,-50,-421,5
1512177518,-0.0414,0.0252,-0.0182,20.87,-14.77,902.40,-50,-421,5
1512177518,-0.0301,0.0157,-0.0085,11.11,7.93,1010.74,-50,-421,5
1512177518,-0.0406,0.0035,0.0015,-89.60,-35.03,934.14,-50,-421,5
1512177518,-0.0391,0.0130,0.0088,-108.28,-47.42,979.00,-66,-409,-10
1512177518,-0.0011,0.0148,0.0220,-110.35,-52.19,1092.04,-66,-409,-10
1512177518,-0.0368,-0.0172,0.0399,28.56,-44.37,921.33,-66,-409,-10
1512177519,-0.0298,-0.0115,0.0294,67.57,-10.44,907.59,-66,-409,-10
1512177519,-0.0079,0.0083,0.0200,112.49,-71.53,821.29,-43,-417,-8
1512177519,0.0008,0.0148,0.0063,69.21,62.07,1039.55,-43,-417,-8
1512177519,0.0162,0.0435,0.0515,80.81,-46.45,923.34,-43,-417,-8
1512177519,-0.0168,0.0316,0.0591,74.04,-19.53,958.62,-43,-417,-8
1512177519,-0.0117,-0.0230,0.0611,42.42,-71.59,847.41,-43,-417,-8
1512177519,-0.0324,-0.0304,0.0767,2.08,-88.62,959.11,-66,-416,-33
1512177519,0.0027,-0.0405,0.0928,-2.32,-21.24,947.45,-66,-416,-33
1512177519,-0.0365,-0.0213,0.1027,89.29,-4.88,785.52,-66,-416,-33
1512177519,-0.0510,-0.0004,0.1053,143.19,-67.26,889.95,-66,-416,-33
1512177519,-0.0383,0.0059,0.1020,101.01,-16.30,911.07,-66,-416,-33
1512177519,-0.0294,0.0119,0.0965,83.01,32.29,935.42,-43,-410,-22
1512177519,-0.0063,0.0369,0.0927,41.02,-61.22,992.92,-43,-410,-22
1512177519,-0.0051,0.0542,0.1019,91.92,26.25,855.90,-43,-410,-22
1512177519,-0.0334,0.0510,0.1208,8.00,48.95,800.11,-43,-410,-22
1512177519,-0.0120,0.0414,0.1304,30.94,-21.12,1001.59,-45,-394,-20
1512177519,0.0043,0.0091,0.1285,57.68,-6.77,1059.94,-45,-394,-20
1512177519,-0.0056,0.0196,0.1469,-23.19,-22.46,946.53,-45,-394,-20
1512177519,-0.0144,0.0164,0.1439,61.04,-55.18,942.63,-45,-394,-20
1512177519,-0.0125,0.0033,0.1594,30.03,-28.63,833.25,-45,-394,-20
1512177519,-0.0137,0.0059,0.1577,35.40,-12.02,829.96,-54,-403,-18
1512177519,-0.0133,-0.0005,0.1595,-28.75,-27.34,923.83,-54,-403,-18
1512177519,-0.0083,0.0031,0.1487,43.52,23.13,934.88,-54,-403,-18
1512177519,-0.0201,-0.0045,0.1454,47.85,-17.33,962.83,-54,-403,-18
1512177519,-0.0027,0.0133,0.1521,31.62,12.33,944.52,-54,-403,-18
1512177519,0.0056,0.0206,0.1589,8.30,-24.78,884.77,-43,-396,-18
1512177519,-0.0134,-0.0158,0.1579,31.92,-35.10,897.22,-43,-396,-18
1512177519,-0.0104,-0.0158,0.1735,8.30,25.21,904.72,-43,-396,-18
1512177519,0.0153,-0.0166,0.1980,-51.94,-75.74,1040.77,-43,-396,-18
1512177519,0.0152,-0.0340,0.1941,-63.11,12.76,931.21,-36,-375,-8
1512177519,0.0262,-0.0144,0.1937,10.38,-23.13,1025.33,-36,-375,-8
1512177519,0.0149,0.0103,0.1939,52.80,-3.91,902.77,-36,-375,-8
1512177519,0.0117,0.0214,0.1880,132.14,-32.47,893.43,-36,-375,-8
1512177519,0.0165,0.0101,0.1976,81.60,-23.32,903.50,-36,-375,-8
1512177519,0.0109,0.0228,0.1964,80.26,-8.24,939.27,-28,-405,-23
1512177519,0.0095,-0.0032,0.2144,113.77,-38.27,908.39,-28,-405,-23
1512177519,0.0115,-0.0019,0.2135,133.73,11.84,898.99,-28,-405,-23
1512177519,0.0003,-0.0120,0.2168,115.36,-27.53,851.07,-28,-405,-23
1512177520,0.0269,0.0165,0.2292,82.46,30.33,999.45,-28,-405,-23
1512177520,0.0222,0.0069,0.2317,75.81,-7.39,928.89,-17,-412,-6
1512177520,0.0313,-0.0019,0.2340,73.85,-20.75,907.90,-17,-412,-6
1512177520,0.0181,-0.0190,0.2326,65.92,-4.52,845.64,-17,-412,-6
1512177520,0.0232,0.0185,0.2382,65.31,-6.47,881.41,-17,-412,-6
1512177520,0.0121,0.0096,0.2407,55.11,-9.58,941.89,-14,-398,-13
1512177520,0.0044,-0.0130,0.2481,85.14,9.58,845.46,-14,-398,-13
1512177520,0.0092,-0.0017,0.2490,131.53,23.38,859.44,-14,-398,-13
1512177520,0.0138,0.0085,0.2633,79.28,4.33,912.54,-14,-398,-13
1512177520,0.0414,-0.0137,0.2643,25.27,7.75,980.90,-14,-398,-13
1512177520,0.0368,-0.0069,0.2714,31.07,56.70,911.19,-21,-409,-40
1512177520,0.0389,0.0262,0.2740,5.31,12.15,815.67,-21,-409,-40
1512177520,0.0340,-0.0206,0.2742,78.12,-34.55,953.67,-21,-409,-40
1512177520,0.0072,-0.0378,0.2826,28.14,57.25,851.75,-21,-409,-40
1512177520,0.0373,0.0061,0.2679,120.42,27.28,1087.83,-21,-409,-40
1512177520,-0.0075,-0.0406,0.2759,121.58,22.95,966.25,-10,-401,-27
1512177520,-0.0089,-0.0360,0.2768,117.00,34.61,966.37,-10,-401,-27
1512177520,-0.0108,-0.0590,0.2858,68.18,-27.95,963.87,-10,-401,-27
1512177520,-0.0146,-0.0535,0.2775,116.82,83.07,1003.17,-10,-401,-27
1512177520,-0.0238,-0.0623,0.2842,76.72,-46.69,1013.24,-3,-391,-27
1512177520,-0.0073,-0.0497,0.2814,103.39,43.33,937.93,-3,-391,-27
1512177520,-0.0304,-0.0469,0.2896,115.84,49.32,813.11,-3,-391,-27
1512177520,-0.0130,-0.0037,0.2892,85.75,39.67,1029.42,-3,-391,-27
1512177520,-0.0156,0.0225,0.3055,106.63,-45.72,867.86,-3,-391,-27
1512177520,-0.0073,0.0064,0.2961,66.53,41.69,799.56,-1,-414,-22
1512177520,0.0035,-0.0489,0.2999,147.16,-29.79,924.68,-1,-414,-22
1512177520,0.0254,0.0274,0.3007,33.20,91.49,960.51,-1,-414,-22
1512177520,0.0296,0.0313,0.2999,136.96,31.37,995.54,-1,-414,-22
1512177520,-0.0001,-0.0296,0.2944,96.44,-11.54,892.03,0,-401,-33
1512177520,-0.0012,-0.0590,0.3072,153.75,-12.02,882.51,0,-401,-33
1512177520,0.0017,-0.0268,0.3101,137.82,13.24,926.57,0,-401,-33
1512177520,-0.0012,-0.0137,0.3076,130.68,24.90,862.73,0,-401,-33
1512177520,-0.0091,0.0059,0.3104,166.81,28.69,867.19,0,-401,-33
1512177520,-0.0190,0.0071,0.3096,174.32,11.96,779.24,19,-403,-25
1512177520,-0.0063,0.0043,0.3000,182.74,17.15,944.89,19,-403,-25
1512177520,-0.0289,-0.0301,0.3156,86.24,9.83,959.23,19,-403,-25
1512177520,-0.0174,-0.0302,0.3214,101.01,54.69,903.63,19,-403,-25
1512177520,-0.0220,-0.0107,0.3410,79.77,65.12,974.55,19,-403,-25
1512177521,-0.0025,0.0288,0.3438,133.30,28.81,916.38,21,-405,-44
1512177521,0.0017,0.0333,0.3317,177.49,25.88,979.80,21,-405,-44
1512177521,-0.0085,-0.0032,0.3635,201.35,11.78,973.75,21,-405,-44
1512177521,-0.0088,-0.0334,0.3443,127.01,93.87,937.01,21,-405,-44
1512177521,0.0137,0.0045,0.3522,107.36,8.06,898.99,21,-412,-54
1512177521,0.0170,0.0330,0.3526,121.28,62.81,888.92,21,-412,-54
1512177521,0.0015,0.0419,0.3605,107.18,59.69,907.35,21,-412,-54
1512177521,0.0045,0.0241,0.3667,135.56,69.34,1036.07,21,-412,-54
1512177521,0.0121,-0.0003,0.3755,197.75,83.92,1041.32,21,-412,-54
1512177521,0.0109,-0.0029,0.3880,109.19,60.06,945.25,42,-412,-50
1512177521,0.0330,0.0451,0.3834,147.22,101.93,952.58,42,-412,-50
1512177521,0.0361,0.0731,0.3945,143.68,7.69,955.20,42,-412,-50
1512177521,0.0193,0.0489,0.4075,145.75,73.18,923.89,42,-412,-50
1512177521,-0.0238,-0.0057,0.3870,209.41,70.80,915.53,42,-412,-50
1512177521,-0.0264,-0.0064,0.4096,102.91,26.06,938.11,33,-400,-45
1512177521,-0.0256,-0.0033,0.4028,135.50,77.27,921.94,33,-400,-45
1512177521,-0.0406,-0.0035,0.4103,190.67,40.89,858.58,33,-400,-45
1512177521,-0.0308,0.0105,0.4136,156.49,28.93,852.66,33,-400,-45
1512177521,-0.0294,0.0296,0.4112,149.29,105.53,895.20,40,-400,-55
1512177521,-0.0350,0.0257,0.4157,168.21,43.40,981.75,40,-400,-55
1512177521,-0.0317,0.0170,0.4296,133.00,56.21,952.27,40,-400,-55
1512177521,-0.0313,0.0374,0.4234,157.96,-11.78,850.34,40,-400,-55
1512177521,-0.0186,0.0298,0.4149,94.79,63.48,982.18,40,-400,-55
1512177521,-0.0142,0.0483,0.4182,82.09,89.36,915.10,75,-396,-62
1512177521,-0.0116,0.0337,0.4205,96.25,76.90,1028.87,75,-396,-62
1512177521,-0.0181,0.0386,0.4202,87.28,63.60,915.53,75,-396,-62
1512177521,-0.0099,0.0644,0.4139,49.13,63.23,955.51,75,-396,-62
1512177521,-0.0190,0.0443,0.4124,84.66,73.67,905.33,72,-386,-49
1512177521,-0.0109,0.0334,0.4152,91.25,57.56,946.72,72,-386,-49
1512177521,-0.0121,0.0474,0.4092,57.37,10.99,866.52,72,-386,-49
1512177521,-0.0068,0.0458,0.4036,67.87,68.79,843.44,72,-386,-49
1512177521,-0.0039,0.0559,0.4037,102.72,-23.62,926.27,72,-386,-49
1512177521,-0.0270,0.0181,0.4079,142.15,19.96,892.94,73,-363,-33
1512177521,-0.0205,0.0067,0.4052,139.89,0.67,843.26,73,-363,-33
1512177521,-0.0073,0.0249,0.4056,70.31,28.32,871.09,73,-363,-33
1512177521,0.0004,0.0478,0.4029,113.89,0.92,976.75,73,-363,-33
1512177521,0.0105,0.0494,0.4031,149.90,-43.76,916.99,73,-363,-33
1512177522,-0.0041,0.0222,0.4052,151.43,-36.07,883.73,79,-357,-49
1512177522,-0.0124,0.0229,0.4071,127.44,-55.05,867.74,79,-357,-49
1512177522,-0.0079,0.0270,0.4035,113.28,-7.63,969.67,79,-357,-49
1512177522,0.0009,0.0293,0.4027,99.55,25.09,939.39,79,-357,-49
1512177522,0.0128,0.0402,0.3944,33.45,-13.12,907.53,84,-352,-20
1512177522,0.0112,0.0422,0.4052,7.45,-30.58,1003.85,84,-352,-20
1512177522,0.0121,0.0459,0.4012,-7.69,-15.14,999.33,84,-352,-20
1512177522,0.0027,0.0461,0.4043,72.94,-11.72,907.35,84,-352,-20
1512177522,0.0053,0.0387,0.3963,85.02,-83.07,869.63,84,-352,-20
1512177522,0.0061,0.0550,0.3973,114.32,-22.03,767.27,94,-338,-27
1512177522,0.0160,0.0622,0.4065,43.09,-50.35,987.12,94,-338,-27
1512177522,0.0228,0.0654,0.4080,65.06,-43.52,1023.80,94,-338,-27
1512177522,-0.0035,0.0535,0.4024,93.75,-0.06,881.53,94,-338,-27
1512177522,-0.0056,0.0427,0.4061,67.81,-20.94,920.90,94,-338,-27
1512177522,0.0037,0.0301,0.4089,41.02,-8.79,924.99,105,-338,-30
1512177522,-0.0016,0.0430,0.4044,7.14,-34.42,903.14,105,-338,-30
1512177522,0.0060,0.0462,0.3871,54.08,-13.73,918.95,105,-338,-30
1512177522,-0.0028,0.0463,0.3904,49.74,-19.96,904.48,105,-338,-30
1512177522,-0.0047,0.0506,0.3996,75.93,-26.98,947.88,112,-324,-16
1512177522,-0.0023,0.0526,0.3965,95.70,-37.78,876.40,112,-324,-16
1512177522,0.0032,0.0633,0.3988,35.16,-19.04,915.71,112,-324,-16
1512177522,0.0145,0.0648,0.3984,22.16,-38.21,935.55,112,-324,-16
1512177522,0.0100,0.0477,0.3964,26.25,-57.68,865.48,112,-324,-16
1512177522,0.0100,0.0435,0.4041,35.28,-54.99,911.99,115,-306,-50
1512177522,0.0193,0.0340,0.4089,17.46,-56.46,948.00,115,-306,-50
1512177522,0.0246,0.0381,0.4127,37.05,-42.85,848.33,115,-306,-50
1512177522,0.0020,0.0458,0.4133,64.39,-50.90,871.58,115,-306,-50
1512177522,0.0186,0.0393,0.4120,52.06,-47.79,934.94,115,-306,-50
1512177522,0.0021,0.0320,0.4091,62.99,-46.51,907.23,112,-310,-23
1512177522,0.0093,0.0228,0.4108,83.92,-57.31,912.96,112,-310,-23
1512177522,0.0072,0.0324,0.4089,72.33,-67.44,852.84,112,-310,-23
1512177522,-0.0021,0.0268,0.4113,36.80,-99.12,887.76,112,-310,-23
1512177522,0.0051,0.0281,0.4016,-12.45,-69.52,946.17,119,-282,-37
1512177522,0.0016,0.0308,0.4135,-8.30,-109.01,896.67,119,-282,-37
1512177522,0.0104,0.0445,0.4193,-54.32,-73.30,884.83,119,-282,-37
1512177522,0.0080,0.0403,0.4401,13.18,-138.12,881.23,119,-282,-37
1512177522,0.0076,0.0377,0.4477,78.86,-130.25,741.82,119,-282,-37
1512177522,0.0160,0.0519,0.4455,-12.45,-104.06,865.54,122,-285,-40
1512177523,0.0242,0.0490,0.4429,17.76,-152.83,1004.27,122,-285,-40
1512177523,0.0129,0.0382,0.4389,57.19,-80.20,902.47,122,-285,-40
1512177523,0.0178,0.0499,0.4442,47.91,-123.90,944.27,122,-285,-40
1512177523,0.0162,0.0350,0.4514,75.68,-68.36,907.17,122,-285,-40
1512177523,0.0076,0.0221,0.4509,53.34,-90.15,925.11,119,-278,-40
1512177523,0.0237,0.0280,0.4523,16.42,-86.00,976.75,119,-278,-40
1512177523,0.0075,0.0057,0.4526,39.92,-72.02,995.30,119,-278,-40
1512177523,-0.0124,-0.0313,0.4673,17.46,-65.73,979.80,119,-278,-40
1512177523,-0.0284,-0.0674,0.4762,53.65,-51.57,942.20,126,-250,-30
1512177523,-0.0450,-0.0971,0.4726,-36.50,-69.89,953.86,126,-250,-30
1512177523,-0.0535,-0.1139,0.4704,-38.15,-40.28,979.92,126,-250,-30
1512177523,-0.0720,-0.1550,0.4743,61.77,-65.80,964.11,126,-250,-30
1512177523,-0.0655,-0.1435,0.4746,5.68,-67.02,1043.58,126,-250,-30
1512177523,-0.0960,-0.1756,0.4667,138.43,-55.36,969.60,133,-253,-16
1512177523,-0.0992,-0.1615,0.4704,123.78,-80.87,897.52,133,-253,-16
1512177523,-0.0664,-0.1446,0.4764,103.88,-84.17,891.48,133,-253,-16
1512177523,-0.0511,-0.1393,0.5112,111.45,-114.87,945.01,133,-253,-16
1512177523,-0.0352,-0.1190,0.5218,141.11,-57.07,842.41,133,-253,-16
1512177523,-0.0132,-0.0790,0.4690,101.50,-138.61,813.90,131,-245,-15
1512177523,0.0117,-0.0631,0.4450,163.64,-83.62,813.78,131,-245,-15
1512177523,-0.0210,-0.0826,0.4463,181.82,-126.10,825.81,131,-245,-15
1512177523,0.0156,-0.0808,0.4984,191.65,-102.78,980.35,131,-245,-15
1512177523,0.0125,-0.0362,0.5097,49.38,-58.65,1008.42,133,-246,-54
1512177523,-0.0140,0.0097,0.4949,167.05,-78.49,906.80,133,-246,-54
1512177523,-0.0076,0.0891,0.4715,105.90,-66.89,989.26,133,-246,-54
1512177523,-0.0640,0.1285,0.4872,180.60,6.77,1048.71,133,-246,-54
1512177523,-0.1297,0.1959,0.4872,157.17,-72.14,1049.07,133,-246,-54
1512177523,-0.0991,0.1702,0.4748,22.58,-54.32,1028.93,130,-225,-40
1512177523,-0.0891,0.1814,0.4715,18.25,-4.52,972.47,130,-225,-40
1512177523,-0.0951,0.1692,0.4824,75.32,-102.97,954.90,130,-225,-40
1512177523,-0.1144,0.1394,0.4908,119.69,-75.32,817.44,130,-225,-40
1512177523,-0.1376,0.1233,0.5001,187.62,-65.92,830.02,135,-195,-35
1512177523,-0.0872,0.1326,0.4883,49.13,-112.79,802.55,135,-195,-35
1512177523,-0.1036,0.0810,0.4988,112.24,-120.24,846.50,135,-195,-35
1512177523,-0.0835,0.0430,0.5035,-90.45,-157.90,1012.82,135,-195,-35
1512177523,-0.0862,0.0202,0.4767,-48.22,-111.45,898.56,135,-195,-35
1512177523,-0.0871,-0.0056,0.5112,-49.32,-147.34,921.33,135,-174,-35
1512177523,-0.0546,0.0140,0.4872,-73.91,-118.59,965.76,135,-174,-35
1512177524,-0.0598,-0.0001,0.4716,80.14,-142.70,954.10,135,-174,-35
1512177524,-0.0960,-0.0321,0.4582,108.28,-74.46,879.33,135,-174,-35
1512177524,-0.0702,-0.0265,0.4618,132.63,-101.99,859.31,135,-174,-35
1512177524,-0.0518,-0.0025,0.4606,93.32,-83.50,920.47,145,-174,-32
1512177524,-0.0720,-0.0451,0.4695,145.81,-111.76,933.41,145,-174,-32
1512177524,-0.0650,-0.0178,0.4682,107.67,-94.54,930.91,145,-174,-32
1512177524,-0.0699,-0.0178,0.4795,35.22,-87.59,796.33,145,-174,-32
1512177524,-0.0522,0.0056,0.4795,-8.00,-74.58,867.07,145,-163,-45
1512177524,-0.0621,0.0025,0.4760,26.79,-88.38,858.95,145,-163,-45
1512177524,-0.0668,-0.0115,0.4710,0.18,-105.29,1039.49,145,-163,-45
1512177524,-0.0595,-0.0310,0.4786,-4.46,-79.35,967.16,145,-163,-45
1512177524,-0.0517,-0.0387,0.4783,15.01,-102.78,957.03,145,-163,-45
1512177524,-0.0398,-0.0336,0.4779,72.27,-80.93,827.39,151,-144,-37
1512177524,-0.0232,-0.0585,0.4880,18.55,-76.66,870.42,151,-144,-37
1512177524,0.0043,-0.0627,0.4902,-17.88,-89.54,946.84,151,-144,-37
1512177524,0.0083,-0.0951,0.4840,-76.05,-71.53,1039.79,151,-144,-37
1512177524,0.0170,-0.1128,0.4772,-48.58,-154.17,890.26,151,-144,-37
1512177524,-0.0003,-0.1586,0.4498,12.39,-83.01,894.53,142,-149,-52
1512177524,-0.0015,-0.1590,0.4438,-51.27,-50.84,860.35,142,-149,-52
1512177524,0.0573,-0.0925,0.4354,-22.83,-47.24,1109.13,142,-149,-52
1512177524,0.0666,-0.0631,0.4222,48.65,-12.82,1117.68,142,-149,-52
1512177524,0.0720,-0.0561,0.4019,92.29,-17.94,1038.76,130,-155,-40
1512177524,0.0979,-0.0172,0.4005,136.60,-35.46,1047.73,130,-155,-40
1512177524,0.1068,0.0116,0.3903,95.21,9.58,996.40,130,-155,-40
1512177524,0.1156,0.0354,0.3824,149.90,-6.10,958.98,130,-155,-40
1512177524,0.0921,0.0903,0.3795,7.39,-19.47,806.27,130,-155,-40
1512177524,0.0780,0.0735,0.3764,87.95,-25.94,882.69,115,-141,-44
1512177524,0.0787,0.0780,0.3655,-0.06,-33.39,834.23,115,-141,-44
1512177524,0.0625,0.0786,0.3828,-7.20,-4.03,897.64,115,-141,-44
1512177524,0.0261,0.0820,0.3862,8.06,-40.71,838.13,115,-141,-44
1512177524,0.0210,0.0834,0.3675,8.00,-37.96,796.69,122,-109,-33
1512177524,-0.0107,0.0328,0.3650,-1.53,-82.46,926.33,122,-109,-33
1512177524,0.0133,0.0469,0.3743,-110.29,-101.32,878.42,122,-109,-33
1512177524,-0.0020,0.0443,0.3505,-78.12,-70.80,845.28,122,-109,-33
1512177524,-0.0071,0.0469,0.3410,-48.03,-72.33,922.61,122,-109,-33
1512177524,-0.0085,0.0549,0.3285,-85.82,-70.62,990.05,101,-105,-6
1512177524,-0.0003,0.0391,0.3089,-36.62,-59.14,875.37,101,-105,-6
1512177524,-0.0153,0.0174,0.3180,-27.34,-98.08,883.91,101,-105,-6
1512177525,-0.0182,0.0023,0.3099,-15.26,-73.00,917.91,101,-105,-6
1512177525,-0.0130,-0.0049,0.3119,-31.56,-65.98,920.23,101,-105,-6
1512177525,-0.0004,0.0065,0.3116,-25.51,-49.32,805.42,94,-98,-23
1512177525,-0.0161,-0.0077,0.3173,31.80,-92.77,838.99,94,-98,-23
1512177525,0.0055,0.0011,0.3218,8.73,-45.29,895.51,94,-98,-23
1512177525,0.0081,0.0132,0.3170,-31.86,-80.99,946.84,94,-98,-23
1512177525,-0.0001,0.0056,0.3161,-35.28,-74.46,896.06,107,-89,-1
1512177525,0.0005,0.0119,0.3116,-19.78,-93.32,884.03,107,-89,-1
1512177525,-0.0019,0.0194,0.3079,-36.50,-70.07,943.79,107,-89,-1
1512177525,0.0061,0.0297,0.3025,-21.36,-70.68,918.95,107,-89,-1
1512177525,0.0061,0.0317,0.3005,-53.71,-103.45,846.56,107,-89,-1
1512177525,-0.0048,0.0296,0.2939,-38.02,-123.84,880.49,96,-79,-15
1512177525,0.0048,0.0365,0.2879,-61.04,-81.60,998.78,96,-79,-15
1512177525,0.0000,0.0250,0.2863,-49.13,-111.76,1023.38,96,-79,-15
1512177525,0.0048,0.0317,0.2906,-20.32,-114.62,767.46,96,-79,-15
1512177525,-0.0285,-0.0051,0.2929,-3.60,-128.48,823.24,96,-79,-15
1512177525,-0.0180,-0.0061,0.2907,-11.23,-145.87,870.24,94,-56,-6
1512177525,-0.0051,0.0170,0.2859,-16.78,-121.46,1026.55,94,-56,-6
1512177525,-0.0033,0.0081,0.2815,-19.59,-144.04,991.70,94,-56,-6
1512177525,-0.0019,0.0109,0.2827,-30.46,-143.01,978.58,94,-56,-6
1512177525,0.0099,0.0189,0.2818,-10.50,-139.22,962.04,94,-59,-16
1512177525,0.0095,0.0178,0.2812,10.44,-134.70,955.20,94,-59,-16
1512177525,0.0100,0.0127,0.2867,-52.98,-163.45,962.65,94,-59,-16
1512177525,0.0169,0.0138,0.2846,-1.40,-198.79,980.83,94,-59,-16
1512177525,0.0003,-0.0103,0.2874,8.06,-197.88,895.08,94,-59,-16
1512177525,-0.0510,-0.0442,0.2832,0.00,-210.33,894.41,91,-56,-47
1512177525,-0.0157,-0.0162,0.2816,1.59,-219.54,933.72,91,-56,-47
1512177525,-0.0012,0.0015,0.2882,2.14,-217.77,890.14,91,-56,-47
1512177525,-0.0185,-0.0004,0.2859,-12.02,-238.71,890.14,91,-56,-47
1512177525,-0.0149,-0.0005,0.2920,-21.24,-232.12,963.99,79,-58,5
1512177525,-0.0095,-0.0007,0.2900,-6.16,-232.24,958.07,79,-58,5
1512177525,-0.0120,0.0040,0.2943,-29.48,-235.47,932.07,79,-58,5
1512177525,-0.0036,0.0048,0.2948,-54.20,-246.52,897.46,79,-58,5
1512177525,-0.0148,0.0000,0.2951,2.08,-249.21,933.47,79,-58,5
1512177525,-0.0152,-0.0016,0.3032,-31.43,-280.27,957.58,82,-51,-5
1512177525,-0.0005,0.0095,0.3063,13.79,-248.96,891.48,82,-51,-5
1512177525,0.0004,0.0174,0.3059,-41.26,-241.58,927.06,82,-51,-5
1512177525,-0.0007,0.0124,0.3019,24.23,-231.32,923.52,82,-51,-5
1512177526,-0.0024,0.0123,0.2987,-6.96,-248.47,867.68,82,-51,-5
1512177526,-0.0041,0.0170,0.2960,-21.48,-273.62,934.20,61,-29,-11
1512177526,0.0011,0.0146,0.2967,7.32,-256.59,920.53,61,-29,-11
1512177526,-0.0023,0.0270,0.3003,-25.33,-248.11,924.50,61,-29,-11
1512177526,0.0013,0.0268,0.3035,-40.65,-222.41,929.81,61,-29,-11
1512177526,-0.0069,0.0265,0.3013,-13.37,-242.31,994.14,66,-21,-20
1512177526,-0.0063,0.0236,0.3071,-17.40,-251.83,903.56,66,-21,-20
1512177526,0.0027,0.0154,0.3121,12.39,-235.96,911.19,66,-21,-20
1512177526,0.0101,0.0157,0.3127,1.04,-228.21,920.72,66,-21,-20
1512177526,0.0075,0.0146,0.3156,38.70,-237.79,890.14,66,-21,-20
1512177526,0.0093,0.0332,0.3192,-6.90,-223.27,958.01,59,-24,-20
1512177526,-0.0020,0.0182,0.3200,-0.49,-234.86,948.43,59,-24,-20
1512177526,0.0077,0.0304,0.3225,8.24,-238.95,931.70,59,-24,-20
1512177526,-0.0037,0.0266,0.3237,-2.62,-225.89,885.38,59,-24,-20
1512177526,-0.0075,0.0262,0.3209,-27.95,-233.22,931.27,59,-24,-20
1512177526,-0.0073,0.0274,0.3218,-3.05,-274.60,951.66,63,-35,-20
1512177526,-0.0091,0.0162,0.3229,-9.70,-239.69,902.04,63,-35,-20
1512177526,-0.0109,0.0164,0.3265,25.15,-237.79,875.98,63,-35,-20
1512177526,-0.0024,0.0242,0.3293,26.43,-199.34,895.08,63,-35,-20
1512177526,0.0091,0.0320,0.3270,16.91,-244.08,907.35,40,-26,-22
1512177526,0.0105,0.0353,0.3306,-10.44,-231.63,931.88,40,-26,-22
1512177526,0.0144,0.0322,0.3281,-20.63,-235.35,955.69,40,-26,-22
1512177526,0.0091,0.0218,0.3294,-8.42,-214.23,907.10,40,-26,-22
1512177526,0.0083,0.0229,0.3294,-30.52,-209.78,914.55,40,-26,-22
1512177526,0.0161,0.0240,0.3276,-31.62,-236.63,975.77,36,-19,-15
1512177526,0.0149,0.0205,0.3274,9.16,-255.19,914.31,36,-19,-15
1512177526,0.0099,0.0157,0.3281,2.50,-246.95,909.12,36,-19,-15
1512177526,0.0071,0.0103,0.3252,8.18,-232.48,927.31,36,-19,-15
1512177526,0.0075,0.0146,0.3249,-16.30,-203.49,952.33,36,-19,-15
1512177526,0.0080,0.0127,0.3194,7.63,-253.85,990.36,36,-12,-18
1512177526,0.0192,0.0059,0.3177,-7.57,-231.63,962.04,36,-12,-18
1512177526,0.0025,0.0057,0.3185,-34.30,-244.87,927.12,36,-12,-18
1512177526,0.0047,0.0093,0.3164,23.32,-221.62,935.12,36,-12,-18
1512177526,0.0119,0.0190,0.3095,-0.06,-215.45,943.48,42,-10,-16
1512177526,0.0079,0.0121,0.3091,18.49,-221.44,811.10,42,-10,-16
1512177526,0.0029,0.0112,0.3017,-19.10,-214.66,878.11,42,-10,-16
1512177526,-0.0017,0.0204,0.2989,-9.09,-225.04,929.93,42,-10,-16
1512177526,-0.0013,0.0150,0.2961,-15.20,-195.92,966.43,42,-10,-16
1512177527,-0.0049,0.0220,0.2948,-27.22,-248.17,945.07,22,-8,-11
1512177527,0.0104,0.0353,0.2933,-68.91,-200.26,913.15,22,-8,-11
1512177527,-0.0103,0.0254,0.2933,-14.34,-254.15,887.15,22,-8,-11
1512177527,-0.0015,0.0269,0.2854,5.07,-224.79,947.08,22,-8,-11
1512177527,-0.0109,0.0149,0.2799,8.67,-207.58,854.55,22,-8,-11
1512177527,-0.0142,0.0140,0.2720,-60.85,-261.54,945.62,14,-3,-13
1512177527,-0.0128,0.0153,0.2639,-42.18,-228.33,941.35,14,-3,-13
1512177527,-0.0112,0.0105,0.2602,-51.70,-220.46,918.82,14,-3,-13
1512177527,0.0001,0.0101,0.2559,-98.82,-236.69,963.62,14,-3,-13
1512177527,0.0063,0.0112,0.2519,-87.77,-227.78,957.46,0,3,-27
1512177527,0.0088,-0.0019,0.2477,-11.41,-261.60,857.36,0,3,-27
1512177527,0.0220,-0.0173,0.2429,-71.17,-254.03,901.37,0,3,-27
1512177527,0.0419,-0.0217,0.2293,-111.27,-249.88,888.06,0,3,-27
1512177527,0.0429,-0.0459,0.2289,-118.04,-248.72,908.08,0,3,-27
1512177527,0.0435,-0.0458,0.2109,-65.19,-265.56,898.32,1,-1,-28
1512177527,0.0329,-0.0304,0.2129,-93.38,-256.35,965.82,1,-1,-28
1512177527,0.0277,-0.0057,0.2077,-66.41,-239.93,940.25,1,-1,-28
1512177527,0.0296,0.0282,0.1879,-8.91,-194.58,947.75,1,-1,-28
1512177527,0.0341,0.0289,0.1828,27.77,-231.63,1063.29,1,-1,-28
1512177527,0.0049,0.0430,0.1892,18.92,-223.33,962.04,-19,12,-15
1512177527,0.0028,0.0485,0.1880,-25.15,-232.54,936.52,-19,12,-15
1512177527,0.0047,0.0513,0.2092,-61.65,-233.22,977.72,-19,12,-15
1512177527,0.0077,0.0503,0.1784,-60.36,-193.85,940.19,-19,12,-15
1512177527,-0.0101,0.0582,0.1790,-85.63,-248.60,921.63,-12,8,-25
1512177527,-0.0060,0.0796,0.1666,-74.52,-217.65,918.52,-12,8,-25
1512177527,0.0081,0.0643,0.1550,-65.43,-196.53,927.12,-12,8,-25
1512177527,0.0036,0.0534,0.1449,-106.02,-213.81,911.93,-12,8,-25
1512177527,0.0012,0.0439,0.1305,-84.53,-186.10,899.05,-12,8,-25
1512177527,-0.0067,0.0329,0.1332,-130.92,-250.06,905.27,-15,12,1
1512177527,0.0013,0.0249,0.1296,-132.69,-227.23,946.29,-15,12,1
1512177527,-0.0065,0.0198,0.1234,-177.61,-241.21,912.84,-15,12,1
1512177527,0.0029,0.0225,0.1165,-158.75,-208.98,926.21,-15,12,1
1512177527,-0.0173,0.0145,0.1109,-139.53,-223.69,927.06,-15,12,1
1512177527,-0.0204,0.0011,0.1037,-117.86,-270.32,911.68,-15,1,-8
1512177527,-0.0269,-0.0153,0.1020,-141.05,-209.47,842.71,-15,1,-8
1512177527,-0.0128,-0.0232,0.0888,-115.91,-250.06,810.67,-15,1,-8
1512177527,-0.0278,-0.0328,0.0879,-108.64,-251.28,771.55,-15,1,-8
1512177528,-0.0254,-0.0268,0.0965,-61.83,-215.58,831.36,-26,12,-22
1512177528,-0.0358,-0.0320,0.0893,-60.42,-276.37,927.61,-26,12,-22
1512177528,-0.0160,-0.0277,0.0896,-53.77,-181.09,925.35,-26,12,-22
1512177528,0.0130,0.0011,0.0828,-1.28,-191.04,926.88,-26,12,-22
1512177528,0.0037,-0.0016,0.0675,-45.72,-263.55,1027.77,-26,12,-22
1512177528,0.0276,0.0075,0.0627,-43.15,-216.25,1018.74,-21,21,-13
1512177528,0.0399,0.0188,0.0615,-62.87,-230.29,930.91,-21,21,-13
1512177528,0.0486,0.0087,0.0577,-69.52,-243.90,957.58,-21,21,-13
1512177528,0.0518,0.0089,0.0577,-128.72,-195.74,940.98,-21,21,-13
1512177528,0.0410,0.0194,0.0457,-127.69,-205.63,921.02,-21,10,-10
1512177528,0.0498,0.0328,0.0296,-140.56,-248.41,860.41,-21,10,-10
1512177528,0.0525,0.0329,0.0342,-130.55,-196.17,877.81,-21,10,-10
1512177528,0.0569,0.0300,0.0197,-119.08,-189.09,925.48,-21,10,-10
1512177528,0.0426,0.0190,0.0236,-99.55,-219.60,894.78,-21,10,-10
1512177528,0.0421,0.0218,0.0161,-199.16,-207.95,954.16,-42,24,-6
1512177528,0.0369,0.0104,0.0148,-161.68,-184.94,976.14,-42,24,-6
1512177528,0.0458,0.0001,0.0103,-137.08,-205.26,895.63,-42,24,-6
1512177528,0.0435,0.0084,0.0099,-135.56,-202.33,902.28,-42,24,-6
1512177528,0.0322,0.0200,0.0113,-115.54,-179.14,861.39,-42,24,-6
1512177528,0.0252,0.0113,0.0112,-140.08,-199.10,874.88,-38,17,-6
1512177528,0.0084,-0.0072,0.0065,-143.43,-166.02,909.61,-38,17,-6
1512177528,0.0048,-0.0036,0.0141,-117.61,-176.94,898.50,-38,17,-6
1512177528,0.0001,-0.0041,0.0093,-149.90,-191.10,828.06,-38,17,-6
1512177528,-0.0023,0.0020,0.0140,-180.36,-180.42,888.49,-31,31,-10
1512177528,-0.0025,0.0138,0.0045,-158.94,-175.11,940.80,-31,31,-10
1512177528,-0.0049,0.0232,-0.0024,-93.69,-166.14,936.95,-31,31,-10
1512177528,-0.0001,0.0296,-0.0047,-142.82,-169.43,948.18,-31,31,-10
1512177528,0.0005,0.0226,-0.0093,-195.92,-146.61,901.67,-31,31,-10
1512177528,0.0049,0.0137,-0.0112,-162.05,-139.28,931.82,-28,17,0
1512177528,-0.0132,-0.0037,-0.0125,-172.00,-198.49,933.59,-28,17,0
1512177528,-0.0111,-0.0068,-0.0157,-140.62,-178.65,915.16,-28,17,0
1512177528,-0.0084,0.0075,-0.0124,-156.98,-159.85,872.62,-28,17,0
1512177528,-0.0076,0.0069,-0.0157,-151.37,-149.60,929.57,-28,17,0
1512177528,-0.0053,0.0148,-0.0188,-192.63,-129.52,914.73,-49,24,10
1512177528,0.0053,-0.0004,-0.0184,-159.97,-136.17,945.25,-49,24,10
1512177528,0.0035,-0.0230,-0.0184,-149.35,-142.46,851.50,-49,24,10
1512177528,-0.0128,-0.0198,-0.0174,-119.38,-189.82,923.16,-49,24,10
1512177528,-0.0100,-0.0095,-0.0184,-158.02,-135.62,942.75,-45,28,-16
1512177529,0.0080,-0.0004,-0.0202,-192.14,-207.34,810.42,-45,28,-16
1512177529,-0.0087,-0.0236,-0.0240,-133.85,-193.48,994.81,-45,28,-16
1512177529,0.0284,0.0023,-0.0260,-112.24,-81.91,905.46,-45,28,-16
1512177529,0.0020,-0.0031,-0.0158,-167.05,-189.88,932.07,-45,28,-16
1512177529,0.0036,-0.0092,-0.0258,-184.94,-136.66,903.02,-61,29,-15
1512177529,0.0194,-0.0103,-0.0136,-146.97,-202.21,945.50,-61,29,-15
1512177529,0.0160,-0.0073,-0.0238,-157.90,-168.15,924.13,-61,29,-15
1512177529,0.0224,0.0144,-0.0197,-132.26,-111.57,907.78,-61,29,-15
1512177529,0.0264,0.0037,-0.0225,-164.00,-127.01,856.26,-61,29,-15
1512177529,0.0181,-0.0057,-0.0260,-128.72,-133.36,925.84,-50,29,8
1512177529,0.0302,-0.0008,-0.0228,-122.38,-118.41,929.93,-50,29,8
1512177529,0.0225,-0.0168,-0.0310,-129.88,-124.69,939.88,-50,29,8
1512177529,0.0188,-0.0083,-0.0149,-135.62,-93.63,926.39,-50,29,8
1512177529,0.0284,-0.0028,-0.0161,-155.52,-67.08,877.93,-33,26,5
1512177529,0.0337,-0.0096,-0.0212,-136.66,4.82,869.93,-33,26,5
1512177529,0.0174,-0.0280,-0.0370,-82.89,-57.68,893.74,-33,26,5
1512177529,0.0055,-0.0345,-0.0389,-81.97,-108.09,918.03,-33,26,5
1512177529,0.0217,-0.0298,-0.0324,-169.86,-149.96,842.04,-33,26,5
1512177529,0.0080,-0.0474,-0.0352,-105.47,-128.78,926.64,-33,19,1
1512177529,0.0104,-0.0328,-0.0272,-107.60,-96.31,975.04,-33,19,1
1512177529,0.0173,-0.0176,-0.0250,-128.36,-131.59,837.16,-33,19,1
1512177529,-0.0027,-0.0225,-0.0313,-143.37,-133.30,1029.97,-33,19,1
1512177529,-0.0019,-0.0208,-0.0415,-128.23,-103.76,932.80,-54,8,-1
1512177529,-0.0067,0.0071,-0.0306,-76.78,-61.28,1000.61,-54,8,-1
1512177529,0.0076,-0.0059,-0.0318,-121.95,-103.27,899.54,-54,8,-1
1512177529,0.0029,-0.0017,-0.0336,-91.92,-15.08,916.75,-54,8,-1
1512177529,-0.0003,-0.0043,-0.0265,-111.21,-85.51,826.05,-54,8,-1
1512177529,0.0007,-0.0148,-0.0309,-109.80,-107.91,873.54,-54,22,5
1512177529,-0.0029,-0.0127,-0.0314,-105.59,-46.81,892.76,-54,22,5
1512177529,0.0052,-0.0288,-0.0258,-210.08,-45.90,884.64,-54,22,5
1512177529,0.0024,-0.0149,-0.0337,-122.86,-26.37,918.82,-54,22,5
1512177529,-0.0105,-0.0130,-0.0258,-120.91,-50.35,896.42,-54,22,5
1512177529,-0.0172,-0.0205,-0.0361,-187.19,-75.20,959.66,-54,15,-5
1512177529,-0.0284,-0.0138,-0.0342,-93.69,-12.45,974.43,-54,15,-5
1512177529,-0.0256,0.0059,-0.0340,-104.43,-70.37,903.02,-54,15,-5
1512177529,-0.0352,-0.0161,-0.0297,-157.17,-73.30,954.16,-54,15,-5
1512177529,-0.0314,-0.0277,-0.0286,-110.78,-73.30,944.27,-52,21,6
1512177529,-0.0236,-0.0276,-0.0320,-189.94,-37.17,966.43,-52,21,6
1512177530,-0.0069,-0.0132,-0.0328,-145.14,-52.80,900.63,-52,21,6
1512177530,-0.0205,-0.0137,-0.0222,-88.56,-99.55,857.54,-52,21,6
1512177530,-0.0226,-0.0052,-0.0398,-93.20,-56.27,992.74,-52,21,6
1512177530,-0.0356,-0.0105,-0.0337,-109.07,-110.90,911.99,-40,19,1
1512177530,-0.0001,-0.0045,-0.0360,-78.06,20.32,956.97,-40,19,1
1512177530,-0.0298,-0.0141,-0.0242,-84.84,-104.61,926.09,-40,19,1
1512177530,-0.0108,-0.0063,-0.0277,-74.04,12.63,1011.17,-40,19,1
1512177530,-0.0097,-0.0095,-0.0152,-96.68,-53.53,876.89,-40,19,1
1512177530,-0.0128,-0.0157,-0.0253,-156.13,-18.07,885.56,-17,21,-3
1512177530,-0.0415,-0.0240,-0.0228,-122.25,-28.32,999.39,-17,21,-3
1512177530,-0.0226,-0.0084,-0.0173,-107.18,-36.38,891.97,-17,21,-3
1512177530,-0.0216,-0.0141,-0.0233,-51.88,-12.02,966.49,-17,21,-3
1512177530,-0.0197,-0.0055,-0.0099,-52.98,-10.38,828.12,-35,24,-6
1512177530,-0.0127,0.0075,-0.0157,-108.52,-35.52,893.92,-35,24,-6
1512177530,-0.0134,-0.0072,-0.0156,-72.27,-60.06,924.50,-35,24,-6
1512177530,-0.0051,-0.0162,-0.0069,-78.80,-60.24,923.65,-35,24,-6
1512177530,-0.0047,-0.0269,-0.0039,-87.10,-44.56,906.37,-35,24,-6
1512177530,-0.0063,-0.0225,-0.0037,-56.76,-83.86,872.07,-14,21,-13
1512177530,0.0125,-0.0233,0.0049,8.06,-2.81,886.72,-14,21,-13
1512177530,-0.0013,-0.0220,0.0125,-48.16,-13.43,951.60,-14,21,-13
1512177530,-0.0036,-0.0153,0.0141,-41.38,-16.85,963.81,-14,21,-13
1512177530,-0.0023,-0.0164,0.0104,-58.17,-52.49,909.85,-24,3,-23
1512177530,-0.0064,-0.0161,-0.0088,-44.49,32.90,964.66,-24,3,-23
1512177530,0.0021,-0.0169,0.0226,-76.54,34.73,927.73,-24,3,-23
1512177530,-0.0217,-0.0153,0.0233,-44.49,-41.38,1007.69,-24,3,-23
1512177530,-0.0226,-0.0115,0.0240,-45.78,-67.50,930.60,-24,3,-23
1512177530,-0.0177,-0.0172,0.0364,-19.41,-49.26,895.45,-17,0,-13
1512177530,-0.0013,-0.0017,0.0406,-52.86,-38.51,875.06,-17,0,-13
1512177530,-0.0031,-0.0027,0.0503,-2.81,-49.62,841.25,-17,0,-13
1512177530,-0.0160,-0.0202,0.0530,-10.50,-26.00,954.53,-17,0,-13
1512177530,-0.0119,-0.0281,0.0619,-18.49,-5.74,934.39,-17,0,-13
1512177530,-0.0190,-0.0224,0.0675,-79.16,-53.59,935.67,-17,-3,-6
1512177530,0.0011,0.0000,0.0712,-51.70,-42.11,867.00,-17,-3,-6
1512177530,-0.0083,-0.0186,0.0759,41.87,-44.19,831.85,-17,-3,-6
1512177530,-0.0099,-0.0325,0.0842,31.19,-48.22,809.45,-17,-3,-6
1512177530,-0.0144,-0.0220,0.0802,62.99,-39.98,856.32,-21,-7,0
1512177530,-0.0112,-0.0174,0.0903,27.34,-36.44,955.99,-21,-7,0
1512177530,-0.0089,-0.0288,0.0983,31.74,-18.55,920.78,-21,-7,0
1512177531,0.0017,-0.0189,0.1039,25.02,-28.14,940.31,-21,-7,0
1512177531,0.0281,0.0092,0.1145,-78.37,-22.28,961.00,-21,-7,0
1512177531,0.0168,-0.0073,0.1238,-9.28,-8.42,1005.00,-24,10,-20
1512177531,-0.0357,-0.0498,0.1314,40.89,-67.26,940.55,-24,10,-20
1512177531,-0.0001,-0.0068,0.1353,37.72,-83.92,906.07,-24,10,-20
1512177531,-0.0089,-0.0317,0.1398,48.71,-54.87,974.98,-24,10,-20
1512177531,0.0029,-0.0229,0.1362,104.61,-68.54,904.05,-24,10,-20
1512177531,-0.0073,-0.0157,0.1483,23.32,-53.59,981.99,-35,10,-27
1512177531,0.0399,0.0007,0.1595,32.78,14.47,871.95,-35,10,-27
1512177531,-0.0142,-0.0091,0.1647,34.67,-13.79,975.46,-35,10,-27
1512177531,-0.0149,-0.0045,0.1674,-2.44,-63.05,905.03,-35,10,-27
1512177531,-0.0136,0.0036,0.1810,17.82,-62.68,909.55,-52,-3,-27
1512177531,-0.0057,0.0194,0.1716,29.60,-7.14,937.38,-52,-3,-27
1512177531,-0.0017,0.0116,0.1856,57.74,-2.62,885.19,-52,-3,-27
1512177531,-0.0212,-0.0111,0.1900,13.55,-70.98,903.99,-52,-3,-27
1512177531,-0.0132,-0.0081,0.1921,99.79,-66.04,858.03,-52,-3,-27
1512177531,-0.0278,-0.0108,0.1960,51.27,-92.35,876.04,-61,1,-18
1512177531,-0.0201,-0.0174,0.2083,97.96,-95.09,880.37,-61,1,-18
1512177531,-0.0177,-0.0284,0.2021,80.08,-40.41,850.52,-61,1,-18
1512177531,-0.0197,-0.0286,0.2116,112.61,-67.87,866.03,-61,1,-18
1512177531,-0.0091,-0.0064,0.2136,64.76,-67.32,874.57,-61,1,-18
1512177531,-0.0019,0.0097,0.2200,100.34,-22.52,963.01,-57,1,-11
1512177531,0.0103,-0.0052,0.2252,73.49,-115.30,975.28,-57,1,-11
1512177531,0.0031,-0.0005,0.2286,71.90,-43.88,997.86,-57,1,-11
1512177531,-0.0172,-0.0360,0.2329,111.94,-43.40,849.18,-57,1,-11
1512177531,0.0096,-0.0142,0.2378,16.11,-32.59,947.27,-54,-8,-22
1512177531,0.0176,0.0056,0.2382,35.95,7.51,925.11,-54,-8,-22
1512177531,0.0156,0.0127,0.2406,105.77,-14.59,980.04,-54,-8,-22
1512177531,0.0220,0.0272,0.2398,116.39,-59.14,976.01,-54,-8,-22
1512177531,-0.0059,0.0230,0.2450,87.65,-10.44,882.32,-54,-8,-22
1512177531,0.0092,0.0405,0.2358,128.85,-32.29,1067.08,-72,-8,-18
1512177531,-0.0157,0.0664,0.2426,145.14,-64.94,907.53,-72,-8,-18
1512177531,-0.0099,0.0776,0.2404,98.69,-96.25,958.98,-72,-8,-18
1512177531,-0.0181,0.0574,0.2458,112.18,-92.35,904.72,-72,-8,-18
1512177531,-0.0160,0.0462,0.2490,97.84,-50.42,919.56,-61,5,-15
1512177531,-0.0230,0.0340,0.2542,87.52,-47.97,856.02,-61,5,-15
1512177531,-0.0091,0.0198,0.2562,82.58,-70.98,835.33,-61,5,-15
1512177532,-0.0061,-0.0138,0.2637,34.73,-33.26,869.93,-61,5,-15
1512177532,-0.0055,-0.0399,0.2775,68.42,-90.82,884.28,-61,5,-15
1512177532,0.0043,-0.0340,0.2667,34.18,-48.77,859.62,-73,-3,-10
1512177532,0.0009,-0.0250,0.2590,60.85,-76.60,926.94,-73,-3,-10
1512177532,-0.0080,0.0045,0.2518,110.35,-67.99,915.22,-73,-3,-10
1512177532,0.0043,0.0021,0.2467,54.38,-52.92,993.96,-73,-3,-10
1512177532,-0.0149,-0.0128,0.2547,106.57,-48.52,944.09,-73,-3,-10
1512177532,-0.0314,-0.0382,0.2660,76.78,-36.68,856.08,-84,21,-20
1512177532,-0.0053,-0.0125,0.2666,104.92,-66.96,884.40,-84,21,-20
1512177532,-0.0120,-0.0004,0.2676,98.45,-35.95,943.79,-84,21,-20
1512177532,0.0089,0.0129,0.2672,159.48,-88.68,983.15,-84,21,-20
1512177532,0.0153,0.0088,0.2759,101.93,-80.44,912.11,-93,-1,-11
1512177532,0.0029,-0.0169,0.2776,159.97,-33.14,874.15,-93,-1,-11
1512177532,0.0125,-0.0140,0.2731,177.37,-46.14,962.22,-93,-1,-11
1512177532,0.0225,0.0182,0.2739,121.28,-70.56,1086.61,-93,-1,-11
1512177532,0.0213,0.0278,0.2622,95.52,-53.16,997.80,-93,-1,-11
1512177532,0.0184,0.0595,0.2605,146.36,-62.68,979.55,-101,-3,-16
1512177532,0.0133,0.0746,0.2627,81.60,-53.77,1003.72,-101,-3,-16
1512177532,-0.0012,0.0718,0.2614,112.43,-21.00,872.01,-101,-3,-16
1512177532,-0.0281,0.0523,0.2654,43.15,-41.26,867.74,-101,-3,-16
1512177532,-0.0288,0.0431,0.2750,66.16,-56.15,899.11,-101,14,-20
1512177532,-0.0407,0.0037,0.2704,85.14,-78.06,856.75,-101,14,-20
1512177532,-0.0130,0.0092,0.2748,49.26,-91.92,925.23,-101,14,-20
1512177532,-0.0210,0.0293,0.2786,52.25,-68.36,833.62,-101,14,-20
1512177532,-0.0145,0.0201,0.2755,72.14,-68.91,906.62,-101,14,-20
1512177532,-0.0012,0.0405,0.2700,59.33,-117.55,899.35,-108,-7,-3
1512177532,-0.0129,0.0383,0.2637,102.78,-100.77,854.00,-108,-7,-3
1512177532,-0.0156,0.0293,0.2622,82.82,-150.57,848.39,-108,-7,-3
1512177532,-0.0095,0.0501,0.2602,47.85,-131.41,937.62,-108,-7,-3
1512177532,-0.0130,0.0281,0.2581,106.14,-155.15,887.57,-108,-7,-3
1512177532,-0.0130,0.0115,0.2563,67.69,-115.78,952.33,-124,1,-28
1512177532,-0.0200,-0.0097,0.2599,70.74,-129.94,995.36,-124,1,-28
1512177532,-0.0221,-0.0021,0.2712,60.00,-148.86,956.36,-124,1,-28
1512177532,-0.0011,0.0402,0.2712,55.18,-129.64,925.72,-124,1,-28
1512177532,-0.0080,0.0237,0.2696,81.48,-146.06,802.12,-119,10,-13
1512177532,0.0057,0.0119,0.2674,87.28,-160.77,830.69,-119,10,-13
1512177532,-0.0028,-0.0032,0.2686,52.61,-131.96,962.04,-119,10,-13
1512177532,0.0055,-0.0109,0.2687,21.30,-190.86,1005.74,-119,10,-13
1512177533,0.0154,-0.0177,0.2635,88.44,-161.19,888.12,-119,10,-13
1512177533,0.0252,-0.0051,0.2634,97.53,-177.98,856.57,-122,-7,-20
1512177533,0.0304,-0.0068,0.2679,40.77,-161.01,838.93,-122,-7,-20
1512177533,0.0378,-0.0037,0.2731,49.50,-155.94,815.73,-122,-7,-20
1512177533,0.0459,-0.0012,0.2676,39.55,-131.10,952.45,-122,-7,-20
1512177533,0.0366,-0.0201,0.2674,45.10,-139.04,932.50,-122,-7,-20
1512177533,0.0368,0.0003,0.2609,47.79,-139.16,921.39,-138,-1,-25
1512177533,0.0329,0.0213,0.2595,105.16,-159.79,924.62,-138,-1,-25
1512177533,0.0192,0.0204,0.2579,107.06,-129.21,814.45,-138,-1,-25
1512177533,0.0189,0.0352,0.2651,43.70,-113.40,954.77,-138,-1,-25
1512177533,0.0073,0.0405,0.2597,9.40,-131.04,962.28,-140,-3,-27
1512177533,-0.0017,0.0201,0.2563,58.35,-98.82,981.08,-140,-3,-27
1512177533,-0.0140,0.0012,0.2594,19.47,-130.68,859.01,-140,-3,-27
1512177533,0.0056,-0.0032,0.2577,48.46,-150.76,947.14,-140,-3,-27
1512177533,-0.0072,-0.0081,0.2606,-0.79,-153.14,965.27,-140,-3,-27
1512177533,0.0040,0.0029,0.2639,12.51,-147.77,943.48,-151,-21,-16
1512177533,-0.0162,0.0076,0.2594,73.49,-125.18,981.87,-151,-21,-16
1512177533,-0.0366,-0.0020,0.2535,60.61,-140.81,924.19,-151,-21,-16
1512177533,-0.0394,-0.0065,0.2503,27.89,-185.36,938.29,-151,-21,-16
1512177533,-0.0380,-0.0208,0.2490,55.79,-123.96,874.33,-151,-21,-16
1512177533,-0.0518,-0.0481,0.2529,91.61,-164.55,831.36,-163,1,-28
1512177533,-0.0333,-0.0350,0.2570,76.42,-146.91,881.10,-163,1,-28
1512177533,-0.0357,-0.0268,0.2623,69.46,-197.33,899.60,-163,1,-28
1512177533,-0.0302,0.0117,0.2614,93.44,-150.63,913.94,-163,1,-28
1512177533,-0.0466,0.0173,0.2574,113.46,-175.48,921.75,-161,-17,-33
1512177533,-0.0493,0.0044,0.2553,80.69,-141.72,991.15,-161,-17,-33
1512177533,-0.0334,0.0000,0.2579,112.18,-152.89,869.14,-161,-17,-33
1512177533,-0.0280,0.0091,0.2585,40.47,-134.95,871.34,-161,-17,-33
1512177533,-0.0226,0.0329,0.2634,84.23,-178.04,980.83,-161,-17,-33
1512177533,-0.0200,0.0089,0.2639,53.47,-122.62,905.09,-159,-29,-11
1512177533,-0.0088,0.0068,0.2674,28.81,-98.33,1004.64,-159,-29,-11
1512177533,-0.0029,0.0061,0.2688,82.52,-106.87,938.23,-159,-29,-11
1512177533,-0.0048,0.0052,0.2710,121.40,-111.45,923.03,-159,-29,-11
1512177533,0.0015,0.0057,0.2653,107.48,-140.32,982.67,-177,-33,-25
1512177533,-0.0064,0.0087,0.2586,74.65,-148.13,974.18,-177,-33,-25
1512177533,-0.0121,-0.0099,0.2579,83.92,-189.76,985.84,-177,-33,-25
1512177533,-0.0056,-0.0113,0.2554,85.39,-142.88,945.37,-177,-33,-25
1512177533,-0.0065,-0.0169,0.2700,42.91,-95.76,886.05,-177,-33,-25
1512177534,0.0004,-0.0051,0.2676,50.11,-86.98,927.43,-168,-24,-23
1512177534,0.0017,0.0029,0.2653,26.06,-139.34,919.74,-168,-24,-23
1512177534,0.0093,0.0133,0.2562,68.42,-130.49,945.13,-168,-24,-23
1512177534,0.0036,0.0087,0.2494,106.81,-124.57,979.55,-168,-24,-23
1512177534,-0.0028,0.0068,0.2493,50.72,-108.89,921.39,-168,-24,-23
1512177534,-0.0103,0.0115,0.2425,68.73,-112.43,955.14,-175,-31,-44
1512177534,-0.0032,0.0220,0.2405,55.85,-86.98,822.81,-175,-31,-44
1512177534,-0.0040,0.0284,0.2421,60.79,-98.27,882.08,-175,-31,-44
1512177534,-0.0049,0.0174,0.2384,41.75,-100.16,902.65,-175,-31,-44
1512177534,-0.0093,0.0099,0.2406,81.91,-41.44,917.42,-195,-40,-32
1512177534,-0.0117,0.0266,0.2411,13.12,-94.18,850.40,-195,-40,-32
1512177534,-0.0100,0.0254,0.2353,15.50,-55.60,984.99,-195,-40,-32
1512177534,-0.0201,0.0056,0.2329,-4.76,-58.96,908.51,-195,-40,-32
1512177534,-0.0200,-0.0079,0.2252,9.28,-61.22,919.56,-195,-40,-32
1512177534,-0.0186,-0.0040,0.2276,31.98,-33.39,875.18,-189,-49,-44
1512177534,-0.0157,0.0075,0.2229,47.85,-81.73,891.05,-189,-49,-44
1512177534,-0.0109,0.0146,0.2233,45.04,-12.63,926.45,-189,-49,-44
1512177534,-0.0190,0.0088,0.2204,85.21,-48.83,906.80,-189,-49,-44
1512177534,-0.0290,0.0060,0.2185,84.23,-68.24,833.25,-202,-54,-42
1512177534,-0.0192,0.0145,0.2152,11.29,-67.14,891.17,-202,-54,-42
1512177534,-0.0264,-0.0073,0.2157,83.50,-77.39,823.97,-202,-54,-42
1512177534,-0.0119,-0.0093,0.2145,60.06,-50.66,917.42,-202,-54,-42
1512177534,-0.0027,0.0053,0.2156,37.90,-63.78,914.98,-202,-54,-42
1512177534,0.0019,0.0097,0.2096,62.50,-78.55,873.78,-177,-58,-32
1512177534,0.0084,0.0073,0.2076,29.60,-69.70,938.35,-177,-58,-32
1512177534,0.0104,0.0097,0.2068,44.37,-48.89,929.87,-177,-58,-32
1512177534,0.0260,0.0197,0.2056,27.95,-24.48,986.94,-177,-58,-32
1512177534,0.0164,0.0023,0.2031,67.50,-27.59,854.74,-177,-58,-32
1512177534,0.0160,0.0189,0.2021,43.76,-36.01,938.66,-205,-51,-55
1512177534,0.0177,0.0205,0.1988,35.28,-28.75,971.68,-205,-51,-55
1512177534,0.0166,0.0176,0.1952,56.64,-63.29,857.91,-205,-51,-55
1512177534,0.0052,-0.0005,0.1945,58.35,-29.72,906.62,-205,-51,-55
1512177534,0.0076,0.0104,0.1976,23.44,-6.53,935.61,-202,-47,-35
1512177534,0.0169,0.0158,0.1867,-34.48,-37.29,937.74,-202,-47,-35
1512177534,0.0222,0.0164,0.1858,43.46,-38.94,944.40,-202,-47,-35
1512177534,0.0059,0.0053,0.1855,51.76,-43.52,985.35,-202,-47,-35
1512177534,0.0152,0.0037,0.1810,20.26,-11.41,934.94,-202,-47,-35
1512177534,0.0164,0.0037,0.1780,8.18,-36.93,937.87,-200,-70,-44
1512177535,0.0124,-0.0027,0.1732,2.75,-36.01,891.97,-200,-70,-44
1512177535,0.0105,0.0140,0.1683,10.74,6.84,871.15,-200,-70,-44
1512177535,0.0129,0.0197,0.1663,14.77,-60.55,908.14,-200,-70,-44
1512177535,0.0091,-0.0025,0.1614,-21.06,-1.04,919.56,-200,-70,-44
1512177535,-0.0033,-0.0174,0.1562,-28.87,-45.10,905.94,-212,-65,-42
1512177535,-0.0121,-0.0302,0.1561,-6.10,-25.70,889.10,-212,-65,-42
1512177535,-0.0128,-0.0174,0.1499,-3.72,-26.12,877.32,-212,-65,-42
1512177535,-0.0137,-0.0120,0.1453,-16.60,-28.50,870.36,-212,-65,-42
1512177535,-0.0166,-0.0213,0.1385,40.95,-25.82,914.49,-209,-54,-38
1512177535,-0.0189,-0.0265,0.1378,18.92,-29.42,913.94,-209,-54,-38
1512177535,-0.0218,-0.0253,0.1337,-63.29,-7.39,835.51,-209,-54,-38
1512177535,0.0040,0.0264,0.1236,-82.95,-56.82,955.02,-209,-54,-38
1512177535,0.0005,0.0429,0.1184,-59.69,-6.96,900.57,-209,-54,-38
1512177535,0.0009,0.0483,0.1131,0.24,-47.12,915.65,-219,-68,-55
1512177535,-0.0025,0.0182,0.1108,34.06,-71.47,866.88,-219,-68,-55
1512177535,-0.0040,0.0013,0.1079,-11.90,-35.03,811.58,-219,-68,-55
1512177535,0.0003,-0.0036,0.1075,-81.42,-15.44,1032.47,-219,-68,-55
1512177535,0.0005,-0.0009,0.1113,-68.42,-8.18,990.11,-219,-68,-55
1512177535,-0.0063,0.0067,0.1184,-62.99,-37.41,1000.37,-205,-72,-42
1512177535,0.0020,-0.0188,0.1156,-51.21,-29.42,973.75,-205,-72,-42
1512177535,-0.0133,-0.0132,0.1241,-9.64,-57.86,845.83,-205,-72,-42
1512177535,-0.0113,-0.0296,0.0943,-20.75,-25.45,933.90,-205,-72,-42
1512177535,-0.0091,-0.0169,0.0800,-40.59,-34.48,910.95,-210,-88,-27
1512177535,-0.0105,-0.0190,0.0695,-34.12,-44.01,954.59,-210,-88,-27
1512177535,0.0028,-0.0150,0.0565,-70.80,-19.96,879.82,-210,-88,-27
1512177535,-0.0020,-0.0150,0.0652,-56.15,-18.74,881.23,-210,-88,-27
1512177535,-0.0044,-0.0059,0.0675,-93.14,-44.92,880.68,-210,-88,-27
1512177535,-0.0017,0.0113,0.0683,-64.70,-45.35,988.77,-230,-79,-38
1512177535,-0.0065,0.0027,0.0719,-68.79,-56.76,926.45,-230,-79,-38
1512177535,-0.0007,-0.0120,0.0723,-34.36,-45.23,977.54,-230,-79,-38
1512177535,0.0101,-0.0087,0.0735,-4.52,-50.29,928.77,-230,-79,-38
1512177535,0.0035,-0.0023,0.0718,8.73,-16.72,867.43,-216,-86,-38
1512177535,-0.0083,0.0268,0.0658,16.24,-73.49,835.82,-216,-86,-38
1512177535,-0.0108,0.0489,0.0565,31.74,-36.99,921.08,-216,-86,-38
1512177535,-0.0273,0.0079,0.0531,19.04,-53.59,833.92,-216,-86,-38
1512177535,-0.0257,-0.0278,0.0545,-76.84,8.18,899.41,-216,-86,-38
1512177535,-0.0100,-0.0117,0.0594,-83.44,-14.22,954.47,-217,-77,-40
1512177536,0.0053,-0.0029,0.0668,-79.65,-53.41,933.96,-217,-77,-40
1512177536,0.0077,-0.0266,0.0804,-32.90,-39.12,928.41,-217,-77,-40
1512177536,0.0129,-0.0085,0.0746,-18.98,-65.31,912.29,-217,-77,-40
1512177536,0.0184,-0.0095,0.0585,-41.44,-26.67,923.03,-217,-77,-40
1512177536,0.0125,-0.0150,0.0494,-58.59,-33.81,938.90,-216,-82,-42
1512177536,0.0013,-0.0301,0.0502,-58.04,-25.09,873.41,-216,-82,-42
1512177536,-0.0079,-0.0055,0.0542,-25.15,-40.65,936.40,-216,-82,-42
1512177536,0.0107,0.0061,0.0545,-49.07,-43.27,942.93,-216,-82,-42
1512177536,0.0012,-0.0193,0.0643,15.08,-22.89,932.37,-230,-82,-38
1512177536,0.0076,-0.0028,0.0707,14.34,-67.08,870.06,-230,-82,-38
1512177536,0.0156,0.0218,0.0766,11.35,-7.51,924.74,-230,-82,-38
1512177536,0.0156,0.0510,0.0736,-25.88,-21.97,876.71,-230,-82,-38
1512177536,0.0157,0.0443,0.0708,-22.95,-50.60,912.60,-230,-82,-38
1512177536,0.0222,0.0288,0.0672,-28.63,-44.86,930.91,-228,-81,-30
1512177536,0.0154,0.0076,0.0724,-60.55,-74.58,989.69,-228,-81,-30
1512177536,0.0140,0.0341,0.0778,-102.54,-81.05,918.76,-228,-81,-30
1512177536,0.0138,0.0407,0.0747,-31.62,-39.37,950.20,-228,-81,-30
1512177536,0.0130,0.0561,0.0780,6.10,-72.75,913.70,-228,-81,-30
1512177536,0.0103,0.0298,0.0772,5.86,-26.67,862.12,-237,-61,-22
1512177536,0.0036,0.0158,0.0791,-7.75,-68.36,867.25,-237,-61,-22
1512177536,0.0052,0.0107,0.0767,21.12,-60.42,895.69,-237,-61,-22
1512177536,0.0037,0.0391,0.0751,87.28,-52.12,882.81,-237,-61,-22
1512177536,-0.0103,0.0252,0.0788,58.11,-62.99,945.50,-228,-81,-27
1512177536,-0.0052,0.0049,0.0880,-22.89,-37.84,970.89,-228,-81,-27
1512177536,-0.0161,0.0003,0.0897,0.37,-23.13,972.84,-228,-81,-27
1512177536,-0.0262,-0.0089,0.1000,-13.67,-54.14,928.16,-228,-81,-27
1512177536,-0.0069,-0.0027,0.1040,-4.03,-60.67,874.45,-228,-81,-27
1512177536,-0.0091,-0.0288,0.1083,10.31,-36.44,877.81,-226,-79,-38
1512177536,-0.0060,-0.0245,0.1133,49.80,-66.59,839.60,-226,-79,-38
1512177536,-0.0011,0.0039,0.1184,41.75,-60.55,918.88,-226,-79,-38
1512177536,-0.0021,0.0326,0.1230,38.57,-78.55,884.77,-226,-79,-38
1512177536,0.0209,0.0103,0.1360,56.15,-81.12,912.29,-224,-91,-13
1512177536,0.0052,0.0069,0.1330,49.93,-55.36,808.41,-224,-91,-13
1512177536,-0.0224,0.0138,0.1402,20.69,-65.43,936.52,-224,-91,-13
1512177536,-0.0060,0.0277,0.1497,28.75,-54.87,895.08,-224,-91,-13
1512177536,-0.0059,0.0395,0.1573,14.65,-50.23,964.29,-224,-91,-13
1512177536,-0.0043,0.0356,0.1666,18.31,-68.79,888.67,-242,-81,-27
1512177536,0.0020,0.0182,0.1692,35.03,-62.99,902.16,-242,-81,-27
1512177537,0.0067,0.0137,0.1787,31.86,-62.50,894.65,-242,-81,-27
1512177537,0.0222,0.0186,0.1806,71.96,-60.91,859.44,-242,-81,-27
1512177537,0.0153,0.0091,0.1846,97.84,-98.88,842.59,-247,-93,-25
1512177537,0.0282,0.0493,0.1806,113.83,-42.97,847.35,-247,-93,-25
1512177537,0.0389,0.0594,0.1891,75.07,-34.06,880.25,-247,-93,-25
1512177537,0.0362,0.0387,0.1860,47.79,-47.55,905.58,-247,-93,-25
1512177537,0.0280,0.0342,0.1895,37.84,-73.30,934.63,-247,-93,-25
1512177537,0.0248,0.0141,0.2020,50.48,-85.21,951.42,-247,-111,-32
1512177537,0.0248,-0.0097,0.2075,35.89,-63.60,900.02,-247,-111,-32
1512177537,0.0290,-0.0154,0.2147,45.17,-53.41,868.90,-247,-111,-32
1512177537,0.0192,-0.0258,0.2296,80.08,-53.59,869.20,-247,-111,-32
1512177537,0.0121,-0.0325,0.2373,95.64,-53.53,901.86,-247,-111,-32
1512177537,0.0145,-0.0099,0.2386,88.50,-57.92,929.81,-258,-96,-38
1512177537,0.0229,0.0282,0.2353,136.84,-42.05,934.69,-258,-96,-38
1512177537,0.0180,0.0113,0.2392,119.93,-59.57,928.53,-258,-96,-38
1512177537,0.0136,-0.0065,0.2475,122.07,-40.89,969.48,-258,-96,-38
1512177537,0.0060,0.0212,0.2485,130.62,-30.21,911.13,-261,-107,-42
1512177537,0.0349,0.0503,0.2622,125.98,-61.16,963.38,-261,-107,-42
1512177537,0.0246,0.0370,0.2676,59.20,-50.60,806.27,-261,-107,-42
1512177537,0.0103,0.0134,0.2696,90.09,-55.42,808.96,-261,-107,-42
1512177537,-0.0084,-0.0353,0.2894,112.24,-80.14,731.32,-261,-107,-42
1512177537,0.0051,-0.0128,0.3013,18.13,-55.85,902.77,-261,-118,-38
1512177537,0.0096,0.0268,0.3236,32.29,-35.28,933.65,-261,-118,-38
1512177537,-0.0032,0.0417,0.3131,89.48,-40.16,960.33,-261,-118,-38
1512177537,-0.0128,0.0192,0.3132,176.03,-39.37,890.08,-261,-118,-38
1512177537,0.0051,0.0487,0.3051,103.88,-18.92,925.11,-261,-118,-38
1512177537,-0.0037,0.0148,0.3068,143.80,-55.73,870.67,-247,-121,-42
1512177537,-0.0029,0.0158,0.3174,104.00,-57.50,894.04,-247,-121,-42
1512177537,-0.0157,0.0138,0.3237,87.95,-43.21,898.50,-247,-121,-42
1512177537,-0.0007,0.0111,0.3316,101.99,-45.96,861.15,-247,-121,-42
1512177537,0.0077,-0.0020,0.3386,123.17,-63.35,893.37,-277,-130,-37
1512177537,0.0103,0.0168,0.3450,122.01,-67.32,926.09,-277,-130,-37
1512177537,0.0176,0.0390,0.3471,111.51,-74.28,913.76,-277,-130,-37
1512177537,0.0009,0.0258,0.3463,116.33,-66.83,1011.35,-277,-130,-37
1512177537,-0.0190,-0.0052,0.3563,91.98,-90.64,972.41,-277,-130,-37
1512177537,-0.0119,0.0028,0.3590,92.53,24.29,934.51,-275,-142,-38
1512177537,-0.0232,-0.0105,0.3606,162.05,-41.56,953.67,-275,-142,-38
1512177538,-0.0281,-0.0236,0.3621,155.40,-12.63,817.32,-275,-142,-38
1512177538,-0.0387,-0.0254,0.3683,122.80,-72.20,998.11,-275,-142,-38
1512177538,-0.0450,-0.0443,0.3704,194.58,-36.50,905.52,-284,-148,-37
1512177538,-0.0486,-0.0435,0.3767,197.69,-26.37,855.59,-284,-148,-37
1512177538,-0.0341,-0.0344,0.3788,159.61,-44.74,872.80,-284,-148,-37
1512177538,-0.0266,-0.0483,0.3838,218.08,-97.72,835.51,-284,-148,-37
1512177538,-0.0225,-0.0656,0.3941,168.27,-101.26,795.35,-284,-148,-37
1512177538,0.0024,-0.0495,0.3924,153.32,-96.01,805.42,-272,-149,-38
1512177538,0.0093,-0.0748,0.4085,140.50,13.18,909.18,-272,-149,-38
1512177538,0.0493,-0.0791,0.4486,169.98,-76.97,959.11,-272,-149,-38
1512177538,0.0370,-0.0330,0.4031,163.76,24.66,955.02,-272,-149,-38
1512177538,0.0116,0.0004,0.4037,220.76,-43.76,1003.85,-272,-149,-38
1512177538,0.0039,0.0378,0.4053,175.72,-62.68,973.45,-291,-169,-37
1512177538,0.0076,0.0810,0.4330,112.37,17.46,1016.91,-291,-169,-37
1512177538,-0.0083,0.1000,0.3855,117.43,-86.91,929.99,-291,-169,-37
1512177538,-0.0197,0.0811,0.4197,264.47,23.74,1081.97,-291,-169,-37
1512177538,-0.0232,0.0168,0.3096,380.31,-8.30,977.97,-296,-209,-89
1512177538,0.0037,0.0358,0.4213,95.40,-139.71,866.52,-296,-209,-89
1512177538,0.0217,0.0313,0.4270,26.92,-7.57,919.86,-296,-209,-89
1512177538,0.0075,-0.0093,0.4244,121.46,-7.69,1032.90,-296,-209,-89
1512177538,0.0250,0.0037,0.4234,167.24,-23.32,1073.85,-296,-209,-89
1512177538,-0.0037,0.0895,0.4236,211.00,-30.52,907.53,-296,-213,-96
1512177538,-0.0380,0.0391,0.4365,247.38,-16.30,911.80,-296,-213,-96
1512177538,-0.0419,0.0652,0.4372,236.76,4.21,865.66,-296,-213,-96
1512177538,-0.0312,0.0720,0.4418,75.38,-0.43,881.77,-296,-213,-96
1512177538,-0.0226,0.0593,0.4454,130.86,-48.52,947.14,-307,-216,-79
1512177538,-0.0368,0.0389,0.4567,151.00,17.52,901.00,-307,-216,-79
1512177538,-0.0477,0.0225,0.4515,146.91,-63.54,814.64,-307,-216,-79
1512177538,-0.0081,0.0253,0.4473,24.78,40.83,866.33,-307,-216,-79
1512177538,-0.0345,0.0744,0.4499,52.25,-48.40,1026.37,-307,-216,-79
1512177538,-0.0626,0.0931,0.4435,70.56,-75.81,1052.37,-288,-229,-84
1512177538,-0.0300,0.0668,0.4272,111.21,2.26,971.25,-288,-229,-84
1512177538,-0.0141,0.0691,0.4160,119.02,-22.77,986.51,-288,-229,-84
1512177538,0.0105,0.0625,0.4201,167.97,-42.48,949.95,-288,-229,-84
1512177538,0.0172,0.0603,0.4196,129.64,-51.70,921.81,-288,-229,-84
1512177538,0.0506,0.0493,0.4236,57.07,-43.09,982.91,-293,-259,-99
1512177538,0.0566,0.0048,0.4165,57.86,9.09,855.29,-293,-259,-99
1512177538,-0.0372,0.0626,0.4152,73.18,-64.39,791.14,-293,-259,-99
1512177539,-0.0036,0.0141,0.4258,64.94,-54.99,909.55,-293,-259,-99
1512177539,-0.0338,-0.0088,0.4173,133.12,-73.12,941.47,-293,-245,-82
1512177539,-0.0294,0.0069,0.4107,108.83,-61.65,919.98,-293,-245,-82
1512177539,-0.0469,0.0051,0.4141,143.74,-44.37,947.27,-293,-245,-82
1512177539,-0.0280,0.0176,0.4073,143.19,-40.89,957.46,-293,-245,-82
1512177539,0.0091,0.0153,0.3922,157.78,-4.76,939.39,-293,-245,-82
1512177539,0.0217,0.0455,0.3882,99.67,-55.60,973.27,-281,-264,-108
1512177539,0.0348,0.0826,0.3911,120.42,-56.58,887.51,-281,-264,-108
1512177539,0.0206,0.0702,0.3891,143.55,-45.53,887.15,-281,-264,-108
1512177539,0.0364,0.0383,0.3828,18.25,-76.35,947.81,-281,-264,-108
1512177539,0.0378,0.0214,0.3804,97.35,-48.22,810.06,-281,-264,-108
1512177539,0.0792,0.0081,0.3720,31.62,-41.50,945.68,-289,-269,-89
1512177539,0.0505,0.0274,0.3635,116.39,-64.03,924.80,-289,-269,-89
1512177539,0.0563,0.0210,0.3574,117.00,-103.82,908.14,-289,-269,-89
1512177539,0.0647,0.0206,0.3810,135.50,-37.23,835.94,-289,-269,-89
1512177539,0.0583,0.0057,0.3582,43.52,-24.29,869.87,-281,-260,-81
1512177539,0.0268,0.0290,0.3542,44.01,-20.57,984.68,-281,-260,-81
1512177539,-0.0128,0.0662,0.3503,59.94,-51.27,909.36,-281,-260,-81
1512177539,-0.0209,0.0454,0.3478,44.92,-27.40,888.43,-281,-260,-81
1512177539,0.0152,0.0186,0.3410,0.00,-26.43,920.10,-281,-260,-81
1512177539,0.0019,0.0015,0.3446,69.76,-33.51,864.44,-293,-273,-72
1512177539,0.0097,-0.0045,0.3435,45.17,-27.59,925.05,-293,-273,-72
1512177539,0.0064,-0.0049,0.3388,80.38,-98.21,882.39,-293,-273,-72
1512177539,0.0119,0.0128,0.3443,42.05,-99.06,967.04,-293,-273,-72
1512177539,0.0032,0.0096,0.3356,90.45,-9.03,804.38,-274,-292,-101
1512177539,0.0111,0.0017,0.3413,73.55,-6.59,964.36,-274,-292,-101
1512177539,0.0123,0.0104,0.3338,102.42,-59.02,902.71,-274,-292,-101
1512177539,-0.0115,0.0103,0.3366,117.49,-65.06,805.18,-274,-292,-101
1512177539,0.0013,0.0176,0.3373,103.82,-58.17,956.60,-274,-292,-101
1512177539,0.0028,0.0289,0.3419,110.47,-61.65,895.14,-282,-297,-113
1512177539,-0.0012,0.0324,0.3461,110.41,-5.86,933.17,-282,-297,-113
1512177539,-0.0225,-0.0001,0.3433,143.86,-40.95,876.59,-282,-297,-113
1512177539,-0.0087,-0.0128,0.3408,89.48,-73.97,937.07,-282,-297,-113
1512177539,-0.0192,-0.0265,0.3447,110.47,-28.02,852.78,-282,-297,-113
1512177539,0.0051,-0.0301,0.3479,168.46,-35.22,889.10,-274,-306,-94
1512177539,-0.0202,-0.0095,0.3610,203.12,-78.55,913.57,-274,-306,-94
1512177539,0.0165,-0.0049,0.3406,212.46,-7.81,800.48,-274,-306,-94
1512177539,-0.0465,0.0403,0.3414,127.08,-60.61,925.17,-274,-306,-94
1512177540,0.0049,0.0306,0.3374,98.45,-48.58,931.40,-267,-317,-91
1512177540,-0.0144,0.0013,0.3222,208.01,-46.39,842.22,-267,-317,-91
1512177540,0.0218,0.0226,0.3369,56.58,-43.03,1007.14,-267,-317,-91
1512177540,0.0182,0.0293,0.3417,78.37,-4.52,851.68,-267,-317,-91
1512177540,0.0079,0.0248,0.3416,115.36,-42.79,887.88,-267,-317,-91
1512177540,-0.0064,-0.0011,0.3482,206.67,-2.99,981.51,-275,-322,-86
1512177540,0.0217,0.0149,0.3410,140.62,-32.84,886.96,-275,-322,-86
1512177540,0.0349,0.0304,0.3483,89.60,-29.66,908.94,-275,-322,-86
1512177540,0.0158,0.0221,0.3497,57.56,2.99,929.26,-275,-322,-86
1512177540,-0.0061,0.0117,0.3507,63.66,-31.13,877.81,-275,-322,-86
1512177540,-0.0112,-0.0119,0.3521,112.61,-0.49,934.88,-270,-327,-84
1512177540,0.0019,-0.0039,0.3522,35.03,21.85,1011.72,-270,-327,-84
1512177540,-0.0036,0.0133,0.3501,116.03,-9.34,911.62,-270,-327,-84
1512177540,-0.0269,0.0197,0.3429,108.70,4.94,821.72,-270,-327,-84
1512177540,-0.0334,0.0305,0.3397,150.15,-55.79,846.50,-242,-345,-84
1512177540,-0.0123,0.0443,0.3366,117.25,-12.08,869.26,-242,-345,-84
1512177540,0.0013,0.0236,0.3392,143.80,5.62,888.73,-242,-345,-84
1512177540,0.0140,0.0217,0.3457,98.45,11.66,900.70,-242,-345,-84
1512177540,0.0120,0.0055,0.3406,123.66,-55.11,927.43,-242,-345,-84
1512177540,0.0433,0.0422,0.3376,17.15,17.15,1009.70,-253,-334,-84
1512177540,0.0261,0.0266,0.3416,28.50,-2.56,957.95,-253,-334,-84
1512177540,0.0192,0.0503,0.3434,60.97,-24.17,962.52,-253,-334,-84
1512177540,-0.0008,0.0449,0.3498,89.05,-4.94,886.47,-253,-334,-84
1512177540,-0.0067,0.0415,0.3374,130.80,-15.87,915.65,-253,-334,-84
1512177540,-0.0084,0.0312,0.3277,118.23,-16.66,818.85,-245,-345,-88
1512177540,0.0130,0.0574,0.3362,91.19,-69.70,921.63,-245,-345,-88
1512177540,0.0083,0.0322,0.3378,121.64,28.32,921.63,-245,-345,-88
1512177540,0.0059,0.0210,0.3400,50.66,6.35,972.66,-245,-345,-88
1512177540,0.0133,0.0337,0.3473,11.23,53.41,967.59,-238,-338,-88
1512177540,0.0304,0.0473,0.3441,-36.07,34.06,1012.15,-238,-338,-88
1512177540,0.0080,0.0431,0.3394,103.09,-9.95,902.16,-238,-338,-88
1512177540,-0.0037,0.0395,0.3490,77.76,60.55,898.99,-238,-338,-88
1512177540,-0.0232,0.0281,0.3490,159.30,-19.41,799.13,-238,-338,-88
1512177540,-0.0013,0.0433,0.3471,80.38,41.99,860.17,-231,-352,-81
1512177540,0.0009,0.0426,0.3494,103.09,-2.50,864.38,-231,-352,-81
1512177540,0.0142,0.0526,0.3495,78.25,7.26,950.93,-231,-352,-81
1512177540,0.0076,0.0595,0.3555,151.18,46.51,928.71,-231,-352,-81
1512177541,-0.0060,0.0471,0.3513,155.33,0.06,857.48,-235,-366,-91
1512177541,0.0137,0.0471,0.3565,95.76,43.76,962.28,-235,-366,-91
1512177541,0.0069,0.0224,0.3610,56.15,53.89,966.25,-235,-366,-91
1512177541,0.0036,0.0222,0.3653,83.74,42.60,1019.23,-235,-366,-91
1512177541,-0.0230,0.0244,0.3646,223.57,27.77,867.43,-235,-366,-91
1512177541,-0.0446,-0.0115,0.3623,284.79,17.27,807.01,-235,-380,-84
1512177541,-0.0441,-0.0137,0.3651,170.35,53.22,896.06,-235,-380,-84
1512177541,-0.0150,-0.0023,0.3684,131.29,70.19,930.11,-235,-380,-84
1512177541,-0.0142,-0.0206,0.3692,168.82,42.91,866.70,-235,-380,-84
1512177541,-0.0326,-0.0169,0.3716,154.11,75.68,823.18,-235,-380,-84
1512177541,-0.0190,-0.0017,0.3750,124.15,64.21,943.66,-212,-364,-96
1512177541,-0.0256,-0.0116,0.3703,138.31,72.45,894.35,-212,-364,-96
1512177541,-0.0083,0.0069,0.3763,59.88,62.81,922.49,-212,-364,-96
1512177541,-0.0242,-0.0356,0.3866,95.52,28.87,938.60,-212,-364,-96
1512177541,-0.0246,-0.0312,0.3883,113.04,49.07,835.08,-216,-389,-93
1512177541,-0.0162,-0.0029,0.3957,-37.84,68.60,858.46,-216,-389,-93
1512177541,-0.0140,0.0150,0.3945,112.98,53.34,895.57,-216,-389,-93
1512177541,-0.0296,-0.0045,0.3973,150.70,92.53,813.48,-216,-389,-93
1512177541,0.0040,-0.0242,0.4068,97.78,25.51,958.92,-216,-389,-93
1512177541,0.0225,-0.0257,0.4008,15.26,61.77,889.34,-200,-401,-91
1512177541,0.0119,-0.0224,0.3984,125.49,26.98,848.39,-200,-401,-91
1512177541,0.0129,-0.0294,0.3983,128.66,-30.15,900.51,-200,-401,-91
1512177541,0.0218,-0.0216,0.4001,119.08,87.28,886.66,-200,-401,-91
1512177541,0.0178,-0.0063,0.3984,136.05,42.18,911.50,-200,-401,-91
1512177541,0.0217,0.0063,0.3964,134.83,39.12,958.92,-203,-394,-74
1512177541,0.0008,-0.0044,0.3948,164.92,15.14,865.66,-203,-394,-74
1512177541,0.0067,-0.0162,0.4080,150.94,65.19,952.51,-203,-394,-74
1512177541,0.0298,0.0040,0.4057,112.12,52.06,941.41,-203,-394,-74
1512177541,0.0157,0.0164,0.3971,184.94,87.46,846.68,-189,-401,-98
1512177541,0.0108,0.0365,0.4079,163.09,82.52,924.13,-189,-401,-98
1512177541,0.0087,0.0494,0.4096,186.22,86.61,905.52,-189,-401,-98
1512177541,0.0108,0.0651,0.4096,180.66,73.12,960.33,-189,-401,-98
1512177541,0.0105,0.0774,0.4642,109.80,27.77,898.99,-189,-401,-98
1512177541,0.0040,0.0633,0.4301,166.26,64.21,848.75,-179,-412,-108
1512177541,0.0238,0.0639,0.4288,123.17,60.55,884.34,-179,-412,-108
1512177541,0.0182,0.0494,0.4365,201.48,91.13,900.76,-179,-412,-108
1512177541,0.0137,0.0555,0.4313,159.91,37.05,822.33,-179,-412,-108
1512177541,0.0142,0.0441,0.4252,147.71,56.64,769.96,-179,-412,-108
1512177542,0.0088,0.0469,0.4332,130.68,43.33,894.78,-173,-428,-82
1512177542,0.0208,0.0471,0.4358,103.88,85.57,927.73,-173,-428,-82
1512177542,0.0145,0.0368,0.4314,106.02,66.59,943.05,-173,-428,-82
1512177542,-0.0076,0.0285,0.4281,127.93,-16.72,933.29,-173,-428,-82
1512177542,0.0145,0.0208,0.4153,159.79,101.99,789.98,-161,-430,-88
1512177542,0.0173,0.0148,0.4478,169.92,50.11,922.49,-161,-430,-88
1512177542,0.0274,0.0337,0.4422,126.10,82.15,843.93,-161,-430,-88
1512177542,0.0284,0.0387,0.4382,143.98,65.00,870.42,-161,-430,-88
1512177542,0.0454,0.0225,0.4417,93.69,28.63,930.97,-161,-430,-88
1512177542,0.0288,-0.0178,0.4449,71.96,68.97,849.43,-154,-433,-77
1512177542,0.0234,-0.0699,0.4495,100.34,31.13,972.17,-154,-433,-77
1512177542,0.0277,-0.1031,0.4525,108.46,-30.21,837.71,-154,-433,-77
1512177542,0.0125,-0.0650,0.4254,48.58,-8.91,938.17,-154,-433,-77
1512177542,0.0216,-0.0157,0.4079,65.92,-4.15,935.79,-154,-433,-71
1512177542,-0.0149,0.0053,0.4366,52.06,-1.22,1018.01,-154,-433,-71
1512177542,-0.0341,-0.0173,0.4396,88.99,-4.82,1019.90,-154,-433,-71
1512177542,-0.0017,-0.0196,0.4280,139.65,-42.42,865.11,-154,-433,-71
1512177542,0.0308,-0.0154,0.4342,120.00,-20.08,835.14,-154,-433,-71
1512177542,0.0201,-0.0190,0.4420,108.76,-26.31,936.89,-121,-428,-72
1512177542,0.0253,-0.0382,0.4270,133.42,-17.09,915.16,-121,-428,-72
1512177542,0.0497,-0.0015,0.4278,85.88,26.73,994.87,-121,-428,-72
1512177542,0.0276,0.0435,0.4260,151.25,41.08,1070.13,-121,-428,-72
1512177542,-0.0049,0.0779,0.4190,241.09,36.50,987.18,-121,-428,-72
1512177542,-0.0248,0.1178,0.4029,222.53,34.85,926.64,-117,-417,-66
1512177542,-0.0198,0.1113,0.4149,137.51,27.10,953.80,-117,-417,-66
1512177542,-0.0216,0.0631,0.4197,134.77,-15.01,856.26,-117,-417,-66
1512177542,-0.0208,-0.0055,0.4334,112.49,-44.74,828.61,-117,-417,-66
1512177542,0.0164,-0.0382,0.4372,54.99,-52.80,830.63,-108,-444,-71
1512177542,0.0204,-0.0047,0.4233,36.62,-45.41,839.17,-108,-444,-71
1512177542,0.0169,0.0085,0.4214,79.22,-57.86,789.98,-108,-444,-71
1512177542,0.0466,-0.0439,0.4112,139.16,-11.17,825.56,-108,-444,-71
1512177542,0.0192,-0.0487,0.4318,-81.54,-89.36,918.21,-108,-444,-71
1512177542,-0.0222,-0.0176,0.4133,9.64,-40.89,1031.13,-80,-423,-54
1512177542,-0.0065,-0.0451,0.3959,-12.51,-35.46,935.36,-80,-423,-54
1512177542,-0.0035,-0.0443,0.3908,44.01,-59.75,906.56,-80,-423,-54
1512177542,-0.0085,-0.0734,0.3973,92.47,-81.79,872.01,-80,-423,-54
1512177542,-0.0092,-0.0511,0.4088,140.75,-77.64,792.91,-80,-423,-54
1512177542,-0.0057,-0.0254,0.4293,109.44,-93.57,819.95,-77,-440,-50
1512177543,0.0019,-0.0294,0.4266,139.04,-148.93,885.93,-77,-440,-50
1512177543,0.0048,-0.0198,0.4193,124.63,-92.16,837.59,-77,-440,-50
1512177543,-0.0111,-0.0257,0.3914,145.94,-177.73,848.39,-77,-440,-50
1512177543,0.0013,0.0225,0.3860,170.23,-115.36,878.91,-72,-442,-72
1512177543,0.0056,-0.0121,0.4245,226.20,-148.19,955.14,-72,-442,-72
1512177543,0.0097,-0.0116,0.4289,113.04,-194.89,886.96,-72,-442,-72
1512177543,0.0157,-0.0201,0.4350,166.93,-138.18,903.56,-72,-442,-72
1512177543,0.0218,-0.0003,0.4196,63.17,-160.40,912.41,-72,-442,-72
1512177543,0.0153,0.0298,0.4225,67.63,-142.52,908.45,-68,-442,-79
1512177543,0.0216,0.0149,0.4190,124.63,-127.26,948.12,-68,-442,-79
1512177543,0.0261,-0.0140,0.4213,98.21,-129.09,915.28,-68,-442,-79
1512177543,0.0059,-0.0071,0.4088,155.70,-118.71,929.26,-68,-442,-79
1512177543,0.0008,0.0124,0.4009,127.50,-100.04,918.95,-68,-442,-79
1512177543,0.0162,-0.0405,0.4153,123.05,-162.54,911.32,-61,-449,-72
1512177543,-0.0041,-0.0188,0.4316,137.70,-118.10,856.14,-61,-449,-72
1512177543,-0.0069,-0.0035,0.4401,144.96,-121.46,937.07,-61,-449,-72
1512177543,0.0092,-0.0061,0.4385,203.06,-121.89,930.97,-61,-449,-72
1512177543,0.0244,0.0161,0.4513,202.33,-102.54,948.73,-45,-458,-91
