time_unix,rotate_x,rotate_y,rotate_z,acc_x,acc_y,acc_z,mag_x,mag_y,mag_z
1512177648,0.0052,0.0045,0.0000,-78.06,7.02,976.38,-22,22,11
1512177648,-0.0023,-0.0013,-0.0024,-75.62,3.36,997.50,-22,22,11
1512177648,-0.0003,0.0021,0.0012,-83.56,-9.28,997.38,-22,22,11
1512177648,0.0055,0.0020,0.0000,-75.68,10.13,993.71,-12,5,11
1512177648,0.0013,0.0001,-0.0013,-83.01,-0.49,995.97,-12,5,11
1512177648,0.0051,0.0004,0.0001,-72.57,-5.68,1000.55,-12,5,11
1512177648,-0.0009,0.0005,-0.0011,-77.70,-2.26,1029.48,-12,5,11
1512177648,0.0032,0.0007,-0.0009,-86.85,-1.28,992.25,-17,7,3
1512177648,0.0027,0.0036,0.0003,-75.01,4.33,1005.37,-17,7,3
1512177648,-0.0029,-0.0031,-0.0013,-79.10,1.28,1021.55,-17,7,3
1512177648,-0.0005,0.0032,0.0001,-91.00,-5.68,993.71,-17,7,3
1512177648,0.0041,0.0025,0.0007,-77.27,7.02,990.17,-17,7,3
1512177648,0.0028,-0.0011,-0.0020,-79.77,10.01,987.92,-8,-1,5
1512177648,0.0020,0.0016,0.0003,-76.60,-5.13,1003.17,-8,-1,5
1512177648,0.0025,-0.0001,-0.0024,-78.00,1.95,1015.38,-8,-1,5
1512177648,0.0008,0.0013,-0.0023,-86.24,5.92,986.63,-8,-1,5
1512177648,0.0024,0.0004,-0.0001,-23.13,30.64,1033.63,-8,-1,5
1512177648,0.0129,0.0115,-0.0015,-90.88,13.61,965.76,-3,10,6
1512177648,0.0019,-0.0044,-0.0033,-87.71,-32.23,1015.14,-3,10,6
1512177648,-0.0007,0.0051,-0.0033,-106.32,-24.60,997.50,-3,10,6
1512177648,-0.0012,-0.0044,-0.0031,-77.15,-33.63,1014.22,-3,10,6
1512177648,-0.0061,0.0003,0.0004,-101.99,-56.27,997.25,-14,-3,3
1512177648,0.0027,0.0047,-0.0005,-65.06,-32.65,963.68,-14,-3,3
1512177648,-0.0015,0.0009,-0.0007,-57.25,-45.17,993.04,-14,-3,3
1512177648,-0.0035,0.0021,-0.0001,-72.45,-50.78,1028.38,-14,-3,3
1512177648,-0.0017,0.0003,0.0012,-76.11,-38.45,1017.70,-14,-3,3
1512177648,-0.0031,-0.0019,-0.0004,-90.94,-35.10,990.17,-21,7,20
1512177648,0.0011,0.0011,-0.0011,-69.95,-51.15,1008.00,-21,7,20
1512177649,-0.0024,-0.0004,-0.0008,-74.52,-40.10,1021.18,-21,7,20
1512177649,0.0024,0.0052,0.0009,-89.42,-37.96,979.13,-21,7,20
1512177649,-0.0019,0.0040,0.0032,-76.72,-46.26,1007.87,-21,7,20
1512177649,-0.0004,0.0003,0.0031,-76.60,-25.88,993.71,-29,1,15
1512177649,0.0028,0.0025,0.0052,-92.41,-49.93,984.19,-29,1,15
1512177649,0.0016,0.0048,0.0055,-91.86,-42.30,974.49,-29,1,15
1512177649,-0.0008,-0.0020,0.0041,-79.59,-29.11,991.76,-29,1,15
1512177649,0.0025,0.0032,0.0045,-91.49,-59.88,982.24,-15,-1,18
1512177649,-0.0003,0.0035,0.0051,-93.26,-54.38,997.62,-15,-1,18
1512177649,-0.0027,-0.0031,0.0029,-78.43,-36.32,1005.37,-15,-1,18
1512177649,0.0013,-0.0001,0.0053,-97.17,-57.31,976.50,-15,-1,18
1512177649,0.0001,-0.0008,0.0068,-70.56,-69.95,1005.74,-15,-1,18
1512177649,0.0005,0.0004,0.0076,-79.59,-50.60,1013.98,-31,-3,20
1512177649,-0.0003,0.0001,0.0061,-80.26,-54.57,979.25,-31,-3,20
1512177649,0.0057,0.0040,0.0109,-92.22,-80.08,943.79,-31,-3,20
1512177649,-0.0020,0.0037,0.0130,-71.04,-87.71,1005.74,-31,-3,20
1512177649,0.0004,0.0011,0.0115,-73.06,-75.81,1014.65,-21,14,27
1512177649,-0.0035,-0.0021,0.0099,-67.81,-88.26,1040.10,-21,14,27
1512177649,-0.0073,-0.0012,0.0116,-84.72,-91.74,1008.73,-21,14,27
1512177649,0.0008,-0.0011,0.0132,-74.46,-101.93,972.05,-21,14,27
1512177649,-0.0041,-0.0021,0.0162,-83.01,-107.36,985.47,-21,14,27
1512177649,-0.0011,-0.0013,0.0158,-54.32,-124.57,989.01,-21,3,6
1512177649,-0.0033,0.0021,0.0158,-65.61,-135.74,979.68,-21,3,6
1512177649,-0.0021,0.0059,0.0205,-88.68,-134.34,963.50,-21,3,6
1512177649,-0.0108,-0.0011,0.0218,-85.51,-153.02,1004.82,-21,3,6
1512177649,-0.0104,-0.0007,0.0232,-80.81,-159.36,988.59,-21,3,6
1512177649,-0.0065,0.0004,0.0257,-69.03,-167.18,999.39,-17,-3,3
1512177649,-0.0063,0.0007,0.0270,-65.25,-171.02,998.72,-17,-3,3
1512177649,-0.0047,0.0016,0.0282,-68.66,-167.72,1003.78,-17,-3,3
1512177649,-0.0064,0.0009,0.0308,-84.11,-178.47,992.68,-17,-3,3
1512177649,-0.0028,0.0013,0.0308,-84.90,-166.20,989.81,-31,0,6
1512177649,-0.0015,-0.0004,0.0341,-68.66,-168.58,997.44,-31,0,6
1512177649,-0.0061,-0.0036,0.0353,-78.00,-180.05,1008.67,-31,0,6
1512177649,-0.0064,-0.0028,0.0353,-78.74,-177.25,1023.50,-31,0,6
1512177649,-0.0024,-0.0012,0.0385,-58.41,-180.18,1008.73,-31,0,6
1512177649,-0.0015,0.0067,0.0381,-96.07,-164.98,995.79,-26,19,15
1512177649,-0.0017,0.0007,0.0395,-70.13,-184.33,991.03,-26,19,15
1512177649,-0.0001,-0.0020,0.0430,-71.11,-163.45,985.17,-26,19,15
1512177650,-0.0013,0.0019,0.0457,-93.26,-190.49,997.74,-26,19,15
1512177650,0.0031,-0.0004,0.0511,-54.02,-174.44,1002.26,-26,19,15
1512177650,0.0021,0.0009,0.0518,-95.03,-167.91,1011.29,-22,12,-1
1512177650,0.0027,0.0001,0.0514,-97.60,-184.75,951.48,-22,12,-1
1512177650,-0.0049,-0.0065,0.0531,-92.71,-186.58,1005.74,-22,12,-1
1512177650,0.0037,-0.0104,0.0554,-68.79,-175.72,996.15,-22,12,-1
1512177650,0.0037,-0.0123,0.0563,-60.06,-184.14,1024.84,-26,8,18
1512177650,0.0063,-0.0041,0.0578,-57.25,-150.02,1013.37,-26,8,18
1512177650,0.0047,0.0003,0.0590,-52.43,-152.04,1001.28,-26,8,18
1512177650,-0.0004,0.0052,0.0583,-79.22,-167.66,1011.78,-26,8,18
1512177650,-0.0019,0.0020,0.0606,-52.55,-150.57,1028.44,-26,8,18
1512177650,0.0009,0.0096,0.0675,-79.35,-164.06,992.49,-17,7,6
1512177650,0.0004,0.0019,0.0674,-56.82,-143.19,1024.05,-17,7,6
1512177650,0.0011,0.0073,0.0726,-50.66,-153.93,981.20,-17,7,6
1512177650,-0.0031,0.0015,0.0722,-42.54,-177.25,1012.08,-17,7,6
1512177650,-0.0043,-0.0037,0.0736,-36.50,-164.12,990.17,-35,10,13
1512177650,0.0012,-0.0024,0.0759,-51.57,-174.87,1001.46,-35,10,13
1512177650,0.0047,-0.0052,0.0780,-82.52,-159.24,986.63,-35,10,13
1512177650,0.0036,-0.0093,0.0795,-71.23,-172.24,994.87,-35,10,13
1512177650,0.0004,-0.0079,0.0803,-87.34,-154.60,1011.05,-35,10,13
1512177650,0.0047,-0.0154,0.0854,-55.24,-150.09,1034.97,-33,5,18
1512177650,-0.0037,-0.0206,0.0863,-52.31,-162.84,1033.45,-33,5,18
1512177650,0.0017,-0.0205,0.0895,-75.50,-137.02,999.63,-33,5,18
1512177650,0.0020,-0.0178,0.0912,-59.81,-146.30,974.79,-33,5,18
1512177650,-0.0077,-0.0129,0.0955,-76.29,-154.24,1051.45,-33,5,18
1512177650,-0.0044,-0.0109,0.1021,-68.54,-157.71,998.05,-35,21,13
1512177650,0.0055,-0.0111,0.1083,-0.85,-163.57,995.00,-35,21,13
1512177650,-0.0024,-0.0154,0.1140,-41.63,-156.86,1009.58,-35,21,13
1512177650,-0.0033,-0.0188,0.1190,-12.94,-148.56,1002.50,-35,21,13
1512177650,-0.0008,-0.0161,0.1250,-31.86,-159.24,957.46,-33,12,11
1512177650,-0.0037,-0.0152,0.1290,30.15,-167.54,1016.05,-33,12,11
1512177650,-0.0027,-0.0089,0.1338,-40.28,-157.41,1022.89,-33,12,11
1512177650,-0.0036,-0.0112,0.1382,-56.95,-152.04,1033.63,-33,12,11
1512177650,-0.0020,-0.0041,0.1418,-16.78,-129.76,1014.65,-33,12,11
1512177650,-0.0040,-0.0007,0.1463,-10.01,-162.23,983.34,-54,5,5
1512177650,-0.0052,0.0032,0.1531,26.92,-158.45,1003.66,-54,5,5
1512177650,0.0149,0.0209,0.1667,10.13,-149.66,968.81,-54,5,5
1512177651,0.0125,0.0153,0.1648,-25.15,-140.99,1014.34,-54,5,5
1512177651,0.0117,0.0112,0.1663,-0.31,-147.58,922.18,-54,5,5
1512177651,0.0057,0.0129,0.1683,-14.71,-134.03,975.95,-52,17,0
1512177651,-0.0093,-0.0101,0.1774,42.24,-145.94,1046.94,-52,17,0
1512177651,0.0019,-0.0001,0.1822,10.86,-131.77,963.26,-52,17,0
1512177651,-0.0055,0.0130,0.1846,-25.02,-117.92,1031.56,-52,17,0
1512177651,-0.0123,0.0293,0.1832,16.97,-124.69,1020.57,-56,7,6
1512177651,-0.0176,0.0407,0.1858,0.18,-134.16,997.68,-56,7,6
1512177651,-0.0278,0.0531,0.1835,-3.78,-123.41,1088.99,-56,7,6
1512177651,-0.0246,0.0527,0.1868,-19.47,-150.82,1057.62,-56,7,6
1512177651,-0.0209,0.0467,0.1856,-23.13,-141.97,1020.51,-56,7,6
1512177651,-0.0205,0.0398,0.1956,-42.91,-145.08,1004.82,-45,24,3
1512177651,-0.0095,0.0346,0.1988,-52.67,-129.09,971.56,-45,24,3
1512177651,-0.0115,0.0242,0.2020,-44.19,-152.95,982.06,-45,24,3
1512177651,-0.0047,0.0189,0.2071,-40.83,-134.40,968.63,-45,24,3
1512177651,-0.0027,0.0067,0.2111,-11.29,-141.72,952.27,-70,28,6
1512177651,-0.0015,0.0123,0.2101,13.79,-130.31,986.39,-70,28,6
1512177651,-0.0125,0.0072,0.2128,9.58,-135.07,962.16,-70,28,6
1512177651,-0.0089,-0.0037,0.2105,25.15,-171.69,1012.94,-70,28,6
1512177651,-0.0041,-0.0233,0.2160,23.25,-146.79,980.77,-70,28,6
1512177651,-0.0043,-0.0274,0.2269,2.62,-142.94,1017.88,-66,24,16
1512177651,-0.0024,-0.0337,0.2318,16.97,-129.58,991.64,-66,24,16
1512177651,-0.0013,-0.0162,0.2310,34.55,-123.23,1009.34,-66,24,16
1512177651,-0.0041,-0.0242,0.2270,58.96,-120.54,990.66,-66,24,16
1512177651,0.0021,-0.0189,0.2289,70.19,-116.88,1006.29,-66,24,16
1512177651,0.0052,-0.0161,0.2341,11.54,-135.01,1057.86,-70,10,10
1512177651,0.0081,-0.0180,0.2413,-40.95,-131.35,1089.66,-70,10,10
1512177651,0.0170,-0.0076,0.2438,9.77,-120.18,998.96,-70,10,10
1512177651,0.0004,-0.0047,0.2474,15.56,-148.86,1073.97,-70,10,10
1512177651,0.0093,-0.0099,0.2467,34.06,-133.97,971.31,-80,17,10
1512177651,0.0048,-0.0194,0.2489,5.68,-91.49,969.12,-80,17,10
1512177651,-0.0019,-0.0312,0.2518,-4.27,-133.42,1011.60,-80,17,10
1512177651,0.0013,-0.0366,0.2574,47.42,-90.58,1024.41,-80,17,10
1512177651,0.0029,-0.0391,0.2606,28.87,-126.53,958.31,-80,17,10
1512177651,-0.0084,-0.0276,0.2597,-33.69,-158.26,997.86,-79,19,15
1512177651,-0.0210,-0.0373,0.2637,26.31,-157.35,976.26,-79,19,15
1512177651,-0.0027,-0.0145,0.2655,-8.61,-135.25,949.52,-79,19,15
1512177651,-0.0277,-0.0413,0.3001,22.22,-138.79,990.17,-79,19,15
1512177652,-0.0041,-0.0148,0.2754,16.36,-110.35,1005.37,-79,19,15
1512177652,0.0338,0.0115,0.2629,62.62,-100.71,1020.94,-84,14,10
1512177652,0.0138,0.0214,0.2595,58.90,-101.14,1068.91,-84,14,10
1512177652,0.0322,0.0284,0.2606,87.16,-121.77,1008.97,-84,14,10
1512177652,0.0144,0.0360,0.2657,56.82,-134.52,1026.00,-84,14,10
1512177652,0.0148,0.0403,0.2742,88.50,-125.61,962.59,-86,15,-18
1512177652,0.0089,0.0344,0.2788,61.58,-112.18,983.83,-86,15,-18
1512177652,0.0009,0.0321,0.2819,82.34,-126.04,890.08,-86,15,-18
1512177652,0.0005,0.0566,0.2806,66.96,-94.91,989.44,-86,15,-18
1512177652,-0.0076,0.0711,0.2906,84.17,-135.44,1019.53,-86,15,-18
1512177652,-0.0024,0.0647,0.2846,33.51,-113.40,1027.04,-101,10,-13
1512177652,0.0037,0.0455,0.2863,39.67,-94.24,957.76,-101,10,-13
1512177652,-0.0009,0.0317,0.2947,-8.30,-91.25,959.96,-101,10,-13
1512177652,-0.0075,0.0289,0.2977,-23.80,-104.68,1017.88,-101,10,-13
1512177652,0.0021,0.0182,0.2939,1.22,-108.70,998.84,-101,10,-13
1512177652,0.0068,0.0156,0.2983,56.09,-66.47,997.13,-114,8,-22
1512177652,-0.0023,0.0160,0.3004,21.91,-111.15,1076.84,-114,8,-22
1512177652,0.0196,0.0196,0.2910,24.90,-108.46,1106.75,-114,8,-22
1512177652,-0.0116,-0.0099,0.3096,77.15,-122.92,942.81,-114,8,-22
1512177652,-0.0121,-0.0262,0.2956,79.65,-116.76,1071.59,-119,24,-3
1512177652,-0.0024,-0.0025,0.2972,59.94,-148.01,1002.56,-119,24,-3
1512177652,-0.0201,-0.0250,0.2992,53.22,-91.80,971.68,-119,24,-3
1512177652,-0.0117,-0.0214,0.3080,68.30,-103.39,943.91,-119,24,-3
1512177652,-0.0218,-0.0209,0.3053,70.62,-119.81,981.99,-119,24,-3
1512177652,-0.0415,-0.0115,0.3060,122.19,-115.78,1003.36,-114,-5,-1
1512177652,-0.0312,0.0144,0.3174,63.35,-124.63,1008.12,-114,-5,-1
1512177652,-0.0109,0.0039,0.3226,89.66,-114.56,1049.38,-114,-5,-1
1512177652,-0.0137,-0.0146,0.3280,46.39,-121.64,1054.02,-114,-5,-1
1512177652,0.0158,0.0051,0.3077,49.80,-91.80,997.38,-114,-5,-1
1512177652,0.0341,0.0349,0.3068,58.35,-162.72,1030.46,-133,7,-3
1512177652,0.0306,0.0457,0.3077,59.57,-119.02,971.92,-133,7,-3
1512177652,0.0361,0.0555,0.3012,97.11,-119.26,999.39,-133,7,-3
1512177652,0.0358,0.0451,0.2951,105.65,-97.41,1035.71,-133,7,-3
1512177652,0.0196,0.0364,0.2972,71.04,-82.58,949.95,-165,-10,-20
1512177652,0.0101,0.0478,0.2919,64.03,-127.99,1038.94,-165,-10,-20
1512177652,0.0061,0.0534,0.2945,39.12,-88.32,1031.19,-165,-10,-20
1512177652,-0.0016,0.0447,0.3005,120.67,-78.43,1016.54,-165,-10,-20
1512177652,-0.0157,0.0316,0.3013,69.70,-74.52,1077.94,-165,-10,-20
1512177653,-0.0103,0.0399,0.2992,71.90,-82.28,996.95,-131,12,-8
1512177653,-0.0226,0.0423,0.3007,43.09,-79.04,1079.16,-131,12,-8
1512177653,-0.0244,0.0354,0.2985,31.07,-56.52,1019.84,-131,12,-8
1512177653,-0.0076,0.0236,0.2955,61.34,-80.87,974.67,-131,12,-8
1512177653,-0.0342,-0.0097,0.2875,123.78,-90.70,915.89,-131,12,-8
1512177653,-0.0174,0.0130,0.2876,71.17,-99.18,1020.02,-159,15,1
1512177653,0.0057,0.0336,0.2882,62.68,-78.37,983.28,-159,15,1
1512177653,0.0242,0.0479,0.2870,35.34,-66.04,952.58,-159,15,1
1512177653,0.0330,0.0202,0.2891,16.42,-73.79,989.07,-159,15,1
1512177653,0.0229,-0.0181,0.2906,12.21,-133.30,905.88,-151,0,-10
1512177653,0.0366,-0.0184,0.2880,5.00,-39.55,964.90,-151,0,-10
1512177653,0.0298,0.0064,0.2855,41.56,-64.64,943.91,-151,0,-10
1512177653,0.0224,0.0273,0.2858,53.28,-60.12,1010.13,-151,0,-10
1512177653,0.0129,0.0202,0.2774,80.14,-89.11,1020.32,-151,0,-10
1512177653,0.0137,-0.0048,0.2759,69.03,-69.46,1066.10,-156,-1,-25
1512177653,0.0338,-0.0088,0.2808,66.65,-54.87,1051.51,-156,-1,-25
1512177653,0.0228,0.0137,0.2692,79.90,-28.87,1017.09,-156,-1,-25
1512177653,0.0338,0.0551,0.2630,62.01,-55.42,1011.54,-156,-1,-25
1512177653,0.0145,0.0658,0.2517,137.57,-46.69,1042.54,-168,-3,-20
1512177653,-0.0049,0.0465,0.2526,142.94,-17.40,1015.14,-168,-3,-20
1512177653,0.0059,0.0405,0.2517,42.36,-43.09,1099.85,-168,-3,-20
1512177653,0.0103,0.0324,0.2547,-19.17,7.75,1008.06,-168,-3,-20
1512177653,0.0096,0.0185,0.2590,-40.10,46.51,1061.52,-168,-3,-20
1512177653,0.0019,0.0095,0.2594,-10.44,-22.89,1038.64,-179,-17,-30
1512177653,0.0166,0.0162,0.2573,84.59,2.69,1056.21,-179,-17,-30
1512177653,-0.0138,0.0012,0.2585,47.55,3.60,1026.31,-179,-17,-30
1512177653,-0.0132,-0.0142,0.2438,-20.63,-20.45,997.62,-179,-17,-30
1512177653,-0.0185,-0.0250,0.2350,1.53,32.71,1059.33,-179,-17,-30
1512177653,-0.0124,-0.0486,0.2431,0.18,16.11,981.08,-195,-15,-5
1512177653,-0.0230,-0.0254,0.2384,-16.24,38.02,1026.86,-195,-15,-5
1512177653,-0.0338,-0.0089,0.2336,50.66,25.15,971.19,-195,-15,-5
1512177653,-0.0316,0.0064,0.2238,41.87,-19.35,1053.34,-195,-15,-5
1512177653,-0.0786,-0.0433,0.2214,109.80,-41.20,1052.86,-203,-7,-16
1512177653,-0.0435,-0.0391,0.2281,31.43,-42.72,989.32,-203,-7,-16
1512177653,-0.0368,-0.0237,0.2298,43.21,-20.39,960.33,-203,-7,-16
1512177653,-0.0285,0.0089,0.2193,53.65,-14.47,966.92,-203,-7,-16
1512177653,-0.0178,0.0145,0.2158,44.01,-21.24,981.57,-203,-7,-16
1512177653,-0.0137,-0.0027,0.2097,26.18,-28.75,962.89,-195,-22,-25
1512177654,-0.0085,-0.0115,0.2115,12.39,5.49,998.23,-195,-22,-25
1512177654,-0.0008,0.0000,0.2121,2.32,4.27,1028.20,-195,-22,-25
1512177654,-0.0105,0.0008,0.2047,66.04,13.61,984.25,-195,-22,-25
1512177654,-0.0059,0.0092,0.1996,9.95,6.65,1058.90,-195,-22,-25
1512177654,-0.0040,0.0017,0.1915,48.40,-6.29,1081.54,-200,-28,-33
1512177654,-0.0061,-0.0182,0.1883,24.72,-0.55,1062.32,-200,-28,-33
1512177654,-0.0025,-0.0237,0.1908,5.62,1.46,1003.78,-200,-28,-33
1512177654,0.0063,-0.0104,0.1862,-13.24,38.15,1042.54,-200,-28,-33
1512177654,0.0067,-0.0067,0.1927,-32.41,38.57,1060.49,-202,-26,-25
1512177654,0.0253,0.0068,0.1884,-57.37,51.88,1050.17,-202,-26,-25
1512177654,0.0148,-0.0079,0.1874,-35.95,13.06,1014.47,-202,-26,-25
1512177654,0.0111,-0.0161,0.1799,19.84,10.50,979.13,-202,-26,-25
1512177654,0.0008,-0.0194,0.1770,24.11,19.41,951.60,-202,-26,-25
1512177654,0.0080,-0.0015,0.1666,-10.50,-2.87,1046.75,-202,-40,-22
1512177654,-0.0072,-0.0111,0.1755,29.60,17.46,904.85,-202,-40,-22
1512177654,-0.0037,0.0233,0.1672,-17.15,13.67,1010.93,-202,-40,-22
1512177654,0.0020,0.0372,0.1621,14.22,32.41,1091.61,-202,-40,-22
1512177654,-0.0184,0.0145,0.1633,12.63,46.88,1023.07,-200,-52,-27
1512177654,-0.0129,0.0113,0.1607,-36.01,24.29,1055.73,-200,-52,-27
1512177654,-0.0226,0.0123,0.1579,-56.03,48.03,966.06,-200,-52,-27
1512177654,-0.0260,0.0145,0.1498,-25.45,-0.31,1017.15,-200,-52,-27
1512177654,-0.0273,0.0192,0.1457,1.16,15.32,975.52,-200,-52,-27
1512177654,-0.0280,0.0123,0.1447,13.61,3.23,1021.48,-224,-49,-20
1512177654,-0.0130,0.0099,0.1425,-47.55,14.34,961.85,-224,-49,-20
1512177654,-0.0047,0.0202,0.1392,-29.11,43.46,991.09,-224,-49,-20
1512177654,-0.0067,0.0237,0.1362,-24.17,-8.97,1020.75,-224,-49,-20
1512177654,-0.0012,0.0148,0.1270,46.69,7.20,997.92,-224,-49,-20
1512177654,-0.0212,0.0129,0.1238,-34.79,16.42,988.77,-210,-35,-37
1512177654,-0.0101,0.0165,0.1162,-22.64,-4.27,1021.55,-210,-35,-37
1512177654,0.0164,0.0462,0.1111,-3.66,26.31,1032.71,-210,-35,-37
1512177654,-0.0240,-0.0077,0.1096,-18.13,44.37,1004.82,-210,-35,-37
1512177654,-0.0051,-0.0213,0.1125,-63.78,31.07,1083.62,-226,-40,-42
1512177654,0.0020,-0.0229,0.1087,-46.81,39.31,941.47,-226,-40,-42
1512177654,-0.0061,-0.0149,0.1049,-11.29,13.31,993.10,-226,-40,-42
1512177654,0.0037,0.0184,0.1028,-11.66,13.31,1009.95,-226,-40,-42
1512177654,0.0157,0.0260,0.1039,-22.46,37.35,1003.23,-226,-40,-42
1512177654,0.0145,0.0080,0.1004,3.66,42.30,1040.83,-224,-52,-20
1512177654,0.0096,-0.0132,0.0980,13.49,40.22,1012.57,-224,-52,-20
1512177655,0.0060,-0.0129,0.0987,-26.31,22.77,998.60,-224,-52,-20
1512177655,0.0160,0.0205,0.0993,-22.52,23.19,1005.37,-224,-52,-20
1512177655,0.0160,0.0220,0.1091,-12.45,74.10,1014.34,-224,-52,-20
1512177655,0.0037,0.0008,0.1103,-32.29,18.01,1075.56,-214,-56,-30
1512177655,0.0080,0.0241,0.0835,-42.85,49.19,934.45,-214,-56,-30
1512177655,-0.0213,-0.0019,0.0889,3.60,8.54,948.30,-214,-56,-30
1512177655,-0.0123,0.0012,0.0895,-7.32,20.26,1035.58,-214,-56,-30
1512177655,-0.0049,-0.0052,0.0932,-15.32,80.26,1038.70,-212,-54,-25
1512177655,-0.0119,-0.0228,0.0932,-30.52,31.62,1047.49,-212,-54,-25
1512177655,-0.0048,-0.0304,0.0967,-75.93,34.06,1019.53,-212,-54,-25
1512177655,0.0012,-0.0381,0.0976,-94.18,20.26,1042.24,-212,-54,-25
1512177655,0.0001,-0.0354,0.1004,-68.85,15.14,970.52,-212,-54,-25
1512177655,0.0103,-0.0254,0.0988,-28.81,29.66,938.11,-214,-56,-16
1512177655,0.0224,-0.0366,0.0967,-21.61,21.48,960.39,-214,-56,-16
1512177655,0.0085,-0.0398,0.0944,-2.32,-3.66,931.52,-214,-56,-16
1512177655,0.0166,-0.0116,0.0915,-18.01,5.31,967.41,-214,-56,-16
1512177655,0.0067,0.0180,0.0921,-9.58,50.17,948.43,-216,-68,-28
1512177655,-0.0138,0.0105,0.0883,23.74,15.20,1058.53,-216,-68,-28
1512177655,-0.0144,-0.0068,0.0896,-1.46,31.80,1059.94,-216,-68,-28
1512177655,-0.0037,-0.0107,0.0895,-36.13,10.44,1031.31,-216,-68,-28
1512177655,0.0079,-0.0035,0.0893,-67.26,46.51,1060.06,-216,-68,-28
1512177655,0.0049,-0.0156,0.0931,-43.15,39.79,987.61,-223,-75,-32
1512177655,0.0067,0.0130,0.0940,-19.59,-12.15,954.83,-223,-75,-32
1512177655,0.0144,0.0310,0.0731,-0.85,29.17,929.02,-223,-75,-32
1512177655,0.0134,0.0405,0.0610,-13.73,6.04,943.05,-223,-75,-32
1512177655,0.0170,0.0466,0.0599,-11.05,15.50,984.86,-223,-75,-32
1512177655,0.0289,0.0368,0.0579,-6.71,15.81,965.21,-214,-63,-16
1512177655,0.0274,0.0101,0.0621,-44.31,30.94,1016.48,-214,-63,-16
1512177655,0.0232,-0.0248,0.0680,-85.94,37.17,1041.08,-214,-63,-16
1512177655,0.0230,-0.0294,0.0770,-91.80,75.32,1067.50,-214,-63,-16
1512177655,0.0138,-0.0245,0.0775,-46.81,31.19,1055.11,-210,-74,-27
1512177655,0.0273,0.0196,0.0779,-60.30,56.52,1037.72,-210,-74,-27
1512177655,-0.0015,0.0011,0.0587,-48.52,41.99,895.45,-210,-74,-27
1512177655,-0.0148,-0.0225,0.0439,-45.41,3.23,984.56,-210,-74,-27
1512177655,-0.0157,-0.0294,0.0316,-75.74,38.33,1017.46,-210,-74,-27
1512177655,-0.0197,-0.0273,0.0292,-103.15,28.81,1023.86,-233,-65,-25
1512177655,-0.0257,-0.0047,0.0274,-48.10,18.55,973.21,-233,-65,-25
1512177656,0.0107,0.0427,0.0337,-64.94,38.15,1011.29,-233,-65,-25
1512177656,-0.0063,0.0200,0.0288,1.77,29.30,965.39,-233,-65,-25
1512177656,-0.0087,0.0067,0.0201,-8.48,7.32,1009.95,-233,-65,-25
1512177656,-0.0169,-0.0084,0.0162,-63.78,-5.92,1041.02,-217,-84,-23
1512177656,-0.0036,-0.0248,0.0177,-89.23,51.70,977.78,-217,-84,-23
1512177656,-0.0020,-0.0099,0.0174,-110.17,45.47,1055.11,-217,-84,-23
1512177656,0.0065,0.0032,0.0177,-40.22,28.14,904.97,-217,-84,-23
1512177656,-0.0096,0.0385,0.0013,-47.91,37.90,922.49,-219,-68,-15
1512177656,-0.0194,0.0399,-0.0101,-47.42,48.16,1014.22,-219,-68,-15
1512177656,-0.0208,0.0111,-0.0149,-69.82,28.75,935.06,-219,-68,-15
1512177656,-0.0310,-0.0192,-0.0180,-79.28,57.50,938.84,-219,-68,-15
1512177656,-0.0294,-0.0242,-0.0079,-94.24,14.47,986.21,-219,-68,-15
1512177656,0.0031,-0.0093,0.0008,-63.54,66.35,1021.42,-233,-75,-18
1512177656,0.0080,-0.0142,0.0119,-59.51,45.04,994.93,-233,-75,-18
1512177656,0.0177,0.0145,0.0169,-66.83,44.31,1110.60,-233,-75,-18
1512177656,-0.0040,0.0012,0.0031,-51.21,37.60,1017.52,-233,-75,-18
1512177656,0.0015,-0.0037,0.0007,-73.24,48.10,980.90,-233,-75,-18
1512177656,0.0053,-0.0120,0.0013,-57.37,73.43,1002.81,-223,-79,-22
1512177656,0.0049,-0.0254,0.0119,-56.76,53.77,994.38,-223,-79,-22
1512177656,0.0015,0.0121,0.0130,-68.85,26.25,994.57,-223,-79,-22
1512177656,0.0063,0.0202,0.0145,5.62,50.35,1017.46,-223,-79,-22
1512177656,0.0115,0.0057,0.0213,14.89,66.53,982.12,-228,-81,-16
1512177656,0.0012,-0.0115,0.0357,31.19,0.92,998.66,-228,-81,-16
1512177656,0.0294,-0.0027,0.0358,27.28,59.33,933.84,-228,-81,-16
1512177656,0.0112,-0.0326,0.0427,62.32,65.86,983.15,-228,-81,-16
1512177656,0.0072,-0.0386,0.0590,22.40,4.52,945.19,-228,-81,-16
1512177656,0.0241,-0.0053,0.0672,29.42,48.77,1005.98,-221,-66,-23
1512177656,0.0178,0.0153,0.0712,16.24,59.88,995.97,-221,-66,-23
1512177656,0.0154,0.0201,0.0775,41.69,36.19,985.96,-221,-66,-23
1512177656,-0.0009,-0.0200,0.0858,75.99,58.78,1015.14,-221,-66,-23
1512177656,-0.0140,-0.0165,0.1036,82.89,18.01,995.12,-217,-77,-16
1512177656,-0.0008,0.0059,0.1181,51.27,50.78,1057.07,-217,-77,-16
1512177656,0.0032,0.0145,0.1089,75.62,72.33,1026.92,-217,-77,-16
1512177656,0.0085,0.0312,0.1230,38.15,41.99,1005.07,-217,-77,-16
1512177656,0.0003,0.0137,0.1398,70.74,60.18,1016.30,-217,-77,-16
1512177656,0.0040,-0.0028,0.1449,58.23,63.11,965.33,-224,-84,-33
1512177656,0.0012,-0.0029,0.1454,68.12,52.61,1062.13,-224,-84,-33
1512177656,0.0081,0.0214,0.1617,11.96,48.71,1005.86,-224,-84,-33
1512177657,0.0069,0.0197,0.1607,28.02,48.89,1072.20,-224,-84,-33
1512177657,0.0023,0.0052,0.1754,86.55,58.96,981.08,-224,-84,-33
1512177657,0.0225,0.0213,0.1891,21.91,57.31,962.04,-230,-93,-18
1512177657,0.0132,0.0376,0.2023,74.40,68.54,969.54,-230,-93,-18
1512177657,-0.0201,-0.0209,0.2037,113.34,71.53,962.65,-230,-93,-18
1512177657,0.0087,0.0079,0.2049,86.36,80.02,896.30,-230,-93,-18
1512177657,-0.0065,0.0115,0.2194,77.27,57.98,945.68,-233,-86,-49
1512177657,-0.0083,0.0001,0.2368,106.38,24.72,1033.75,-233,-86,-49
1512177657,0.0053,0.0218,0.2393,92.53,49.26,1023.68,-233,-86,-49
1512177657,0.0024,0.0257,0.2471,123.72,32.65,908.14,-233,-86,-49
1512177657,0.0113,0.0322,0.2491,76.23,22.89,1016.85,-233,-86,-49
1512177657,0.0067,0.0157,0.2523,114.62,22.22,900.57,-233,-86,-35
1512177657,0.0232,0.0441,0.2534,148.25,22.71,1045.53,-233,-86,-35
1512177657,0.0144,0.0387,0.2614,139.89,25.57,907.71,-233,-86,-35
1512177657,0.0036,0.0225,0.2595,158.02,28.32,1001.83,-233,-86,-35
1512177657,0.0196,0.0325,0.2686,131.77,39.55,1090.58,-233,-86,-35
1512177657,0.0198,0.0503,0.2751,126.59,27.53,1041.87,-256,-95,-37
1512177657,0.0051,0.0214,0.2844,119.14,34.06,995.97,-256,-95,-37
1512177657,0.0007,-0.0027,0.2963,61.58,18.80,981.26,-256,-95,-37
1512177657,0.0173,0.0003,0.3023,105.77,20.57,978.09,-256,-95,-37
1512177657,0.0209,-0.0016,0.3128,55.18,65.73,990.36,-263,-102,-37
1512177657,0.0261,0.0033,0.3174,65.25,5.37,1038.94,-263,-102,-37
1512177657,0.0137,-0.0157,0.3209,83.56,42.18,1004.82,-263,-102,-37
1512177657,0.0226,-0.0029,0.3238,101.56,23.80,956.85,-263,-102,-37
1512177657,0.0257,-0.0040,0.3290,120.30,37.78,987.67,-263,-102,-37
1512177657,0.0372,0.0041,0.3459,136.47,27.77,989.26,-279,-104,-42
1512177657,0.0241,0.0123,0.3494,115.17,27.47,966.86,-279,-104,-42
1512177657,0.0130,0.0096,0.3354,118.84,35.89,1005.86,-279,-104,-42
1512177657,0.0268,0.0209,0.3445,156.31,60.36,1002.20,-279,-104,-42
1512177657,0.0196,0.0077,0.3507,144.17,30.27,1011.66,-288,-119,-47
1512177657,0.0170,0.0198,0.3541,160.22,41.32,991.46,-288,-119,-47
1512177657,0.0108,0.0380,0.3495,126.10,24.23,890.81,-288,-119,-47
1512177657,0.0136,0.0252,0.3470,171.57,45.41,1049.38,-288,-119,-47
1512177657,0.0297,0.0593,0.3618,150.39,78.86,998.29,-288,-119,-47
1512177657,0.0032,0.0095,0.3711,114.93,-18.13,1080.14,-284,-119,-44
1512177657,0.0113,0.0000,0.3585,118.04,14.95,1043.58,-284,-119,-44
1512177657,0.0023,-0.0003,0.3751,146.00,27.16,1028.32,-284,-119,-44
1512177657,0.0162,0.0230,0.3759,85.02,6.77,995.54,-284,-119,-44
1512177658,0.0123,0.0132,0.3807,117.19,32.71,1005.37,-284,-119,-44
1512177658,-0.0033,0.0005,0.3953,91.61,-19.23,1003.05,-288,-137,-37
1512177658,-0.0123,-0.0001,0.3899,119.75,-2.56,961.67,-288,-137,-37
1512177658,-0.0121,0.0057,0.3922,169.25,-4.46,963.50,-288,-137,-37
1512177658,-0.0044,0.0181,0.4017,122.80,-36.80,943.05,-288,-137,-37
1512177658,-0.0150,-0.0075,0.3952,182.37,-5.92,977.97,-295,-141,-54
1512177658,-0.0087,0.0061,0.4012,153.81,2.14,931.88,-295,-141,-54
1512177658,0.0418,0.0092,0.4289,165.89,-16.54,1075.50,-295,-141,-54
1512177658,0.0117,0.0016,0.4020,180.97,45.47,951.97,-295,-141,-54
1512177658,0.0091,-0.0044,0.4265,185.18,-13.43,1029.11,-295,-141,-54
1512177658,-0.0103,-0.0262,0.4274,132.26,4.76,1105.77,-284,-169,-84
1512177658,0.0028,-0.0249,0.4364,175.48,18.25,928.10,-284,-169,-84
1512177658,-0.0221,-0.0245,0.4318,168.64,-49.74,1019.84,-284,-169,-84
1512177658,-0.0293,-0.0455,0.4306,202.51,-43.95,912.72,-284,-169,-84
1512177658,-0.0108,-0.0489,0.4354,128.85,-53.53,987.00,-312,-183,-77
1512177658,0.0150,-0.0358,0.4388,47.36,1.53,1020.81,-312,-183,-77
1512177658,0.0169,-0.0296,0.4421,193.79,-17.88,965.70,-312,-183,-77
1512177658,-0.0156,0.0341,0.4284,264.04,9.70,919.98,-312,-183,-77
1512177658,-0.0129,0.0772,0.4185,232.67,39.12,1069.82,-312,-183,-77
1512177658,-0.0257,0.1225,0.4390,152.28,28.14,1008.18,-300,-206,-82
1512177658,-0.0221,0.0431,0.4269,232.36,21.30,1178.59,-300,-206,-82
1512177658,-0.0277,0.0482,0.4224,95.89,-2.87,1048.95,-300,-206,-82
1512177658,-0.0112,0.0200,0.4337,165.89,-32.59,1117.55,-300,-206,-82
1512177658,0.0093,-0.0393,0.4385,46.57,-47.00,1036.99,-300,-206,-82
1512177658,0.0212,-0.0442,0.4527,60.00,-28.99,1054.32,-302,-208,-77
1512177658,0.0024,-0.0226,0.4333,24.60,1.28,932.31,-302,-208,-77
1512177658,-0.0208,-0.0021,0.4314,105.04,-54.44,863.65,-302,-208,-77
1512177658,-0.0320,0.0007,0.4384,179.32,-16.91,982.24,-302,-208,-77
1512177658,-0.0509,-0.0081,0.4277,182.98,55.24,976.68,-296,-227,-82
1512177658,-0.0387,-0.0186,0.4285,197.08,-45.84,1020.57,-296,-227,-82
1512177658,-0.0081,0.0197,0.4234,169.07,-40.59,1042.97,-296,-227,-82
1512177658,-0.0033,-0.0198,0.4276,200.44,14.53,1021.30,-296,-227,-82
1512177658,0.0025,0.0092,0.4432,137.21,-51.88,1000.79,-296,-227,-82
1512177658,0.0149,0.0015,0.4630,167.85,63.78,976.32,-291,-243,-81
1512177658,0.0273,0.0093,0.4421,227.78,21.24,1013.43,-291,-243,-81
1512177658,0.0281,0.0545,0.4246,227.05,-40.65,997.01,-291,-243,-81
1512177658,0.0224,0.0718,0.4111,221.44,29.85,1054.38,-291,-243,-81
1512177659,0.0115,0.0712,0.4145,305.05,18.74,1047.91,-291,-243,-81
1512177659,0.0141,0.1101,0.4159,206.97,40.59,999.33,-309,-236,-81
1512177659,0.0000,0.1242,0.4364,151.73,-14.95,999.15,-309,-236,-81
1512177659,0.0164,0.1089,0.4316,126.89,15.26,914.25,-309,-236,-81
1512177659,0.0230,0.0547,0.4180,113.71,26.31,1066.16,-309,-236,-81
1512177659,0.0642,0.0577,0.4348,-48.40,8.36,1034.12,-307,-269,-110
1512177659,0.0257,0.0636,0.4127,-41.93,31.86,1023.25,-307,-269,-110
1512177659,0.0208,0.0158,0.4091,57.37,-6.47,1139.28,-307,-269,-110
1512177659,-0.0537,0.0920,0.4228,23.99,-13.49,1025.02,-307,-269,-110
1512177659,-0.0028,0.0523,0.4288,142.27,23.86,986.15,-307,-269,-110
1512177659,-0.0089,0.0413,0.4182,131.90,24.60,929.32,-303,-280,-120
1512177659,-0.0025,0.0387,0.4145,205.63,-11.66,908.51,-303,-280,-120
1512177659,-0.0008,0.0443,0.4119,179.50,56.82,953.43,-303,-280,-120
1512177659,0.0051,0.0594,0.4175,175.23,17.64,961.30,-303,-280,-120
1512177659,0.0244,0.0216,0.4120,189.76,-8.42,1016.42,-302,-282,-128
1512177659,0.0260,0.0099,0.4036,133.24,14.53,925.72,-302,-282,-128
1512177659,0.0344,-0.0111,0.4088,178.89,53.28,1015.87,-302,-282,-128
1512177659,0.0471,0.0081,0.4163,114.32,32.41,1071.96,-302,-282,-128
1512177659,0.0523,0.0149,0.4012,122.25,67.32,1028.50,-302,-282,-128
1512177659,0.0438,0.0364,0.3971,68.73,81.30,1030.94,-321,-280,-103
1512177659,0.0124,0.0138,0.4049,147.64,64.45,1055.91,-321,-280,-103
1512177659,0.0320,0.0337,0.3887,46.57,34.12,1092.96,-321,-280,-103
1512177659,0.0246,0.0336,0.3880,48.22,101.99,1002.75,-321,-280,-103
1512177659,0.0209,0.0297,0.3960,65.37,83.50,973.14,-321,-280,-103
1512177659,0.0130,0.0357,0.3968,160.28,53.65,969.42,-284,-310,-118
1512177659,0.0107,0.0485,0.4009,149.23,118.77,943.66,-284,-310,-118
1512177659,0.0162,0.0100,0.3967,166.32,65.55,968.69,-284,-310,-118
1512177659,0.0234,0.0152,0.4005,216.31,54.87,968.20,-284,-310,-118
1512177659,0.0177,0.0145,0.3971,242.98,53.28,884.34,-286,-308,-120
1512177659,0.0137,0.0268,0.4013,310.73,53.65,969.42,-286,-308,-120
1512177659,0.0137,0.0314,0.4065,242.07,107.30,1048.58,-286,-308,-120
1512177659,-0.0057,0.0358,0.4053,290.53,44.68,949.89,-286,-308,-120
1512177659,-0.0109,0.0775,0.4409,179.75,90.21,958.31,-286,-308,-120
1512177659,-0.0278,0.0403,0.4270,181.46,58.65,987.92,-291,-327,-125
1512177659,-0.0024,0.0302,0.4141,175.54,23.50,1021.24,-291,-327,-125
1512177659,0.0011,0.0099,0.4128,154.42,88.44,987.43,-291,-327,-125
1512177659,0.0020,-0.0169,0.4161,166.99,79.90,1045.41,-291,-327,-125
1512177659,-0.0003,-0.0036,0.4125,115.48,90.58,1003.05,-291,-327,-125
1512177660,0.0144,-0.0003,0.4131,147.03,82.76,941.22,-291,-331,-115
1512177660,0.0000,0.0104,0.4212,232.06,70.19,915.83,-291,-331,-115
1512177660,-0.0230,-0.0085,0.4268,306.64,73.30,953.43,-291,-331,-115
1512177660,-0.0286,-0.0088,0.4103,255.07,103.76,967.90,-291,-331,-115
1512177660,-0.0083,0.0192,0.4119,208.74,70.92,937.01,-284,-327,-125
1512177660,-0.0031,0.0281,0.4149,180.48,100.83,953.92,-284,-327,-125
1512177660,0.0060,0.0409,0.4156,130.55,133.12,1072.63,-284,-327,-125
1512177660,0.0008,0.0370,0.4144,77.21,55.97,928.04,-284,-327,-125
1512177660,0.0027,0.0241,0.4163,69.89,206.97,911.44,-284,-327,-125
1512177660,0.0117,0.0048,0.4216,-2.20,124.51,1003.72,-284,-349,-115
1512177660,0.0015,-0.0246,0.4238,250.79,124.33,1048.40,-284,-349,-115
1512177660,0.0439,-0.0261,0.4107,277.95,165.34,932.56,-284,-349,-115
1512177660,0.0595,-0.0056,0.3965,247.31,147.46,978.15,-284,-349,-115
1512177660,0.0704,0.0157,0.3980,235.05,124.33,936.04,-284,-349,-115
1512177660,-0.0093,0.0629,0.4096,150.09,118.84,1031.62,-284,-342,-104
1512177660,-0.0003,0.0494,0.3997,163.51,2.38,1013.98,-284,-342,-104
1512177660,0.0225,0.0344,0.4055,89.23,79.90,955.69,-284,-342,-104
1512177660,0.0096,-0.0241,0.4165,147.52,66.35,1055.05,-284,-342,-104
1512177660,0.0296,-0.0130,0.4212,101.99,116.33,1037.17,-277,-363,-118
1512177660,-0.0040,-0.0064,0.4153,166.56,113.46,1025.82,-277,-363,-118
1512177660,-0.0213,0.0101,0.4185,140.26,145.63,1009.89,-277,-363,-118
1512177660,-0.0294,0.0419,0.4097,67.93,167.24,1016.91,-277,-363,-118
1512177660,-0.0149,-0.0184,0.4111,173.03,130.31,997.74,-277,-363,-118
1512177660,-0.0194,-0.0170,0.4075,195.50,75.93,837.52,-256,-363,-108
1512177660,-0.0145,-0.0269,0.4204,188.42,195.80,999.63,-256,-363,-108
1512177660,0.0052,-0.0001,0.4217,218.99,157.47,982.12,-256,-363,-108
1512177660,-0.0007,-0.0008,0.4218,245.54,94.97,958.37,-256,-363,-108
1512177660,0.0104,0.0100,0.4336,192.99,128.42,936.77,-256,-363,-108
1512177660,0.0266,-0.0039,0.4599,169.25,71.53,937.99,-256,-384,-121
1512177660,0.0189,-0.0209,0.4417,231.14,112.73,936.71,-256,-384,-121
1512177660,0.0277,-0.0136,0.4377,245.00,129.33,981.14,-256,-384,-121
1512177660,0.0364,-0.0057,0.4421,178.83,172.30,1063.72,-256,-384,-121
1512177660,0.0260,-0.0084,0.4364,219.06,153.81,1031.62,-265,-396,-123
1512177660,0.0423,0.0470,0.4406,122.86,188.78,1009.46,-265,-396,-123
1512177660,0.0555,0.0924,0.4350,40.28,178.71,1055.54,-265,-396,-123
1512177660,0.0073,0.0680,0.4328,157.35,163.45,969.42,-265,-396,-123
1512177660,0.0095,0.0338,0.4382,109.50,166.20,1083.68,-265,-396,-123
1512177660,0.0224,0.0362,0.4281,173.83,180.79,1009.34,-245,-416,-115
1512177661,0.0305,0.0386,0.4277,101.56,152.65,1031.68,-245,-416,-115
1512177661,0.0154,0.0410,0.4250,146.48,180.79,1021.00,-245,-416,-115
1512177661,0.0053,0.0477,0.4365,78.25,187.26,1107.97,-245,-416,-115
1512177661,0.0111,-0.0127,0.4237,165.10,144.71,1114.14,-249,-398,-91
1512177661,0.0128,0.0194,0.4236,114.81,124.02,987.24,-249,-398,-91
1512177661,0.0132,0.0269,0.4173,76.11,171.75,1011.17,-249,-398,-91
1512177661,0.0124,0.0055,0.4201,115.78,137.21,957.40,-249,-398,-91
1512177661,0.0096,-0.0067,0.4245,171.08,182.98,915.04,-249,-398,-91
1512177661,0.0427,-0.0284,0.4164,235.96,156.43,830.75,-228,-405,-91
1512177661,0.0077,0.0109,0.4153,204.16,212.89,966.31,-228,-405,-91
1512177661,0.0229,0.0258,0.4005,234.92,199.46,1000.73,-228,-405,-91
1512177661,-0.0067,0.0434,0.4249,114.14,96.98,1124.15,-228,-405,-91
1512177661,0.0238,0.0272,0.4408,108.83,171.39,868.84,-228,-405,-91
1512177661,-0.0020,-0.0209,0.4293,137.76,108.89,900.94,-238,-419,-125
1512177661,0.0028,-0.0399,0.4378,118.10,112.43,915.28,-238,-419,-125
1512177661,0.0132,-0.0146,0.4221,60.18,209.59,975.22,-238,-419,-125
1512177661,0.0372,-0.0242,0.4181,41.56,152.83,1040.65,-238,-419,-125
1512177661,-0.0132,0.0080,0.4290,71.17,146.00,990.72,-202,-428,-120
1512177661,0.0184,-0.0213,0.4141,126.53,202.64,909.55,-202,-428,-120
1512177661,-0.0318,0.0381,0.4190,91.80,138.92,1026.49,-202,-428,-120
1512177661,-0.0153,0.0526,0.4178,128.60,148.80,1041.38,-202,-428,-120
1512177661,-0.0052,0.0582,0.4237,212.10,165.10,878.17,-202,-428,-120
1512177661,-0.0041,0.0557,0.4222,202.94,83.37,890.62,-203,-444,-115
1512177661,0.0204,0.0514,0.4208,159.85,183.78,953.06,-203,-444,-115
1512177661,0.0277,0.0213,0.4309,123.35,188.60,1115.36,-203,-444,-115
1512177661,0.0258,0.0182,0.4236,132.69,156.49,1075.50,-203,-444,-115
1512177661,0.0798,-0.0019,0.4184,187.62,207.09,956.67,-195,-442,-110
1512177661,0.0843,-0.0161,0.4178,147.95,121.64,972.90,-195,-442,-110
1512177661,0.0441,0.0084,0.4274,70.50,169.56,1053.47,-195,-442,-110
1512177661,0.0011,0.0140,0.4353,52.55,161.62,1073.97,-195,-442,-110
1512177661,0.0587,0.0156,0.4242,41.14,171.08,985.66,-195,-442,-110
1512177661,0.0348,0.0507,0.4185,68.24,166.32,887.02,-191,-442,-86
1512177661,-0.0245,0.0095,0.4210,160.52,117.86,1012.27,-191,-442,-86
1512177661,0.0249,0.0197,0.4253,97.41,134.40,955.20,-191,-442,-86
1512177661,0.0430,0.0439,0.4222,80.81,175.84,1047.85,-191,-442,-86
1512177661,0.0587,0.0075,0.4109,57.62,203.55,979.31,-191,-442,-86
1512177661,0.0553,-0.0027,0.4119,108.03,106.99,1014.53,-172,-437,-128
1512177662,0.0433,-0.0052,0.4248,180.54,193.60,929.44,-172,-437,-128
1512177662,0.0746,-0.0393,0.4192,156.98,84.41,898.74,-172,-437,-128
1512177662,0.0708,-0.0462,0.4196,148.62,85.08,913.33,-172,-437,-128
1512177662,0.0648,-0.0188,0.4225,121.83,125.55,998.05,-156,-442,-110
1512177662,0.0196,0.0080,0.4256,85.33,71.96,1015.62,-156,-442,-110
1512177662,0.0025,-0.0051,0.4362,132.51,69.52,946.47,-156,-442,-110
1512177662,0.0401,-0.0170,0.4205,192.44,18.68,957.34,-156,-442,-110
1512177662,0.0305,0.0313,0.4172,195.19,93.08,1035.28,-156,-442,-110
1512177662,0.0357,0.0493,0.4204,204.96,96.19,1000.79,-158,-437,-88
1512177662,0.0360,0.0550,0.4149,219.30,106.38,997.56,-158,-437,-88
1512177662,0.0278,0.0553,0.4044,221.98,151.61,1048.77,-158,-437,-88
1512177662,0.0020,0.1131,0.4116,103.39,171.57,1069.58,-158,-437,-88
1512177662,-0.0109,0.1550,0.4011,135.25,54.99,1030.46,-158,-437,-88
1512177662,-0.0107,0.1610,0.4115,31.74,88.56,897.46,-158,-451,-94
1512177662,-0.0470,-0.0003,0.4240,99.67,-0.43,901.98,-158,-451,-94
1512177662,0.0314,-0.0265,0.4357,57.50,57.92,860.53,-158,-451,-94
1512177662,0.0285,-0.0406,0.4324,25.88,37.72,865.17,-158,-451,-94
1512177662,0.1016,-0.0806,0.4268,10.01,28.38,878.54,-149,-435,-93
1512177662,0.0690,-0.0936,0.4149,59.57,59.27,777.71,-149,-435,-93
1512177662,0.1096,-0.1111,0.4164,160.03,11.35,896.79,-149,-435,-93
1512177662,0.1145,-0.0778,0.4092,138.06,152.53,985.78,-149,-435,-93
1512177662,-0.0001,-0.0380,0.4293,30.09,134.70,1029.54,-149,-435,-93
1512177662,-0.0035,-0.0644,0.4366,3.30,46.81,1121.22,-128,-449,-86
1512177662,-0.0009,-0.0943,0.3894,-5.55,40.83,983.70,-128,-449,-86
1512177662,-0.0069,-0.1258,0.4144,73.06,115.66,1094.91,-128,-449,-86
1512177662,-0.0136,-0.0965,0.4234,23.68,3.91,999.88,-128,-449,-86
1512177662,-0.0112,-0.0750,0.3816,123.47,24.72,784.48,-119,-451,-118
1512177662,0.0213,-0.0820,0.4133,90.64,70.37,968.08,-119,-451,-118
1512177662,-0.0149,-0.0226,0.4131,149.17,15.93,917.54,-119,-451,-118
1512177662,0.0129,-0.0100,0.4384,102.23,57.92,998.35,-119,-451,-118
1512177662,0.0174,-0.1302,0.3811,240.78,55.18,1048.58,-119,-451,-118
1512177662,0.0427,0.0216,0.4228,151.31,81.12,933.59,-122,-472,-121
1512177662,0.0341,0.0305,0.4080,134.77,55.66,943.60,-122,-472,-121
1512177662,0.0374,0.0192,0.4068,178.77,10.80,1032.90,-122,-472,-121
1512177662,0.0241,0.0072,0.4135,270.45,18.43,1001.34,-122,-472,-121
1512177662,0.0601,-0.0023,0.4053,254.94,20.51,924.44,-122,-472,-121
1512177662,0.0261,0.0289,0.4052,189.94,2.50,983.83,-100,-481,-116
1512177662,0.0374,0.0276,0.4049,197.08,46.81,968.02,-100,-481,-116
1512177663,0.0546,0.0409,0.3988,186.71,-31.92,987.18,-100,-481,-116
1512177663,0.0146,0.0889,0.4008,160.89,19.59,979.92,-100,-481,-116
1512177663,0.0386,0.0658,0.4011,66.77,-8.42,1064.45,-96,-456,-106
1512177663,0.0395,0.0529,0.4003,81.73,42.60,1019.17,-96,-456,-106
1512177663,0.0449,0.0433,0.3933,58.41,38.39,988.71,-96,-456,-106
1512177663,0.0296,0.0490,0.4016,64.27,-7.75,1042.66,-96,-456,-106
1512177663,0.0065,0.0479,0.3984,203.80,119.26,1076.29,-96,-456,-106
1512177663,0.0381,0.0546,0.3891,121.95,5.07,1132.45,-79,-474,-120
1512177663,0.1041,0.0941,0.3423,66.10,167.97,972.47,-79,-474,-120
1512177663,0.0668,0.1322,0.3715,137.02,17.21,964.29,-79,-474,-120
1512177663,0.0644,0.0993,0.3617,39.12,-46.14,910.71,-79,-474,-120
1512177663,0.0438,0.0573,0.3851,9.52,24.05,878.78,-79,-474,-120
1512177663,0.0250,0.0189,0.3992,62.81,-89.54,1036.19,-66,-465,-118
1512177663,-0.0174,0.0313,0.3868,112.55,63.23,906.56,-66,-465,-118
1512177663,0.0129,-0.0036,0.3723,41.75,20.87,947.88,-66,-465,-118
1512177663,-0.0345,0.0357,0.3811,78.43,28.56,1011.35,-66,-465,-118
1512177663,-0.0937,0.0213,0.3980,89.66,-4.21,1002.32,-75,-463,-106
1512177663,-0.0250,-0.0256,0.3997,93.02,-33.51,1005.86,-75,-463,-106
1512177663,-0.0675,0.0120,0.3715,65.67,41.32,978.88,-75,-463,-106
1512177663,-0.0862,0.0156,0.3718,46.63,0.06,1087.52,-75,-463,-106
1512177663,-0.0530,0.0009,0.3622,-1.10,-3.48,1052.73,-75,-463,-106
1512177663,-0.0443,-0.0047,0.3618,77.51,25.21,1029.48,-65,-467,-106
1512177663,-0.0365,-0.0095,0.3603,82.28,-50.84,1047.61,-65,-467,-106
1512177663,-0.0324,-0.0136,0.3481,114.01,-23.07,1045.78,-65,-467,-106
1512177663,-0.0413,-0.0119,0.3437,107.73,-25.21,977.48,-65,-467,-106
1512177663,-0.0250,-0.0048,0.3483,152.22,-4.70,1044.62,-65,-467,-106
1512177663,-0.0228,-0.0286,0.3546,114.26,3.23,1091.55,-43,-467,-106
1512177663,-0.0076,-0.0465,0.3466,133.30,-8.00,1093.20,-43,-467,-106
1512177663,0.0338,-0.0466,0.3559,127.56,-48.03,1007.87,-43,-467,-106
1512177663,0.0443,-0.0463,0.3581,112.37,-73.00,978.39,-43,-467,-106
1512177663,0.0313,-0.0097,0.3455,123.60,-36.44,987.55,-43,-456,-103
1512177663,-0.0312,0.0121,0.3401,160.71,-34.67,1046.88,-43,-456,-103
1512177663,-0.0594,0.0161,0.3245,179.93,-67.99,962.04,-43,-456,-103
1512177663,-0.0166,0.0188,0.3216,114.14,-37.66,1009.77,-43,-456,-103
1512177663,0.0196,-0.0397,0.3192,88.75,-68.48,1050.78,-43,-456,-103
1512177663,-0.0196,0.0376,0.3213,141.91,-44.01,1022.22,-35,-454,-115
1512177663,-0.0162,0.0313,0.3208,147.40,-65.43,1022.89,-35,-454,-115
1512177663,-0.0142,0.0268,0.3282,147.09,-88.93,895.57,-35,-454,-115
1512177664,-0.0132,0.0342,0.3240,134.52,-43.40,956.73,-35,-454,-115
1512177664,-0.0124,0.0218,0.3193,180.66,-50.11,1028.44,-35,-454,-115
1512177664,-0.0071,0.0249,0.3210,112.00,-123.05,1022.83,-19,-456,-130
1512177664,-0.0284,0.0370,0.3061,141.60,-120.30,963.99,-19,-456,-130
1512177664,-0.0117,0.0316,0.3007,106.38,-80.51,949.34,-19,-456,-130
1512177664,-0.0166,0.0530,0.3059,97.23,-111.45,1026.00,-19,-456,-130
1512177664,-0.0020,0.0603,0.3009,151.18,-55.66,1003.97,-14,-437,-91
1512177664,0.0161,0.0543,0.2932,163.27,-86.12,952.88,-14,-437,-91
1512177664,-0.0161,0.0609,0.2894,164.92,-115.48,964.54,-14,-437,-91
1512177664,-0.0232,0.0655,0.2723,158.20,-82.03,972.66,-14,-437,-91
1512177664,-0.0232,0.0654,0.2698,101.75,-95.89,981.57,-14,-437,-91
1512177664,-0.0197,0.0434,0.2696,104.55,-133.18,1059.51,-21,-433,-111
1512177664,0.0170,0.0141,0.2674,80.99,-89.66,1080.93,-21,-433,-111
1512177664,-0.0108,0.0577,0.2535,87.10,-89.29,1032.53,-21,-433,-111
1512177664,-0.0057,0.0533,0.2202,104.13,-88.62,936.10,-21,-433,-111
1512177664,0.0065,0.0582,0.2306,-90.27,-69.76,1038.82,-3,-416,-77
1512177664,0.0036,0.0631,0.2397,64.27,-91.55,1026.86,-3,-416,-77
1512177664,-0.0301,0.0589,0.2332,44.43,-82.89,1043.58,-3,-416,-77
1512177664,-0.0478,0.0551,0.2220,35.34,-119.26,1016.72,-3,-416,-77
1512177664,0.0128,0.0153,0.2139,24.29,-100.16,985.96,-3,-416,-77
1512177664,0.0111,0.0266,0.1984,34.48,-77.58,971.01,5,-410,-89
1512177664,0.0001,0.0236,0.2100,30.15,-82.95,1001.89,5,-410,-89
1512177664,-0.0313,0.0222,0.2131,33.63,-96.74,995.06,5,-410,-89
1512177664,0.0316,-0.0169,0.2068,33.33,-54.63,976.44,5,-410,-89
1512177664,0.0350,-0.0156,0.2057,38.39,-68.05,894.96,5,-410,-89
1512177664,0.0290,-0.0269,0.1874,41.93,-63.72,969.60,24,-412,-81
1512177664,-0.0605,0.0052,0.1815,119.75,-124.94,982.85,24,-412,-81
1512177664,-0.0391,0.0013,0.1743,65.06,-89.11,1071.11,24,-412,-81
1512177664,-0.0245,0.0204,0.1642,66.89,-42.48,973.75,24,-412,-81
1512177664,-0.0333,0.0248,0.1683,22.95,-93.38,1113.71,17,-398,-67
1512177664,-0.0289,0.0421,0.1489,26.49,-107.73,870.42,17,-398,-67
1512177664,-0.0145,0.0542,0.1505,73.30,-78.61,1088.68,17,-398,-67
1512177664,-0.0166,0.0459,0.1486,72.39,-118.10,973.14,17,-398,-67
1512177664,-0.0120,0.0483,0.1469,51.88,-105.10,1045.17,17,-398,-67
1512177664,-0.0240,0.0487,0.1487,44.80,-152.22,1039.25,21,-419,-81
1512177664,-0.0149,0.0264,0.1423,-27.40,-89.48,995.30,21,-419,-81
1512177664,0.0165,0.0330,0.1563,-66.04,-77.39,1046.08,21,-419,-81
1512177664,-0.0087,0.0454,0.1574,47.97,-45.96,1033.26,21,-419,-81
1512177665,-0.0469,0.0646,0.1360,66.04,-107.48,1064.82,21,-419,-81
1512177665,-0.0538,0.0854,0.1422,-99.79,-134.03,1090.33,31,-401,-77
1512177665,-0.0383,0.0563,0.1190,75.07,-86.91,1002.93,31,-401,-77
1512177665,-0.0174,0.0284,0.1129,-8.79,-87.10,1001.89,31,-401,-77
1512177665,-0.0495,0.0535,0.1025,24.72,-103.39,1087.83,31,-401,-77
1512177665,-0.0605,0.0791,0.0908,-11.11,-88.26,1005.19,45,-405,-81
1512177665,-0.0570,0.0798,0.1023,-46.75,-129.27,1040.41,45,-405,-81
1512177665,-0.0538,0.0675,0.1068,24.78,-61.46,992.13,45,-405,-81
1512177665,-0.0027,0.0354,0.0928,-57.56,-41.02,1004.52,45,-405,-81
1512177665,-0.0326,0.0593,0.1076,24.35,-61.04,951.29,45,-405,-81
1512177665,-0.0421,0.0659,0.0985,-79.28,40.34,1154.72,42,-391,-74
1512177665,-0.0465,0.0578,0.0884,-28.26,-6.53,1008.48,42,-391,-74
1512177665,0.0154,0.0134,0.0912,40.53,-73.85,1097.05,42,-391,-74
1512177665,0.0157,0.0401,0.0507,-94.60,-52.31,996.58,42,-391,-74
1512177665,-0.0244,0.0233,0.0426,-75.62,-121.77,994.45,42,-391,-74
1512177665,-0.0284,0.0422,0.0477,-45.72,-73.43,994.20,43,-386,-69
1512177665,0.0230,0.0200,0.0286,-50.96,28.75,1055.85,43,-386,-69
1512177665,0.0095,0.0354,0.0457,7.20,-97.47,979.61,43,-386,-69
1512177665,-0.0381,0.0754,0.0001,-55.97,93.51,927.98,43,-386,-69
1512177665,0.0011,0.0337,0.0296,-19.59,15.32,1050.78,35,-380,-74
1512177665,0.0158,0.0446,0.0617,-60.00,-46.69,947.81,35,-380,-74
1512177665,0.0129,0.0290,0.0429,-44.62,21.42,964.23,35,-380,-74
1512177665,0.0232,-0.0081,0.0491,-81.85,-16.11,1059.69,35,-380,-74
1512177665,0.0314,0.0085,0.0353,-22.71,40.28,1018.80,35,-380,-74
1512177665,0.0308,0.0164,0.0130,-103.45,-34.79,992.68,49,-380,-74
1512177665,0.0526,0.0390,0.0077,-71.90,13.98,1013.98,49,-380,-74
1512177665,0.0341,0.0333,-0.0028,-30.40,23.99,985.60,49,-380,-74
1512177665,0.0357,0.0475,-0.0073,-17.21,-40.65,1014.53,49,-380,-74
1512177665,0.0397,0.0493,-0.0134,-11.90,48.71,948.00,43,-379,-66
1512177665,0.0415,0.0254,-0.0061,-73.24,23.50,969.79,43,-379,-66
1512177665,0.0433,0.0445,0.0142,-57.80,-56.46,997.92,43,-379,-66
1512177665,0.0419,0.0381,-0.0080,-39.00,30.03,1054.38,43,-379,-66
1512177665,0.0109,0.0166,-0.0173,-19.35,37.60,937.93,43,-379,-66
1512177665,0.0272,0.0212,-0.0168,-172.18,-10.68,1049.80,49,-377,-64
1512177665,0.0290,0.0208,-0.0304,-82.03,28.93,968.63,49,-377,-64
1512177665,0.0150,0.0029,-0.0276,-58.78,-1.10,959.84,49,-377,-64
1512177665,0.0310,0.0113,-0.0321,-106.57,16.97,976.62,49,-377,-64
1512177665,0.0354,0.0116,-0.0377,-77.70,64.39,977.17,49,-377,-64
1512177666,0.0341,0.0127,-0.0422,-113.46,23.19,1065.55,42,-391,-64
1512177666,0.0308,0.0073,-0.0458,-77.09,41.14,965.94,42,-391,-64
1512177666,0.0222,0.0112,-0.0467,-83.31,37.60,1067.08,42,-391,-64
1512177666,0.0308,0.0196,-0.0450,-132.32,29.85,1017.64,42,-391,-64
1512177666,0.0346,0.0192,-0.0487,-110.72,53.83,982.06,38,-380,-54
1512177666,0.0232,-0.0029,-0.0463,-56.70,53.41,1008.48,38,-380,-54
1512177666,0.0348,-0.0007,-0.0459,-84.78,48.34,998.78,38,-380,-54
1512177666,0.0426,-0.0033,-0.0439,-91.67,65.43,993.53,38,-380,-54
1512177666,0.0401,-0.0001,-0.0462,-94.73,57.98,959.11,38,-380,-54
1512177666,0.0366,-0.0076,-0.0507,-114.93,49.68,1010.74,40,-393,-45
1512177666,0.0390,-0.0003,-0.0579,-88.50,30.52,945.01,40,-393,-45
1512177666,0.0376,-0.0071,-0.0651,-99.61,14.95,1051.03,40,-393,-45
1512177666,0.0370,-0.0069,-0.0770,-90.82,92.77,996.52,40,-393,-45
1512177666,0.0321,-0.0035,-0.0627,-140.56,73.67,997.80,40,-393,-45
1512177666,0.0450,-0.0011,-0.0726,-98.02,63.29,982.06,52,-380,-54
1512177666,0.0366,-0.0136,-0.0671,-92.71,40.95,905.82,52,-380,-54
1512177666,0.0406,0.0049,-0.0796,-120.42,47.06,1009.40,52,-380,-54
1512177666,0.0346,-0.0059,-0.0915,-115.30,67.99,960.08,52,-380,-54
1512177666,0.0226,-0.0184,-0.0925,-96.31,49.93,929.63,42,-370,-44
1512177666,0.0236,-0.0007,-0.0915,-116.39,75.56,965.27,42,-370,-44
1512177666,0.0115,-0.0016,-0.0835,-96.68,81.05,953.49,42,-370,-44
1512177666,0.0119,-0.0144,-0.0937,-129.88,83.25,1015.44,42,-370,-44
1512177666,-0.0063,-0.0358,-0.1007,-143.86,72.75,959.05,42,-370,-44
1512177666,-0.0053,-0.0389,-0.1040,-112.73,67.14,956.73,49,-384,-44
1512177666,0.0149,-0.0142,-0.1091,-94.85,35.71,969.73,49,-384,-44
1512177666,0.0248,-0.0004,-0.1129,-88.26,44.86,970.76,49,-384,-44
1512177666,0.0273,0.0117,-0.1146,-91.49,76.78,1071.96,49,-384,-44
1512177666,0.0063,-0.0266,-0.1158,-50.48,37.11,990.97,49,-384,-44
1512177666,-0.0096,-0.0411,-0.1104,-98.21,59.69,928.34,42,-387,-50
1512177666,0.0100,-0.0142,-0.1136,-90.64,43.70,977.60,42,-387,-50
1512177666,0.0063,-0.0265,-0.1107,-88.68,31.49,972.60,42,-387,-50
1512177666,-0.0008,-0.0266,-0.1101,-117.31,47.55,952.51,42,-387,-50
1512177666,0.0031,-0.0152,-0.1096,-61.77,45.72,1009.83,28,-409,-37
1512177666,-0.0028,-0.0188,-0.1113,-64.58,34.61,962.59,28,-409,-37
1512177666,-0.0065,-0.0306,-0.1135,-109.25,36.25,996.89,28,-409,-37
1512177666,0.0080,-0.0325,-0.1092,-122.74,41.02,988.28,28,-409,-37
1512177666,0.0028,-0.0309,-0.1089,-156.31,67.75,917.85,28,-409,-37
1512177666,0.0057,-0.0261,-0.1150,-112.49,41.56,933.72,33,-393,-45
1512177667,0.0180,-0.0156,-0.1119,-127.93,37.29,1020.81,33,-393,-45
1512177667,0.0100,-0.0268,-0.1160,-79.35,51.94,979.43,33,-393,-45
1512177667,0.0115,-0.0189,-0.1196,-95.70,56.09,954.59,33,-393,-45
1512177667,0.0240,-0.0053,-0.1260,-99.06,61.71,1002.69,33,-393,-45
1512177667,0.0325,-0.0099,-0.1265,-112.67,50.66,1049.32,28,-380,-50
1512177667,0.0288,-0.0124,-0.1252,-104.06,30.94,1022.52,28,-380,-50
1512177667,0.0150,-0.0337,-0.1294,-91.13,51.27,979.13,28,-380,-50
1512177667,0.0254,-0.0188,-0.1336,-118.77,46.26,1005.19,28,-380,-50
1512177667,0.0097,-0.0237,-0.1280,-79.47,57.19,987.85,12,-382,-22
1512177667,-0.0105,-0.0605,-0.1180,-89.42,43.88,1004.64,12,-382,-22
1512177667,-0.0021,-0.0210,-0.1358,-112.49,51.82,1018.07,12,-382,-22
1512177667,-0.0150,-0.0214,-0.1486,-122.31,51.27,1028.56,12,-382,-22
1512177667,-0.0172,-0.0095,-0.1547,-104.61,24.84,998.90,12,-382,-22
1512177667,-0.0272,-0.0004,-0.1513,-57.62,26.06,962.34,17,-394,-13
1512177667,-0.0316,-0.0016,-0.1506,-121.15,7.81,986.27,17,-394,-13
1512177667,-0.0169,-0.0060,-0.1551,-140.14,48.95,999.69,17,-394,-13
1512177667,-0.0140,-0.0232,-0.1518,-145.20,59.94,1019.35,17,-394,-13
1512177667,0.0008,-0.0145,-0.1513,-122.01,55.24,948.43,17,-394,-13
1512177667,0.0063,-0.0075,-0.1478,-136.54,47.24,1002.32,40,-403,1
1512177667,0.0043,-0.0317,-0.1527,-135.13,78.31,1008.12,40,-403,1
1512177667,-0.0020,-0.0405,-0.1473,-130.80,43.15,985.11,40,-403,1
1512177667,-0.0031,-0.0372,-0.1510,-140.01,57.56,983.40,40,-403,1
1512177667,-0.0116,-0.0300,-0.1570,-92.10,46.51,982.06,43,-403,-1
1512177667,-0.0162,-0.0160,-0.1590,-32.84,31.13,972.11,43,-403,-1
1512177667,-0.0278,-0.0208,-0.1660,-4.15,41.63,975.71,43,-403,-1
1512177667,-0.0180,-0.0065,-0.1597,-105.90,41.50,1007.75,43,-403,-1
1512177667,-0.0120,-0.0077,-0.1595,-95.15,81.73,1007.69,43,-403,-1
1512177667,0.0047,-0.0003,-0.1591,-111.15,26.00,1045.04,47,-403,-18
1512177667,-0.0057,-0.0003,-0.1543,-109.37,33.94,942.14,47,-403,-18
1512177667,-0.0035,-0.0045,-0.1546,-87.22,44.31,927.67,47,-403,-18
1512177667,0.0020,-0.0033,-0.1514,-125.67,31.98,1020.94,47,-403,-18
1512177667,-0.0013,-0.0383,-0.1447,-86.49,66.83,1056.58,38,-398,-10
1512177667,0.0047,-0.0206,-0.1491,-87.52,43.21,985.60,38,-398,-10
1512177667,0.0148,-0.0009,-0.1578,-85.63,33.51,985.29,38,-398,-10
1512177667,0.0257,0.0136,-0.1613,-86.98,67.75,1049.44,38,-398,-10
1512177667,0.0258,0.0028,-0.1682,-47.12,34.00,1077.70,38,-398,-10
1512177667,0.0297,0.0011,-0.1751,-76.78,13.92,1057.86,17,-391,-23
1512177668,0.0450,0.0306,-0.1778,-99.12,52.55,1032.04,17,-391,-23
1512177668,0.0344,0.0228,-0.1771,-110.41,76.42,973.39,17,-391,-23
1512177668,0.0281,0.0252,-0.1696,-191.47,64.45,1009.22,17,-391,-23
1512177668,0.0134,-0.0045,-0.1615,-160.40,62.01,934.33,17,-391,-23
1512177668,-0.0124,-0.0180,-0.1553,-136.29,50.90,1015.32,29,-396,-15
1512177668,-0.0032,-0.0214,-0.1631,-191.47,36.01,1001.28,29,-396,-15
1512177668,0.0089,-0.0023,-0.1518,-216.55,60.00,1043.88,29,-396,-15
1512177668,0.0096,0.0019,-0.1888,-178.28,117.55,993.41,29,-396,-15
1512177668,-0.0149,-0.0196,-0.2004,-188.23,51.33,1092.53,17,-387,20
1512177668,0.0028,-0.0148,-0.2108,-204.35,64.21,976.26,17,-387,20
1512177668,0.0037,-0.0154,-0.2184,-118.16,79.41,934.94,17,-387,20
1512177668,-0.0077,-0.0181,-0.2213,-190.49,42.97,992.49,17,-387,20
1512177668,-0.0111,-0.0069,-0.2266,-159.12,57.31,1019.23,17,-387,20
1512177668,-0.0153,-0.0108,-0.2296,-190.92,36.07,973.45,26,-386,-8
1512177668,-0.0055,-0.0043,-0.2381,-128.23,57.92,960.39,26,-386,-8
1512177668,-0.0107,-0.0100,-0.2405,-175.96,35.46,1051.39,26,-386,-8
1512177668,0.0017,-0.0250,-0.2425,-185.18,59.75,941.22,26,-386,-8
1512177668,-0.0016,-0.0290,-0.2415,-180.05,35.34,941.04,26,-386,-8
1512177668,-0.0077,-0.0236,-0.2457,-129.21,35.22,994.69,17,-384,3
1512177668,0.0027,-0.0123,-0.2511,-126.71,47.42,1024.48,17,-384,3
1512177668,-0.0076,-0.0185,-0.2526,-98.14,39.55,990.72,17,-384,3
1512177668,-0.0072,-0.0176,-0.2503,-91.19,41.56,990.23,17,-384,3
1512177668,-0.0192,-0.0087,-0.2551,-97.84,6.96,1041.26,22,-403,-8
1512177668,-0.0216,-0.0087,-0.2535,-185.79,56.52,1076.48,22,-403,-8
1512177668,-0.0209,-0.0083,-0.2521,-221.19,16.17,1098.14,22,-403,-8
1512177668,-0.0192,-0.0124,-0.2479,-160.10,63.72,1041.99,22,-403,-8
1512177668,-0.0045,-0.0080,-0.2413,-213.99,43.70,989.81,22,-403,-8
1512177668,-0.0138,-0.0064,-0.2390,-213.07,66.04,981.02,3,-398,-13
1512177668,-0.0146,-0.0124,-0.2453,-111.27,31.25,952.76,3,-398,-13
1512177668,-0.0250,-0.0178,-0.2425,-155.40,8.12,1012.88,3,-398,-13
1512177668,-0.0276,-0.0189,-0.2425,-161.50,50.17,923.34,3,-398,-13
1512177668,-0.0429,-0.0209,-0.2490,-135.99,18.62,982.42,0,-405,-13
1512177668,-0.0306,-0.0166,-0.2482,-145.26,22.22,979.68,0,-405,-13
1512177668,-0.0237,-0.0045,-0.2418,-190.92,54.44,992.55,0,-405,-13
1512177668,-0.0330,-0.0023,-0.2463,-127.08,16.85,983.09,0,-405,-13
1512177668,-0.0446,-0.0013,-0.2506,-116.27,25.15,1071.23,0,-405,-13
1512177668,-0.0293,-0.0043,-0.2469,-173.77,50.23,1034.06,-15,-403,1
1512177668,-0.0391,-0.0027,-0.2497,-165.47,19.53,1042.42,-15,-403,1
1512177669,-0.0445,-0.0007,-0.2467,-157.71,36.32,946.53,-15,-403,1
1512177669,-0.0419,0.0127,-0.2478,-225.52,61.40,1004.03,-15,-403,1
1512177669,-0.0305,0.0411,-0.2535,-144.53,24.78,1040.59,-15,-403,1
1512177669,-0.0232,0.0643,-0.2499,-151.79,-6.59,1021.91,-12,-396,1
1512177669,-0.0601,0.0276,-0.2463,-144.04,17.70,936.22,-12,-396,1
1512177669,-0.0381,0.0531,-0.2523,-85.45,-7.14,1013.43,-12,-396,1
1512177669,-0.0501,0.0353,-0.2562,-80.20,18.68,1069.27,-12,-396,1
1512177669,-0.0089,0.0563,-0.2486,-136.47,18.74,1106.75,-3,-398,-13
1512177669,-0.0213,0.0218,-0.2393,-175.35,-5.43,991.88,-3,-398,-13
1512177669,-0.0140,0.0182,-0.2366,-143.25,9.58,1007.87,-3,-398,-13
1512177669,0.0001,0.0132,-0.2310,-174.87,19.29,1004.94,-3,-398,-13
1512177669,-0.0208,-0.0173,-0.2411,-173.71,-2.32,1027.59,-3,-398,-13
1512177669,-0.0169,-0.0197,-0.2402,-143.49,-0.98,1003.91,-22,-407,-1
1512177669,-0.0071,-0.0052,-0.2366,-158.63,2.26,1002.08,-22,-407,-1
1512177669,-0.0077,0.0043,-0.2380,-96.07,-17.82,971.25,-22,-407,-1
1512177669,-0.0185,-0.0032,-0.2392,-132.32,10.01,1034.18,-22,-407,-1
1512177669,-0.0190,-0.0109,-0.2364,-143.98,-19.53,976.93,-22,-407,-1
1512177669,-0.0097,-0.0154,-0.2326,-159.12,21.30,971.25,-28,-405,3
1512177669,-0.0202,-0.0128,-0.2360,-100.34,24.05,976.93,-28,-405,3
1512177669,-0.0173,0.0087,-0.2364,-137.27,-5.80,1013.31,-28,-405,3
1512177669,-0.0092,0.0129,-0.2358,-76.60,15.32,1035.34,-28,-405,3
1512177669,-0.0057,0.0091,-0.2333,-136.29,-16.78,1015.44,-42,-401,-3
1512177669,0.0093,0.0245,-0.2282,-171.81,23.38,961.12,-42,-401,-3
1512177669,0.0156,0.0100,-0.2241,-132.87,41.63,965.39,-42,-401,-3
1512177669,0.0080,0.0011,-0.2234,-176.33,20.94,952.58,-42,-401,-3
1512177669,-0.0168,0.0089,-0.2264,-215.94,23.32,1003.36,-42,-401,-3
1512177669,-0.0100,0.0208,-0.2302,-157.65,-16.42,980.22,-43,-407,-5
1512177669,0.0032,0.0176,-0.2326,-93.63,-46.39,985.84,-43,-407,-5
1512177669,0.0065,0.0170,-0.2305,-149.54,32.47,996.28,-43,-407,-5
1512177669,0.0035,0.0043,-0.2274,-132.08,-49.62,1034.42,-43,-407,-5
1512177669,0.0242,0.0104,-0.2245,-176.03,3.30,940.25,-43,-407,-5
1512177669,0.0165,0.0005,-0.2135,-208.37,-11.23,957.03,-50,-414,-1
1512177669,0.0257,-0.0019,-0.2063,-104.06,29.36,1056.52,-50,-414,-1
1512177669,0.0273,-0.0047,-0.2007,-132.87,42.54,980.77,-50,-414,-1
1512177669,0.0200,-0.0209,-0.2031,-110.41,10.99,1001.04,-50,-414,-1
1512177669,0.0226,-0.0224,-0.2020,-134.09,41.81,990.97,-59,-394,-3
1512177669,0.0200,-0.0061,-0.1981,-82.70,36.32,1011.23,-59,-394,-3
1512177669,0.0218,-0.0130,-0.1980,-126.16,50.35,968.20,-59,-394,-3
1512177670,0.0103,-0.0316,-0.1929,-103.82,27.04,1067.20,-59,-394,-3
1512177670,0.0149,-0.0314,-0.1941,-94.30,34.48,942.50,-59,-394,-3
1512177670,0.0112,-0.0069,-0.1868,-132.57,15.81,982.12,-75,-410,1
1512177670,0.0109,0.0043,-0.1851,-140.08,18.43,934.14,-75,-410,1
1512177670,0.0023,0.0095,-0.1848,-94.30,25.82,991.27,-75,-410,1
1512177670,0.0088,0.0166,-0.1828,-69.58,-3.85,979.06,-75,-410,1
1512177670,0.0015,0.0009,-0.1814,-71.17,50.96,1000.43,-75,-410,1
1512177670,0.0111,-0.0007,-0.1694,-124.69,60.85,988.65,-65,-421,-11
1512177670,0.0221,0.0016,-0.1642,-147.28,19.78,1056.52,-65,-421,-11
1512177670,0.0049,-0.0081,-0.1591,-179.63,73.91,1008.00,-65,-421,-11
1512177670,-0.0043,0.0017,-0.1587,-101.62,19.17,1015.44,-65,-421,-11
1512177670,-0.0035,-0.0149,-0.1510,-144.23,29.91,999.27,-68,-417,1
1512177670,0.0005,-0.0051,-0.1479,-129.76,83.86,878.11,-68,-417,1
1512177670,-0.0246,-0.0190,-0.1466,-86.49,37.60,1056.21,-68,-417,1
1512177670,-0.0212,-0.0281,-0.1399,-107.79,71.96,996.58,-68,-417,1
1512177670,-0.0376,-0.0402,-0.1334,-93.08,41.02,1099.00,-68,-417,1
1512177670,-0.0103,-0.0290,-0.1285,-89.90,49.99,1037.29,-80,-419,-6
1512177670,0.0052,-0.0288,-0.1220,-87.04,17.94,868.04,-80,-419,-6
1512177670,0.0348,-0.0599,-0.1290,-120.00,146.91,1053.41,-80,-419,-6
1512177670,-0.0009,-0.0511,-0.0897,-77.88,-22.64,954.83,-80,-419,-6
1512177670,-0.0059,-0.0391,-0.1015,-19.59,95.64,973.51,-80,-419,-6
1512177670,-0.0206,-0.0132,-0.1047,5.98,-2.38,1024.48,-79,-424,-11
1512177670,-0.0107,0.0096,-0.1104,61.28,31.13,955.51,-79,-424,-11
1512177670,-0.0442,-0.0610,-0.0810,80.51,-8.18,1102.97,-79,-424,-11
1512177670,-0.0317,0.0075,-0.0308,48.58,-44.19,1113.22,-79,-424,-11
1512177670,-0.0329,0.0443,-0.0722,-26.25,27.10,964.36,-84,-437,-10
1512177670,-0.0172,0.0130,-0.0816,-41.08,-50.29,929.38,-84,-437,-10
1512177670,-0.0254,-0.0301,-0.0585,13.18,31.25,1060.79,-84,-437,-10
1512177670,-0.0216,-0.0001,-0.0358,47.42,52.31,937.50,-84,-437,-10
1512177670,-0.0077,0.0324,-0.0330,-29.91,56.40,905.88,-84,-437,-10
1512177670,-0.0116,0.0387,-0.0298,32.90,69.09,1090.64,-82,-403,-11
1512177670,-0.0250,0.0538,-0.0260,21.42,56.64,1022.77,-82,-403,-11
1512177670,-0.0286,0.0292,-0.0165,30.58,33.75,1034.42,-82,-403,-11
1512177670,-0.0305,0.0306,-0.0081,-21.55,37.66,1044.56,-82,-403,-11
1512177670,-0.0216,0.0334,-0.0001,-31.43,22.64,1052.49,-82,-403,-11
1512177670,-0.0209,0.0270,0.0123,-2.08,20.20,970.89,-84,-412,-3
1512177670,-0.0261,0.0217,0.0222,23.62,38.51,961.67,-84,-412,-3
1512177670,-0.0192,0.0104,0.0313,27.77,36.01,992.37,-84,-412,-3
1512177671,-0.0123,0.0081,0.0373,-3.91,37.35,979.49,-84,-412,-3
1512177671,-0.0097,-0.0020,0.0381,28.26,1.59,1004.94,-96,-410,1
1512177671,-0.0273,-0.0398,0.0475,-53.65,33.08,912.60,-96,-410,1
1512177671,-0.0377,-0.0413,0.0570,-37.48,-30.88,1074.16,-96,-410,1
1512177671,-0.0285,0.0077,0.0738,11.47,140.87,931.70,-96,-410,1
1512177671,-0.0121,0.0294,0.0593,-4.39,-48.40,1105.29,-96,-410,1
1512177671,0.0049,0.0317,0.0523,-41.56,103.33,884.40,-84,-401,-10
1512177671,-0.0297,-0.0192,0.0739,-7.39,11.72,918.27,-84,-401,-10
1512177671,0.0064,0.0261,0.0764,-10.74,43.76,1016.60,-84,-401,-10
1512177671,-0.0031,0.0313,0.0867,19.35,96.62,903.44,-84,-401,-10
1512177671,0.0081,0.0278,0.0831,-31.68,-33.51,1002.01,-84,-401,-10
1512177671,-0.0015,-0.0320,0.0940,-10.62,82.15,924.01,-70,-405,-10
1512177671,0.0016,-0.0325,0.1079,-5.13,-14.59,979.13,-70,-405,-10
1512177671,0.0087,0.0008,0.1190,20.94,77.70,987.98,-70,-405,-10
1512177671,-0.0040,0.0007,0.1162,45.59,31.49,998.96,-70,-405,-10
1512177671,0.0072,0.0021,0.1273,24.66,-43.52,994.93,-84,-405,-3
1512177671,0.0059,0.0052,0.1093,58.90,58.11,968.02,-84,-405,-3
1512177671,0.0031,-0.0052,0.1111,58.53,-20.69,1009.16,-84,-405,-3
1512177671,0.0040,0.0077,0.1194,47.30,27.65,1037.35,-84,-405,-3
1512177671,0.0072,0.0346,0.1222,62.44,61.65,1030.27,-84,-405,-3
1512177671,-0.0099,0.0397,0.1322,116.58,37.17,1024.41,-68,-410,1
1512177671,-0.0039,0.0479,0.1414,107.30,7.14,1066.71,-68,-410,1
1512177671,-0.0224,0.0305,0.1530,90.45,71.59,1002.69,-68,-410,1
1512177671,-0.0292,-0.0095,0.1611,105.10,0.31,957.40,-68,-410,1
1512177671,-0.0246,-0.0149,0.1674,32.78,39.25,979.49,-86,-410,1
1512177671,-0.0129,-0.0144,0.1762,14.53,45.04,959.11,-86,-410,1
1512177671,-0.0027,0.0073,0.1726,72.69,26.25,1084.90,-86,-410,1
1512177671,-0.0088,-0.0017,0.1772,-23.25,33.63,899.17,-86,-410,1
1512177671,-0.0071,-0.0220,0.1788,-23.68,16.05,995.36,-86,-410,1
1512177671,-0.0108,-0.0284,0.1806,10.99,21.61,961.24,-73,-391,-6
1512177671,-0.0091,-0.0152,0.1802,9.95,25.70,986.02,-73,-391,-6
1512177671,0.0108,0.0113,0.1807,28.20,10.50,1034.73,-73,-391,-6
1512177671,0.0093,-0.0021,0.1856,83.13,32.29,951.17,-73,-391,-6
1512177671,0.0076,-0.0052,0.1945,41.99,25.15,954.65,-73,-391,-6
1512177671,0.0028,-0.0091,0.1996,89.97,5.25,971.07,-66,-405,-10
1512177671,0.0039,-0.0193,0.2096,103.09,39.61,956.42,-66,-405,-10
1512177671,0.0007,-0.0044,0.2109,97.47,-1.65,1059.45,-66,-405,-10
1512177671,0.0023,0.0059,0.2156,106.08,54.14,1028.75,-66,-405,-10
1512177672,0.0037,-0.0119,0.2212,62.87,22.16,988.34,-61,-407,-1
1512177672,0.0079,-0.0134,0.2220,115.91,1.95,1045.23,-61,-407,-1
1512177672,0.0109,-0.0076,0.2281,69.03,25.27,979.98,-61,-407,-1
1512177672,0.0073,0.0160,0.2286,91.92,32.10,1014.83,-61,-407,-1
1512177672,0.0172,0.0329,0.2310,71.35,32.35,1099.55,-61,-407,-1
1512177672,0.0246,0.0264,0.2360,77.33,46.45,1031.80,-57,-389,5
1512177672,0.0270,0.0162,0.2418,135.86,3.66,995.85,-57,-389,5
1512177672,0.0292,0.0127,0.2421,90.45,30.52,930.85,-57,-389,5
1512177672,0.0264,0.0252,0.2377,37.41,-23.07,1019.96,-57,-389,5
1512177672,0.0262,0.0123,0.2459,31.86,-5.74,1026.00,-57,-389,5
1512177672,0.0345,0.0055,0.2505,64.21,-6.23,952.82,-49,-394,-10
1512177672,0.0273,0.0019,0.2561,42.11,21.36,1016.48,-49,-394,-10
1512177672,0.0192,-0.0092,0.2547,81.60,5.98,948.30,-49,-394,-10
1512177672,0.0265,-0.0071,0.2518,38.51,37.41,998.47,-49,-394,-10
1512177672,0.0142,-0.0237,0.2586,18.92,15.87,1062.93,-29,-396,1
1512177672,0.0052,-0.0398,0.2606,-9.40,18.62,1033.81,-29,-396,1
1512177672,0.0109,-0.0240,0.2672,-20.94,14.47,1062.44,-29,-396,1
1512177672,0.0178,-0.0177,0.2720,-17.94,26.98,1056.88,-29,-396,1
1512177672,0.0310,-0.0041,0.2763,71.47,-3.54,942.50,-29,-396,1
1512177672,0.0180,-0.0112,0.2819,91.00,32.65,982.73,-29,-389,-1
1512177672,0.0125,-0.0391,0.2916,120.12,8.18,991.21,-29,-389,-1
1512177672,0.0228,-0.0594,0.2981,154.60,44.07,1054.75,-29,-389,-1
1512177672,0.0198,-0.0168,0.2995,148.19,9.52,934.69,-29,-389,-1
1512177672,0.0023,-0.0185,0.2832,156.13,7.63,893.43,-29,-389,-1
1512177672,0.0127,-0.0250,0.2995,99.12,16.11,943.30,-29,-396,-22
1512177672,0.0117,-0.0350,0.2988,94.79,25.09,1031.80,-29,-396,-22
1512177672,0.0145,-0.0321,0.3008,96.68,27.47,1080.38,-29,-396,-22
1512177672,0.0015,-0.0294,0.2997,64.09,34.12,1036.13,-29,-396,-22
1512177672,-0.0076,-0.0507,0.2971,186.46,51.21,981.38,-17,-384,13
1512177672,-0.0169,-0.0591,0.2988,163.88,2.75,937.26,-17,-384,13
1512177672,-0.0302,-0.0551,0.2855,141.17,-4.70,937.56,-17,-384,13
1512177672,-0.0061,0.0024,0.2866,117.31,-26.79,1014.77,-17,-384,13
1512177672,0.0056,0.0037,0.2851,148.99,23.62,985.47,-17,-384,13
1512177672,-0.0099,-0.0105,0.2862,180.11,-6.04,1055.18,-3,-394,-16
1512177672,-0.0004,0.0121,0.2886,176.15,23.74,1006.90,-3,-394,-16
1512177672,-0.0154,-0.0065,0.2847,141.48,-6.84,992.61,-3,-394,-16
1512177672,-0.0125,-0.0045,0.2933,144.35,52.31,1003.91,-3,-394,-16
1512177672,-0.0020,-0.0051,0.3096,135.62,-22.28,1042.24,-1,-403,-5
1512177673,-0.0027,-0.0027,0.3009,162.11,2.93,900.82,-1,-403,-5
1512177673,-0.0095,-0.0296,0.3017,129.76,17.27,851.68,-1,-403,-5
1512177673,0.0129,-0.0647,0.2988,169.13,-34.85,1051.88,-1,-403,-5
1512177673,0.0233,-0.0664,0.2953,203.37,6.96,876.34,-1,-403,-5
1512177673,0.0317,0.0029,0.3065,151.12,32.71,957.58,7,-384,-6
1512177673,0.0249,0.0250,0.3069,119.57,49.44,1052.55,7,-384,-6
1512177673,0.0117,0.0310,0.3013,108.40,25.02,1083.98,7,-384,-6
1512177673,0.0011,0.0080,0.3147,131.59,60.30,1080.26,7,-384,-6
1512177673,-0.0104,-0.0029,0.3260,47.85,68.66,1060.12,7,-384,-6
1512177673,0.0166,0.0004,0.3454,146.73,97.29,1051.39,19,-403,-28
1512177673,-0.0204,0.0154,0.3320,154.17,38.88,1105.77,19,-403,-28
1512177673,0.0013,-0.0013,0.3441,141.97,96.86,976.07,19,-403,-28
1512177673,0.0100,-0.0284,0.3523,89.54,71.41,1049.74,19,-403,-28
1512177673,0.0017,-0.0466,0.3510,75.56,60.24,1069.76,19,-393,-42
1512177673,-0.0031,-0.0522,0.3566,97.60,120.12,984.92,19,-393,-42
1512177673,0.0069,-0.0341,0.3667,30.27,29.72,1076.60,19,-393,-42
1512177673,0.0260,-0.0324,0.3618,178.41,130.13,1019.65,19,-393,-42
1512177673,-0.0037,-0.0533,0.3758,182.43,40.95,961.61,19,-393,-42
1512177673,0.0342,0.0052,0.3806,162.23,156.86,1077.21,17,-391,-27
1512177673,0.0173,0.0241,0.4009,75.62,29.91,900.15,17,-391,-27
1512177673,0.0567,0.0609,0.4293,70.62,72.45,947.33,17,-391,-27
1512177673,0.0134,-0.0280,0.3675,284.55,53.47,981.93,17,-391,-27
1512177673,0.0100,-0.0406,0.3924,384.46,205.51,1027.28,17,-391,-27
1512177673,-0.0146,-0.0201,0.3768,367.74,151.86,1079.10,0,-419,-98
1512177673,-0.0217,-0.0044,0.4132,189.76,155.40,1059.51,0,-419,-98
1512177673,-0.0204,0.0008,0.4278,203.49,153.69,1006.53,0,-419,-98
1512177673,-0.0129,0.0136,0.4326,227.11,126.53,990.78,0,-419,-98
1512177673,-0.0409,-0.0032,0.4405,279.05,133.54,946.35,29,-438,-93
1512177673,-0.0558,-0.0365,0.4442,305.54,114.50,1044.19,29,-438,-93
1512177673,-0.0104,0.0446,0.4483,224.37,130.55,1032.17,29,-438,-93
1512177673,-0.0220,0.0252,0.4481,236.39,128.23,1127.69,29,-438,-93
1512177673,-0.0113,0.0642,0.4478,141.36,140.32,1105.47,29,-438,-93
1512177673,-0.0330,0.0775,0.4445,176.94,130.25,1000.55,28,-419,-98
1512177673,-0.0229,0.0494,0.4414,114.50,147.09,994.75,28,-419,-98
1512177673,-0.0242,0.0473,0.4513,224.12,136.66,917.60,28,-419,-98
1512177673,-0.0296,0.0526,0.4575,199.28,124.21,934.08,28,-419,-98
1512177673,-0.0181,0.0485,0.4587,195.92,118.35,881.90,17,-416,-101
1512177674,0.0027,0.0364,0.4579,86.85,153.56,1083.98,17,-416,-101
1512177674,-0.0221,0.0373,0.4659,257.26,89.72,1013.18,17,-416,-101
1512177674,-0.0269,0.0168,0.4748,250.92,141.66,987.30,17,-416,-101
1512177674,-0.0081,0.0268,0.4807,229.98,97.90,930.48,17,-416,-101
1512177674,0.0491,0.0252,0.4806,209.66,151.73,931.46,45,-405,-94
1512177674,0.0245,0.0249,0.4791,155.40,155.33,1001.28,45,-405,-94
1512177674,-0.0194,0.0245,0.4840,315.00,91.43,852.60,45,-405,-94
1512177674,-0.0072,0.0491,0.4955,237.12,157.78,989.99,45,-405,-94
1512177674,-0.0032,0.0768,0.4975,200.20,115.48,1009.70,45,-405,-94
1512177674,0.0173,0.0634,0.4945,142.09,164.18,1081.42,38,-391,-121
1512177674,0.0212,0.0589,0.4984,114.87,120.85,956.60,38,-391,-121
1512177674,0.0370,0.0466,0.5069,146.79,163.02,954.96,38,-391,-121
1512177674,0.0294,0.0276,0.5124,122.74,110.84,1030.03,38,-391,-121
1512177674,0.0352,0.0338,0.4997,197.63,98.75,954.16,38,-391,-121
1512177674,0.0565,0.0395,0.4953,95.89,155.40,1011.05,56,-391,-94
1512177674,0.0720,0.0493,0.4879,132.69,74.71,965.45,56,-391,-94
1512177674,0.0602,0.0533,0.4908,121.58,129.09,957.58,56,-391,-94
1512177674,0.0617,0.0352,0.4838,98.57,104.06,980.41,56,-391,-94
1512177674,0.0364,0.0672,0.4932,104.92,117.43,1056.64,66,-370,-88
1512177674,-0.0027,0.1073,0.4943,61.89,104.92,1082.34,66,-370,-88
1512177674,0.0012,0.1193,0.4930,17.82,125.79,1026.67,66,-370,-88
1512177674,-0.0365,0.1073,0.5055,125.85,89.84,996.58,66,-370,-88
1512177674,-0.0921,0.1446,0.5121,78.49,114.38,1115.84,66,-370,-88
1512177674,-0.0345,0.1000,0.5063,80.63,157.17,1094.12,75,-364,-96
1512177674,0.0202,0.0940,0.5009,37.48,179.69,1093.38,75,-364,-96
1512177674,0.0409,0.1278,0.4975,41.44,166.56,995.54,75,-364,-96
1512177674,0.0462,0.0668,0.5008,116.52,154.54,941.35,75,-364,-96
1512177674,-0.0080,0.0997,0.5069,114.93,146.73,998.47,75,-364,-96
1512177674,0.0202,0.0943,0.5344,72.14,104.31,1037.66,73,-342,-88
1512177674,0.0076,0.0784,0.5108,25.45,168.15,999.21,73,-342,-88
1512177674,-0.0305,0.0784,0.5040,1.53,169.68,1025.02,73,-342,-88
1512177674,-0.0743,0.0956,0.5137,43.33,103.82,994.75,73,-342,-88
1512177674,0.0336,0.0334,0.5019,51.76,72.45,942.99,77,-324,-91
1512177674,0.0727,0.0053,0.4980,85.14,113.77,856.32,77,-324,-91
1512177674,0.0216,0.0252,0.5067,77.82,96.56,989.38,77,-324,-91
1512177674,-0.0077,0.0346,0.5164,97.29,96.25,1039.18,77,-324,-91
1512177674,0.0382,0.0490,0.5143,69.21,113.10,956.73,77,-324,-91
1512177674,0.0415,0.0297,0.5089,62.81,75.93,1003.05,80,-296,-71
1512177674,0.0288,0.0607,0.5061,55.66,73.91,976.07,80,-296,-71
1512177675,-0.0107,0.0742,0.5177,-19.23,16.17,1149.66,80,-296,-71
1512177675,0.0176,0.0590,0.5148,10.38,76.17,978.21,80,-296,-71
1512177675,0.0397,0.0754,0.5101,-34.36,34.48,1011.72,80,-296,-71
1512177675,0.0447,0.0751,0.5036,-27.83,128.48,1030.64,80,-292,-77
1512177675,0.0312,0.0752,0.5188,-54.57,72.02,1051.33,80,-292,-77
1512177675,0.0161,0.0583,0.5233,8.91,88.56,1062.01,80,-292,-77
1512177675,0.0326,0.0418,0.5163,76.42,28.38,976.99,80,-292,-77
1512177675,0.0908,0.0176,0.5099,99.73,81.05,923.89,86,-269,-66
1512177675,0.0690,0.0333,0.4965,66.77,103.33,1003.48,86,-269,-66
1512177675,0.0498,0.0638,0.4908,14.95,79.16,970.95,86,-269,-66
1512177675,0.0402,0.0419,0.5149,21.06,112.37,999.27,86,-269,-66
1512177675,-0.0361,0.0571,0.5320,38.88,58.78,1028.20,86,-269,-66
1512177675,-0.0240,-0.0021,0.5316,-19.84,114.99,1035.58,79,-248,-59
1512177675,-0.0083,-0.0627,0.4949,-52.00,129.21,1038.51,79,-248,-59
1512177675,-0.0818,-0.0625,0.5222,-36.07,86.12,1086.67,79,-248,-59
1512177675,-0.1433,-0.0655,0.4864,-62.32,116.76,1112.43,79,-248,-59
1512177675,-0.1301,-0.1264,0.4878,-95.46,82.15,1077.45,79,-248,-59
1512177675,-0.1176,-0.1559,0.4955,-93.20,53.77,1088.50,96,-230,-28
1512177675,-0.0991,-0.1465,0.4895,-42.60,54.38,987.85,96,-230,-28
1512177675,-0.1061,-0.1752,0.4941,47.55,32.41,1005.25,96,-230,-28
1512177675,-0.0838,-0.1615,0.4903,149.05,-5.43,898.62,96,-230,-28
1512177675,-0.0446,-0.1182,0.4867,125.37,-8.97,992.74,130,-225,-33
1512177675,-0.0194,-0.0712,0.4948,96.07,4.76,1003.36,130,-225,-33
1512177675,-0.0068,-0.0683,0.4987,142.40,-39.98,947.57,130,-225,-33
1512177675,0.0190,-0.0433,0.4682,111.27,-27.53,1025.70,130,-225,-33
1512177675,0.0056,-0.0035,0.4842,129.88,75.44,1134.03,130,-225,-33
1512177675,0.0036,0.0609,0.4900,127.75,80.14,1084.59,91,-239,-47
1512177675,-0.0088,0.0831,0.4645,197.14,98.21,1171.39,91,-239,-47
1512177675,-0.0340,0.0828,0.4613,120.85,88.13,1160.95,91,-239,-47
1512177675,-0.0618,0.0972,0.4627,122.80,65.67,1049.38,91,-239,-47
1512177675,-0.0828,0.1226,0.4511,143.92,56.52,1002.99,94,-218,-37
1512177675,-0.0886,0.1392,0.4555,92.35,0.24,954.96,94,-218,-37
1512177675,-0.0779,0.1510,0.4554,39.73,4.15,917.72,94,-218,-37
1512177675,-0.0490,0.1172,0.4706,-41.56,10.07,925.54,94,-218,-37
1512177675,-0.0546,0.0987,0.4482,19.59,7.63,887.21,94,-218,-37
1512177675,-0.0831,0.0758,0.4412,67.57,16.48,807.37,100,-188,-35
1512177675,-0.0671,0.0755,0.4791,-82.09,-79.04,873.66,100,-188,-35
1512177676,-0.0883,0.0863,0.4657,-14.16,-45.78,928.10,100,-188,-35
1512177676,-0.0748,0.0590,0.4463,37.11,-59.02,956.24,100,-188,-35
1512177676,-0.0660,0.0569,0.4316,-63.66,-60.61,1026.73,100,-188,-35
1512177676,-0.0710,0.0390,0.4553,138.67,-88.87,1050.78,107,-181,-28
1512177676,-0.0740,0.0328,0.4522,100.04,-46.45,952.76,107,-181,-28
1512177676,-0.0675,0.0162,0.4575,18.31,-71.17,944.40,107,-181,-28
1512177676,-0.0605,0.0121,0.4573,4.33,-58.35,1080.32,107,-181,-28
1512177676,-0.0671,0.0113,0.4658,-0.43,-47.67,1065.49,105,-169,-47
1512177676,-0.0609,0.0298,0.4688,-0.85,-34.06,996.83,105,-169,-47
1512177676,-0.0598,-0.0065,0.4752,-28.44,-14.22,994.57,105,-169,-47
1512177676,-0.0670,-0.0051,0.4791,26.43,-100.10,915.77,105,-169,-47
1512177676,-0.0775,-0.0217,0.4738,4.15,-73.55,999.69,105,-169,-47
1512177676,-0.0911,-0.0373,0.4806,74.95,-65.12,1021.67,114,-149,-45
1512177676,-0.0664,-0.0234,0.4736,41.08,-84.84,1008.61,114,-149,-45
1512177676,-0.0712,-0.0233,0.4695,14.89,-65.31,938.66,114,-149,-45
1512177676,-0.0704,-0.0280,0.4756,-2.38,-103.03,1017.64,114,-149,-45
1512177676,-0.0663,-0.0310,0.4748,-6.90,-87.22,958.07,114,-149,-45
1512177676,-0.0486,-0.0125,0.4778,-94.36,-108.64,1010.93,112,-141,-44
1512177676,-0.0622,-0.0088,0.4816,-71.84,-46.14,1045.65,112,-141,-44
1512177676,-0.0650,-0.0236,0.4888,-12.51,-78.61,998.23,112,-141,-44
1512177676,-0.0523,-0.0368,0.4871,31.37,-58.35,1026.43,112,-141,-44
1512177676,-0.0330,-0.0551,0.4968,31.92,-60.18,953.06,105,-133,-40
1512177676,-0.0274,-0.0775,0.4971,40.77,-50.96,951.60,105,-133,-40
1512177676,0.0005,-0.0816,0.5049,-98.51,-38.02,979.55,105,-133,-40
1512177676,0.0170,-0.1060,0.5180,-68.24,-88.75,1206.30,105,-133,-40
1512177676,0.0112,-0.1317,0.5226,146.24,-47.55,1109.62,105,-133,-40
1512177676,0.0413,-0.1121,0.4930,83.98,-43.15,1117.80,96,-121,-49
1512177676,0.0788,-0.0740,0.4726,121.83,-14.10,1125.37,96,-121,-49
1512177676,0.1202,-0.0248,0.4511,146.97,-10.25,1164.00,96,-121,-49
1512177676,0.1439,0.0027,0.4398,64.33,12.27,1082.03,96,-121,-49
1512177676,0.1409,0.0437,0.4282,142.27,-38.76,991.15,93,-114,-59
1512177676,0.1121,0.0398,0.4280,116.52,-5.98,978.15,93,-114,-59
1512177676,0.1087,0.0244,0.4293,117.74,5.68,966.00,93,-114,-59
1512177676,0.1043,0.0679,0.4293,34.48,-14.53,1024.29,93,-114,-59
1512177676,0.0795,0.0644,0.4381,96.86,-38.76,890.50,93,-114,-59
1512177676,0.0495,0.0626,0.4441,92.71,-56.21,868.47,70,-102,-47
1512177676,0.0346,0.0483,0.4514,93.44,-54.69,924.07,70,-102,-47
1512177676,0.0060,0.0240,0.4627,116.76,-70.31,930.79,70,-102,-47
1512177677,-0.0025,0.0437,0.4523,57.56,-37.17,946.11,70,-102,-47
1512177677,-0.0011,0.0542,0.4513,-20.02,-92.10,1042.48,70,-102,-47
1512177677,-0.0130,0.0650,0.4294,-1.71,-98.63,977.66,61,-93,-22
1512177677,-0.0300,0.0409,0.4268,44.62,-92.22,913.88,61,-93,-22
1512177677,-0.0230,0.0374,0.4226,44.37,-82.34,1002.44,61,-93,-22
1512177677,-0.0119,0.0390,0.4202,-47.91,-96.80,1036.25,61,-93,-22
1512177677,-0.0069,0.0338,0.4204,-73.00,-61.34,1094.48,70,-81,-47
1512177677,-0.0115,0.0294,0.4238,-32.53,-105.77,1003.85,70,-81,-47
1512177677,-0.0125,0.0134,0.4270,-18.43,-85.63,957.82,70,-81,-47
1512177677,-0.0125,0.0093,0.4290,-17.88,-96.19,988.65,70,-81,-47
1512177677,-0.0107,0.0021,0.4292,30.64,-102.78,1014.71,70,-81,-47
1512177677,-0.0029,-0.0027,0.4256,79.04,-128.05,975.46,63,-66,-47
1512177677,0.0020,0.0119,0.4237,56.46,-123.60,1016.72,63,-66,-47
1512177677,0.0108,0.0200,0.4171,57.31,-135.38,969.60,63,-66,-47
1512177677,0.0024,0.0197,0.4194,25.15,-89.84,1006.10,63,-66,-47
1512177677,0.0142,0.0161,0.4173,12.21,-108.95,1041.14,63,-66,-47
1512177677,0.0278,0.0334,0.4147,-69.70,-85.39,976.56,56,-56,-50
1512177677,0.0258,0.0336,0.4069,2.44,-113.71,1038.88,56,-56,-50
1512177677,0.0153,0.0258,0.4060,-11.41,-114.62,1036.19,56,-56,-50
1512177677,0.0198,0.0188,0.4075,-49.38,-98.94,1026.00,56,-56,-50
1512177677,0.0196,0.0117,0.4025,-14.04,-135.13,940.06,38,-59,-50
1512177677,0.0166,-0.0056,0.3976,9.95,-91.61,969.91,38,-59,-50
1512177677,0.0071,-0.0204,0.4065,18.07,-151.86,1054.50,38,-59,-50
1512177677,0.0274,0.0033,0.3828,-91.37,-86.55,1038.39,38,-59,-50
1512177677,0.0016,-0.0116,0.3859,-60.42,-82.95,1012.57,38,-59,-50
1512177677,0.0071,-0.0069,0.3811,-27.65,-140.26,1011.90,28,-42,-50
1512177677,-0.0053,-0.0229,0.3766,48.89,-99.98,938.72,28,-42,-50
1512177677,-0.0129,-0.0047,0.3686,41.63,-141.05,1054.26,28,-42,-50
1512177677,0.0061,0.0145,0.3691,27.04,-120.42,957.09,28,-42,-50
1512177677,0.0028,0.0254,0.3611,24.60,-143.86,958.13,5,-40,-62
1512177677,0.0064,0.0169,0.3671,-1.89,-132.39,1034.91,5,-40,-62
1512177677,0.0214,0.0290,0.3605,-31.80,-105.47,1040.16,5,-40,-62
1512177677,0.0154,0.0306,0.3602,-46.26,-107.06,1002.93,5,-40,-62
1512177677,0.0161,0.0362,0.3502,-23.50,-93.81,981.38,5,-40,-62
1512177677,0.0069,0.0308,0.3483,-26.55,-140.32,980.53,33,-33,-35
1512177677,0.0142,0.0390,0.3443,-44.13,-121.22,981.08,33,-33,-35
1512177677,0.0109,0.0399,0.3382,-50.60,-98.75,1005.00,33,-33,-35
1512177677,0.0186,0.0430,0.3337,-48.10,-108.95,966.06,33,-33,-35
1512177678,0.0056,0.0399,0.3305,-48.22,-100.22,1013.73,33,-33,-35
1512177678,0.0115,0.0433,0.3266,-41.32,-127.87,990.84,17,-31,-54
1512177678,0.0132,0.0427,0.3284,-68.05,-110.72,1002.26,17,-31,-54
1512177678,0.0045,0.0370,0.3244,-8.54,-137.76,1020.75,17,-31,-54
1512177678,0.0013,0.0269,0.3261,-4.33,-135.86,971.98,17,-31,-54
1512177678,-0.0084,0.0262,0.3230,27.89,-84.96,1008.67,0,-10,-50
1512177678,-0.0047,0.0185,0.3186,20.63,-126.77,1011.72,0,-10,-50
1512177678,0.0194,0.0445,0.3165,-25.94,-132.02,1035.46,0,-10,-50
1512177678,0.0049,0.0280,0.3148,-13.79,-107.85,1011.60,0,-10,-50
1512177678,0.0100,0.0129,0.3182,-21.12,-117.68,1039.00,0,-10,-50
1512177678,0.0150,0.0019,0.3153,4.21,-100.40,983.64,7,-21,-37
1512177678,0.0060,-0.0031,0.3117,-28.32,-114.87,955.69,7,-21,-37
1512177678,0.0064,0.0186,0.3031,-17.52,-148.86,951.66,7,-21,-37
1512177678,-0.0028,0.0218,0.2818,-49.32,-81.91,1011.96,7,-21,-37
1512177678,0.0060,0.0202,0.2987,0.00,-204.04,1028.14,7,-21,-37
1512177678,0.0112,0.0352,0.2949,-17.33,-141.97,1025.15,1,-15,-49
1512177678,-0.0037,0.0176,0.2907,2.99,-159.48,990.66,1,-15,-49
1512177678,0.0119,0.0218,0.2880,-6.71,-151.12,1022.16,1,-15,-49
1512177678,0.0129,0.0352,0.2856,-15.44,-124.21,1009.95,1,-15,-49
1512177678,0.0127,0.0290,0.2842,-19.35,-161.99,1046.69,1,-15,-49
1512177678,0.0220,0.0221,0.2827,-64.51,-143.19,997.74,-14,-3,-60
1512177678,0.0109,0.0168,0.2796,-53.04,-131.84,987.55,-14,-3,-60
1512177678,0.0072,0.0236,0.2722,-79.59,-141.66,993.23,-14,-3,-60
1512177678,-0.0011,0.0326,0.2477,-46.94,-140.81,991.21,-14,-3,-60
1512177678,-0.0136,0.0224,0.2423,-36.68,-145.14,1030.82,-24,-10,-47
1512177678,-0.0083,0.0193,0.2422,-59.88,-153.56,990.66,-24,-10,-47
1512177678,-0.0064,0.0269,0.2393,-118.29,-138.92,992.00,-24,-10,-47
1512177678,-0.0025,0.0266,0.2332,-94.36,-139.04,988.77,-24,-10,-47
1512177678,-0.0032,0.0226,0.2322,-104.61,-144.90,1060.55,-24,-10,-47
1512177678,-0.0075,0.0088,0.2276,-58.04,-178.71,983.09,-17,10,-44
1512177678,-0.0161,-0.0160,0.2214,-52.00,-179.63,948.18,-17,10,-44
1512177678,0.0001,-0.0088,0.1953,-102.97,-167.30,972.84,-17,10,-44
1512177678,-0.0133,-0.0427,0.1909,-74.52,-169.92,907.84,-17,10,-44
1512177678,0.0099,-0.0225,0.1969,-109.68,-204.28,959.96,-14,-3,-37
1512177678,0.0256,-0.0201,0.1735,-118.04,-152.59,949.34,-14,-3,-37
1512177678,0.0365,-0.0197,0.1743,-86.12,-194.21,975.83,-14,-3,-37
1512177678,0.0374,-0.0344,0.1684,-132.45,-128.97,1012.57,-14,-3,-37
1512177678,0.0443,-0.0221,0.1631,-57.98,-104.74,1048.71,-14,-3,-37
1512177679,0.0373,-0.0180,0.1574,-60.49,-119.20,1116.82,-36,8,-42
1512177679,0.0168,0.0049,0.1538,-46.45,-114.50,1025.33,-36,8,-42
1512177679,0.0586,0.0336,0.1483,-85.94,-130.00,1066.35,-36,8,-42
1512177679,0.0104,0.0354,0.1461,-58.23,-108.83,970.28,-36,8,-42
1512177679,0.0264,0.0549,0.1333,-105.47,-130.19,1037.84,-36,8,-42
1512177679,0.0200,0.0481,0.1261,-77.21,-139.40,1042.24,-54,8,-38
1512177679,0.0229,0.0507,0.1149,-123.78,-135.31,1032.59,-54,8,-38
1512177679,-0.0047,0.0450,0.1063,-98.21,-131.29,984.19,-54,8,-38
1512177679,-0.0304,0.0526,0.0820,-80.93,-127.26,959.72,-54,8,-38
1512177679,-0.0230,0.0427,0.1133,-114.56,-119.08,1021.79,-38,7,-30
1512177679,0.0028,0.0361,0.1174,-147.34,-111.45,974.43,-38,7,-30
1512177679,-0.0043,0.0209,0.1088,-122.19,-142.58,1041.93,-38,7,-30
1512177679,0.0242,0.0256,0.0992,-144.35,-106.57,984.50,-38,7,-30
1512177679,0.0013,0.0047,0.0952,-149.96,-105.90,1005.92,-38,7,-30
1512177679,-0.0533,-0.0236,0.0931,-109.19,-124.45,1000.00,-35,24,-23
1512177679,-0.0430,-0.0176,0.0876,-93.14,-162.35,951.72,-35,24,-23
1512177679,-0.0123,-0.0028,0.0759,-61.89,-147.58,909.91,-35,24,-23
1512177679,0.0028,0.0063,0.0835,-133.67,-147.40,942.81,-35,24,-23
1512177679,0.0430,0.0409,0.0646,-101.14,-110.05,951.29,-35,14,-20
1512177679,-0.0254,-0.0180,0.0816,-76.35,-162.17,863.34,-35,14,-20
1512177679,-0.0095,-0.0190,0.0826,-98.39,-158.87,996.34,-35,14,-20
1512177679,0.0012,-0.0043,0.0834,-94.42,-111.63,1054.57,-35,14,-20
1512177679,0.0142,-0.0007,0.0775,-94.24,-165.53,992.00,-35,14,-20
1512177679,0.0225,0.0023,0.0718,-13.73,-133.48,1007.02,-40,12,-22
1512177679,0.0262,-0.0067,0.0715,-87.28,-122.38,1020.87,-40,12,-22
1512177679,0.0320,-0.0089,0.0730,-125.49,-138.49,992.86,-40,12,-22
1512177679,0.0402,0.0048,0.0613,-106.20,-134.28,1051.09,-40,12,-22
1512177679,0.0354,0.0020,0.0603,-110.53,-132.81,1025.27,-40,12,-22
1512177679,0.0380,0.0003,0.0558,-19.04,-141.78,962.77,-31,17,-3
1512177679,0.0477,0.0194,0.0553,-73.55,-128.17,951.05,-31,17,-3
1512177679,0.0478,0.0214,0.0501,-61.28,-142.03,1001.16,-31,17,-3
1512177679,0.0437,0.0202,0.0602,-105.22,-165.04,1005.49,-31,17,-3
1512177679,0.0458,0.0176,0.0421,-112.61,-99.61,1052.92,-40,19,-25
1512177679,0.0345,0.0033,0.0437,-138.00,-113.71,1001.34,-40,19,-25
1512177679,0.0394,0.0020,0.0360,-144.23,-123.11,980.41,-40,19,-25
1512177679,0.0391,0.0204,0.0322,-123.41,-126.77,1009.09,-40,19,-25
1512177679,0.0240,0.0260,0.0254,-86.30,-143.62,924.44,-40,19,-25
1512177680,0.0241,0.0240,0.0246,-114.50,-101.99,987.61,-42,24,-10
1512177680,0.0132,0.0093,0.0182,-132.81,-117.25,997.31,-42,24,-10
1512177680,-0.0033,0.0023,0.0165,-139.04,-87.89,960.69,-42,24,-10
1512177680,-0.0013,-0.0009,0.0157,-146.97,-110.47,945.07,-42,24,-10
1512177680,-0.0031,-0.0044,0.0209,-120.06,-94.12,1000.43,-50,8,-15
1512177680,-0.0123,0.0072,0.0322,-119.38,-119.51,987.85,-50,8,-15
1512177680,-0.0077,0.0129,0.0177,-170.17,-129.82,1057.50,-50,8,-15
1512177680,-0.0125,0.0158,0.0100,-159.00,-115.54,1044.37,-50,8,-15
1512177680,-0.0020,-0.0013,0.0101,-82.28,-120.00,880.25,-50,8,-15
1512177680,-0.0125,-0.0103,0.0033,-91.67,-137.02,951.48,-47,15,-15
1512177680,-0.0210,0.0031,0.0011,-113.71,-100.22,1027.89,-47,15,-15
1512177680,-0.0218,-0.0007,-0.0023,-95.40,-151.43,1001.77,-47,15,-15
1512177680,-0.0170,-0.0011,-0.0158,-137.57,-107.18,1005.25,-47,15,-15
1512177680,0.0077,0.0269,-0.0229,-167.85,-94.97,977.91,-47,15,-15
1512177680,-0.0045,0.0064,-0.0092,-208.25,-144.59,1038.51,-68,33,-18
1512177680,0.0100,0.0117,-0.0198,-200.62,-78.43,954.35,-68,33,-18
1512177680,0.0009,0.0055,-0.0089,-195.86,-110.60,1013.98,-68,33,-18
1512177680,0.0035,-0.0092,-0.0128,-150.09,-105.90,971.19,-68,33,-18
1512177680,0.0044,-0.0152,-0.0273,-143.55,-69.95,977.66,-66,24,-16
1512177680,-0.0071,-0.0197,-0.0296,-73.30,-109.86,993.96,-66,24,-16
1512177680,-0.0063,-0.0377,-0.0294,-46.45,-67.93,974.24,-66,24,-16
1512177680,-0.0076,-0.0089,-0.0232,-196.59,-107.79,988.34,-66,24,-16
1512177680,0.0173,-0.0200,-0.0129,-92.29,-145.45,1020.94,-66,24,-16
1512177680,0.0045,-0.0065,-0.0228,-156.13,-71.47,1045.04,-50,44,-11
1512177680,0.0113,-0.0048,-0.0206,-148.38,-104.43,926.21,-50,44,-11
1512177680,0.0015,-0.0150,-0.0241,-104.86,-139.28,1076.54,-50,44,-11
1512177680,0.0280,-0.0087,-0.0200,-95.89,-45.35,998.90,-50,44,-11
1512177680,0.0357,-0.0230,-0.0150,-129.46,-102.84,886.72,-50,44,-11
1512177680,0.0280,-0.0265,-0.0186,-134.40,-97.11,995.54,-68,37,-5
1512177680,0.0230,-0.0141,-0.0230,-142.88,-70.74,934.81,-68,37,-5
1512177680,0.0278,-0.0314,-0.0196,-90.33,-42.72,890.56,-68,37,-5
1512177680,0.0282,-0.0200,-0.0233,-139.28,-29.24,1044.49,-68,37,-5
1512177680,0.0374,-0.0362,-0.0144,-93.51,77.76,967.77,-72,19,-5
1512177680,0.0586,-0.0193,-0.0281,-148.62,46.63,956.36,-72,19,-5
1512177680,0.0296,-0.0370,-0.0208,-105.29,16.05,1015.50,-72,19,-5
1512177680,0.0209,-0.0310,-0.0213,-122.19,-6.29,1013.31,-72,19,-5
1512177680,0.0230,-0.0205,-0.0310,-88.38,-63.78,975.04,-72,19,-5
1512177680,-0.0071,-0.0503,-0.0530,-32.35,-38.82,984.31,-63,28,-6
1512177681,-0.0067,-0.0308,-0.0356,-14.22,-10.56,963.44,-63,28,-6
1512177681,0.0129,-0.0120,-0.0192,-67.26,7.02,1014.77,-63,28,-6
1512177681,0.0079,0.0009,-0.0186,-87.40,16.30,1011.11,-63,28,-6
1512177681,-0.0077,-0.0091,-0.0149,-123.05,-56.34,986.27,-54,26,-11
1512177681,0.0041,0.0013,-0.0119,-176.09,-15.93,1023.13,-54,26,-11
1512177681,0.0091,0.0036,-0.0120,-207.09,19.78,987.98,-54,26,-11
1512177681,-0.0003,-0.0196,-0.0188,-109.62,29.54,1037.29,-54,26,-11
1512177681,-0.0141,-0.0205,-0.0172,-134.95,-33.45,1009.16,-54,26,-11
1512177681,-0.0096,-0.0189,-0.0234,-191.59,46.81,1013.85,-65,12,-1
1512177681,-0.0214,-0.0152,-0.0194,-153.26,14.83,969.48,-65,12,-1
1512177681,-0.0176,-0.0121,-0.0181,-122.74,8.12,985.78,-65,12,-1
1512177681,-0.0217,-0.0245,-0.0138,-105.29,40.34,962.77,-65,12,-1
1512177681,-0.0301,-0.0325,-0.0084,-156.43,-6.96,1078.25,-65,12,-1
1512177681,-0.0162,-0.0322,-0.0069,-144.41,21.97,987.18,-61,29,1
1512177681,-0.0213,-0.0305,-0.0076,-98.63,-8.91,987.55,-61,29,1
1512177681,-0.0168,-0.0084,-0.0084,-127.08,61.65,1056.58,-61,29,1
1512177681,-0.0097,0.0011,-0.0047,-89.84,22.34,1029.60,-61,29,1
1512177681,-0.0240,-0.0142,0.0003,-119.45,39.06,1057.37,-66,17,0
1512177681,-0.0184,-0.0364,0.0049,-92.10,51.57,927.61,-66,17,0
1512177681,0.0011,0.0044,0.0047,-130.19,48.83,961.12,-66,17,0
1512177681,-0.0153,-0.0007,0.0084,-61.16,22.34,1038.76,-66,17,0
1512177681,-0.0230,-0.0218,0.0116,-87.28,28.44,955.44,-66,17,0
1512177681,-0.0248,-0.0067,0.0160,-173.77,10.99,1021.97,-45,14,3
1512177681,-0.0250,-0.0130,0.0189,-87.71,76.11,1063.17,-45,14,3
1512177681,-0.0229,-0.0314,0.0158,-110.29,24.35,1022.22,-45,14,3
1512177681,-0.0186,-0.0100,0.0137,-98.33,41.99,993.90,-45,14,3
1512177681,-0.0140,-0.0095,0.0189,-92.35,5.98,1040.16,-45,14,3
1512177681,-0.0125,-0.0194,0.0260,-81.60,19.84,1008.24,-42,7,-10
1512177681,0.0004,-0.0178,0.0337,-47.24,57.13,935.85,-42,7,-10
1512177681,-0.0093,-0.0152,0.0354,-34.12,8.85,989.62,-42,7,-10
1512177681,-0.0005,-0.0328,0.0457,23.74,73.97,985.05,-42,7,-10
1512177681,0.0016,-0.0149,0.0477,3.48,24.05,995.06,-42,0,-10
1512177681,-0.0025,-0.0318,0.0542,16.54,59.94,997.99,-42,0,-10
1512177681,-0.0075,-0.0340,0.0582,-1.65,13.92,943.42,-42,0,-10
1512177681,-0.0067,-0.0354,0.0638,3.85,39.18,967.04,-42,0,-10
1512177681,-0.0121,-0.0190,0.0718,44.19,38.33,1039.12,-42,0,-10
1512177681,-0.0250,-0.0226,0.0768,47.24,51.33,1090.58,-45,7,-10
1512177681,-0.0043,-0.0025,0.0774,-38.27,53.96,1049.44,-45,7,-10
1512177682,0.0032,0.0067,0.0774,-1.40,37.90,924.07,-45,7,-10
1512177682,0.0044,0.0092,0.0924,-58.29,56.15,967.47,-45,7,-10
1512177682,0.0012,0.0024,0.0985,-57.50,45.65,1058.72,-43,1,-25
1512177682,0.0029,-0.0152,0.1027,-8.06,57.80,1017.76,-43,1,-25
1512177682,-0.0186,-0.0300,0.1047,64.70,32.59,922.79,-43,1,-25
1512177682,0.0040,-0.0173,0.1190,57.62,39.92,902.89,-43,1,-25
1512177682,-0.0182,-0.0217,0.1144,26.67,53.59,1002.62,-43,1,-25
1512177682,-0.0119,-0.0278,0.1170,91.86,46.88,942.38,-57,5,-22
1512177682,-0.0031,-0.0278,0.1241,52.61,23.13,1001.22,-57,5,-22
1512177682,0.0051,-0.0192,0.1218,60.85,72.75,1033.39,-57,5,-22
1512177682,0.0132,-0.0182,0.1306,5.74,104.25,1039.67,-57,5,-22
1512177682,0.0103,-0.0260,0.1368,66.89,65.43,1074.71,-57,5,-22
1512177682,0.0036,-0.0145,0.1395,11.54,35.16,1010.99,-61,15,-15
1512177682,-0.0081,-0.0201,0.1377,57.74,12.82,1114.38,-61,15,-15
1512177682,0.0168,-0.0301,0.1542,62.07,123.60,1058.47,-61,15,-15
1512177682,0.0152,-0.0080,0.1457,53.41,57.92,902.28,-61,15,-15
1512177682,0.0140,-0.0017,0.1522,55.11,23.80,1041.87,-61,-5,-28
1512177682,0.0052,-0.0055,0.1518,80.44,72.75,1056.34,-61,-5,-28
1512177682,-0.0013,-0.0031,0.1716,75.93,99.06,976.20,-61,-5,-28
1512177682,-0.0013,0.0009,0.1619,110.41,35.52,1094.60,-61,-5,-28
1512177682,-0.0138,0.0104,0.1718,87.52,38.76,946.59,-61,-5,-28
1512177682,-0.0224,0.0056,0.1742,52.19,33.75,933.29,-84,0,-27
1512177682,-0.0193,-0.0170,0.1784,35.28,30.70,1026.12,-84,0,-27
1512177682,-0.0288,-0.0249,0.1794,88.44,73.12,944.27,-84,0,-27
1512177682,-0.0337,-0.0330,0.1923,16.42,59.27,923.77,-84,0,-27
1512177682,-0.0262,-0.0362,0.1912,27.89,40.34,919.43,-84,0,-27
1512177682,-0.0192,-0.0140,0.1995,-2.56,68.18,937.68,-89,-15,-11
1512177682,-0.0119,0.0021,0.1898,64.03,47.42,1034.42,-89,-15,-11
1512177682,-0.0108,-0.0075,0.1928,74.58,19.17,1049.01,-89,-15,-11
1512177682,-0.0100,-0.0092,0.1955,120.18,40.10,998.23,-89,-15,-11
1512177682,-0.0053,-0.0230,0.2101,108.76,75.99,997.56,-89,-15,-11
1512177682,0.0217,-0.0069,0.2099,31.37,65.61,977.11,-82,1,-18
1512177682,0.0206,-0.0148,0.2157,54.57,70.62,1072.81,-82,1,-18
1512177682,0.0253,-0.0075,0.2221,36.56,40.53,1028.99,-82,1,-18
1512177682,0.0088,-0.0084,0.2270,112.55,35.83,988.77,-82,1,-18
1512177682,0.0092,-0.0067,0.2356,90.15,88.26,1035.77,-79,-15,-18
1512177682,0.0077,0.0079,0.2376,144.41,69.76,1006.41,-79,-15,-18
1512177682,0.0180,0.0348,0.2501,170.59,73.18,1009.52,-79,-15,-18
1512177683,0.0205,0.0742,0.2490,111.76,89.90,1011.17,-79,-15,-18
1512177683,-0.0221,0.0876,0.2775,94.06,0.73,994.69,-79,-15,-18
1512177683,-0.0039,0.0899,0.2660,90.45,106.93,973.39,-91,-3,-27
1512177683,-0.0021,0.0748,0.2318,102.78,92.71,870.85,-91,-3,-27
1512177683,0.0116,-0.0024,0.2646,213.26,23.07,986.94,-91,-3,-27
1512177683,0.0180,-0.0197,0.2778,161.38,48.65,902.59,-91,-3,-27
1512177683,0.0169,-0.0318,0.2884,78.12,86.55,869.14,-115,-10,-57
1512177683,0.0222,-0.0107,0.2854,94.91,32.47,1075.50,-115,-10,-57
1512177683,-0.0065,-0.0085,0.2831,202.58,85.45,888.43,-115,-10,-57
1512177683,-0.0192,-0.0276,0.2878,92.77,12.57,1023.44,-115,-10,-57
1512177683,-0.0269,-0.0218,0.2855,179.75,13.37,1011.29,-115,-10,-57
1512177683,-0.0278,-0.0250,0.2887,129.94,26.79,1008.97,-128,-1,-62
1512177683,-0.0248,0.0023,0.2913,137.39,20.14,972.53,-128,-1,-62
1512177683,-0.0300,0.0024,0.3076,110.17,19.65,932.98,-128,-1,-62
1512177683,-0.0005,0.0011,0.3001,132.69,34.85,1026.86,-128,-1,-62
1512177683,0.0152,0.0119,0.2972,122.19,74.16,1101.50,-128,-1,-62
1512177683,0.0124,0.0053,0.2996,95.89,55.36,1062.07,-133,-17,-64
1512177683,0.0100,0.0057,0.2875,140.20,45.04,1011.29,-133,-17,-64
1512177683,0.0037,0.0161,0.2944,115.54,76.72,1113.28,-133,-17,-64
1512177683,0.0178,0.0302,0.2794,108.76,13.43,1107.48,-133,-17,-64
1512177683,0.0013,0.0530,0.2808,132.57,33.69,1060.36,-145,-15,-45
1512177683,-0.0180,0.0490,0.2862,130.80,28.81,909.48,-145,-15,-45
1512177683,-0.0301,0.0304,0.2955,107.91,28.87,881.41,-145,-15,-45
1512177683,-0.0316,0.0079,0.2997,90.45,27.65,919.31,-145,-15,-45
1512177683,-0.0210,-0.0073,0.3032,69.95,60.06,1015.26,-145,-15,-45
1512177683,-0.0197,0.0065,0.3015,97.90,32.71,914.92,-152,-5,-49
1512177683,-0.0214,0.0184,0.2984,104.68,21.73,910.58,-152,-5,-49
1512177683,-0.0119,0.0471,0.2967,126.77,8.00,907.10,-152,-5,-49
1512177683,-0.0056,0.0559,0.2987,49.99,-7.57,1010.62,-152,-5,-49
1512177683,-0.0004,0.0603,0.2932,44.86,49.80,1037.48,-152,-5,-49
1512177683,-0.0105,0.0383,0.2949,70.43,52.80,1031.43,-154,-3,-54
1512177683,-0.0021,0.0052,0.2925,99.49,58.90,1061.65,-154,-3,-54
1512177683,-0.0157,-0.0146,0.2972,67.26,23.38,963.20,-154,-3,-54
1512177683,0.0069,0.0314,0.2957,89.23,-1.46,1001.89,-154,-3,-54
1512177683,0.0124,0.0397,0.2968,67.93,7.08,948.18,-175,-10,-57
1512177683,0.0117,0.0138,0.2907,112.06,-88.50,977.48,-175,-10,-57
1512177683,0.0133,-0.0125,0.2999,101.87,-26.92,1155.27,-175,-10,-57
1512177684,0.0063,-0.0280,0.3067,125.79,-20.94,1013.79,-175,-10,-57
1512177684,0.0229,0.0045,0.3009,128.48,-3.78,1000.73,-175,-10,-57
1512177684,0.0429,0.0092,0.3060,54.20,23.68,985.90,-177,-22,-45
1512177684,0.0441,-0.0005,0.3051,61.10,-11.72,939.27,-177,-22,-45
1512177684,0.0529,-0.0011,0.3123,41.69,15.56,979.37,-177,-22,-45
1512177684,0.0494,-0.0091,0.3108,38.94,25.45,996.46,-177,-22,-45
1512177684,0.0487,0.0083,0.3089,141.97,-18.31,1041.81,-184,-12,-49
1512177684,0.0356,0.0061,0.3061,179.57,-59.51,964.29,-184,-12,-49
1512177684,0.0237,0.0168,0.3019,97.53,-28.32,956.12,-184,-12,-49
1512177684,0.0071,0.0330,0.3095,121.52,3.85,1082.15,-184,-12,-49
1512177684,0.0019,0.0192,0.3049,148.62,-62.01,1033.45,-184,-12,-49
1512177684,-0.0113,0.0061,0.3053,133.79,-49.26,940.86,-170,-19,-62
1512177684,0.0060,0.0218,0.3055,78.49,-57.62,1055.85,-170,-19,-62
1512177684,-0.0068,-0.0059,0.3096,103.52,-75.07,1011.11,-170,-19,-62
1512177684,-0.0092,-0.0169,0.3088,117.86,-42.91,962.46,-170,-19,-62
1512177684,-0.0250,-0.0165,0.3051,97.78,-52.37,949.46,-170,-19,-62
1512177684,-0.0244,0.0104,0.3115,113.77,-21.85,959.53,-184,-12,-38
1512177684,-0.0326,-0.0007,0.3055,152.59,-30.70,1033.75,-184,-12,-38
1512177684,-0.0465,-0.0281,0.3056,137.08,-20.81,934.94,-184,-12,-38
1512177684,-0.0354,-0.0268,0.3053,161.99,-52.49,937.26,-184,-12,-38
1512177684,-0.0288,-0.0270,0.3051,132.87,-51.09,1041.93,-196,-28,-54
1512177684,-0.0402,-0.0184,0.3028,128.85,-69.03,983.58,-196,-28,-54
1512177684,-0.0354,0.0260,0.3004,121.70,-68.48,992.19,-196,-28,-54
1512177684,-0.0515,0.0190,0.2940,156.25,-60.61,953.43,-196,-28,-54
1512177684,-0.0635,0.0157,0.2892,136.29,-28.56,921.08,-196,-28,-54
1512177684,-0.0553,0.0173,0.2896,86.67,-6.59,935.00,-196,-24,-57
1512177684,-0.0236,0.0301,0.2850,75.26,50.05,1052.06,-196,-24,-57
1512177684,-0.0140,0.0230,0.2859,105.96,-13.18,891.11,-196,-24,-57
1512177684,-0.0087,0.0071,0.2812,28.26,-66.04,1000.37,-196,-24,-57
1512177684,-0.0045,-0.0099,0.2871,92.41,-40.47,1031.31,-216,-37,-49
1512177684,-0.0185,0.0112,0.2810,55.36,-17.27,1013.55,-216,-37,-49
1512177684,-0.0111,0.0032,0.2806,87.16,0.00,1095.40,-216,-37,-49
1512177684,0.0036,0.0206,0.2764,30.58,14.59,1070.43,-216,-37,-49
1512177684,0.0052,0.0142,0.2762,19.35,-49.50,1047.18,-216,-37,-49
1512177684,-0.0020,-0.0080,0.2746,80.87,-23.74,1015.26,-203,-52,-71
1512177684,-0.0013,-0.0158,0.2827,89.97,8.73,1012.88,-203,-52,-71
1512177684,0.0049,-0.0144,0.2815,70.68,23.93,1058.23,-203,-52,-71
1512177684,0.0116,-0.0085,0.2816,58.04,20.51,1016.48,-203,-52,-71
1512177685,0.0141,0.0055,0.2832,48.46,45.41,1003.72,-203,-52,-71
1512177685,0.0017,0.0136,0.2712,129.15,0.06,1006.04,-226,-37,-76
1512177685,0.0105,-0.0035,0.2711,91.31,39.25,1019.41,-226,-37,-76
1512177685,0.0029,0.0258,0.2672,52.25,-2.14,1018.74,-226,-37,-76
1512177685,0.0036,0.0234,0.2663,70.13,40.59,1002.32,-226,-37,-76
1512177685,-0.0011,0.0186,0.2695,52.12,27.40,1008.42,-216,-54,-66
1512177685,-0.0036,0.0172,0.2672,41.14,43.70,1060.36,-216,-54,-66
1512177685,-0.0072,0.0169,0.2653,78.80,41.08,972.72,-216,-54,-66
1512177685,-0.0021,0.0264,0.2613,47.00,66.96,1004.70,-216,-54,-66
1512177685,-0.0156,0.0186,0.2555,71.29,33.51,1067.26,-216,-54,-66
1512177685,-0.0157,0.0048,0.2502,71.72,32.90,999.88,-224,-63,-50
1512177685,-0.0156,0.0017,0.2478,70.98,23.56,1010.80,-224,-63,-50
1512177685,-0.0133,0.0051,0.2450,7.69,37.54,995.00,-224,-63,-50
1512177685,-0.0129,0.0124,0.2418,78.49,19.96,1072.33,-224,-63,-50
1512177685,-0.0032,0.0157,0.2368,59.51,33.39,1022.71,-224,-63,-50
1512177685,-0.0037,0.0222,0.2304,83.44,59.69,1011.05,-240,-51,-55
1512177685,-0.0113,0.0169,0.2277,77.64,70.25,980.35,-240,-51,-55
1512177685,-0.0229,0.0004,0.2285,130.86,39.37,989.87,-240,-51,-55
1512177685,-0.0180,-0.0060,0.2264,92.35,56.34,996.70,-240,-51,-55
1512177685,-0.0029,0.0104,0.2233,50.48,64.70,997.19,-228,-74,-50
1512177685,0.0049,0.0119,0.2205,20.14,69.70,982.60,-228,-74,-50
1512177685,0.0023,0.0116,0.2160,62.44,78.92,1014.22,-228,-74,-50
1512177685,0.0202,0.0161,0.2125,32.78,75.38,958.31,-228,-74,-50
1512177685,0.0334,0.0220,0.2031,1.16,55.05,969.54,-228,-74,-50
1512177685,0.0278,0.0140,0.2009,44.31,29.11,1011.54,-238,-66,-47
1512177685,0.0236,0.0112,0.2000,39.55,44.92,1053.47,-238,-66,-47
1512177685,0.0248,0.0298,0.2016,6.23,76.97,1038.21,-238,-66,-47
1512177685,0.0269,0.0305,0.1956,21.24,111.88,988.04,-238,-66,-47
1512177685,0.0112,0.0130,0.1928,-23.62,63.11,1024.05,-238,-66,-47
1512177685,0.0160,0.0073,0.1890,30.33,67.08,957.89,-242,-74,-47
1512177685,0.0124,0.0051,0.1840,5.98,62.26,965.33,-242,-74,-47
1512177685,0.0107,0.0189,0.1759,46.39,67.44,1028.26,-242,-74,-47
1512177685,0.0268,0.0272,0.1768,-0.92,100.59,1095.15,-242,-74,-47
1512177685,0.0213,0.0029,0.1739,5.00,107.60,958.37,-247,-51,-59
1512177685,0.0264,-0.0001,0.1718,-52.31,56.95,992.37,-247,-51,-59
1512177685,0.0209,-0.0067,0.1629,-14.28,68.66,993.41,-247,-51,-59
1512177685,0.0041,0.0004,0.1479,4.03,74.89,916.75,-247,-51,-59
1512177685,0.0100,0.0088,0.1493,-23.19,102.11,1029.60,-247,-51,-59
1512177686,0.0109,0.0035,0.1340,-27.95,98.02,985.47,-249,-77,-64
1512177686,-0.0065,-0.0321,0.1402,-21.73,63.84,964.72,-249,-77,-64
1512177686,-0.0113,-0.0224,0.1402,-10.93,78.49,927.92,-249,-77,-64
1512177686,-0.0172,-0.0068,0.1352,-8.91,75.99,955.51,-249,-77,-64
1512177686,-0.0085,-0.0019,0.1321,-12.51,72.81,997.25,-249,-77,-64
1512177686,-0.0085,-0.0008,0.1248,2.26,52.06,1055.42,-245,-77,-60
1512177686,-0.0079,-0.0097,0.1237,-20.94,76.05,1123.23,-245,-77,-60
1512177686,-0.0284,-0.0237,0.1123,1.16,46.39,944.82,-245,-77,-60
1512177686,-0.0234,-0.0033,0.1057,-23.19,54.44,957.34,-245,-77,-60
1512177686,-0.0045,0.0451,0.0943,9.64,39.18,918.21,-244,-75,-66
1512177686,0.0057,0.0724,0.0904,-1.04,46.69,980.41,-244,-75,-66
1512177686,0.0040,0.0535,0.0912,-47.36,28.08,1025.33,-244,-75,-66
1512177686,-0.0044,0.0121,0.0928,-51.82,47.06,909.79,-244,-75,-66
1512177686,-0.0004,-0.0156,0.0919,-104.98,70.56,1011.90,-244,-75,-66
1512177686,-0.0060,-0.0306,0.1161,51.45,92.22,1073.61,-249,-84,-77
1512177686,-0.0503,-0.0651,0.1107,-80.69,83.74,1029.72,-249,-84,-77
1512177686,-0.0148,-0.0533,0.0834,-218.44,38.88,1023.74,-249,-84,-77
1512177686,0.0071,-0.0160,0.0880,-42.24,72.02,921.87,-249,-84,-77
1512177686,-0.0032,-0.0269,0.0732,-29.72,58.11,1039.31,-237,-79,-49
1512177686,0.0067,-0.0162,0.0688,-51.88,79.65,1007.39,-237,-79,-49
1512177686,-0.0273,-0.0585,0.0667,-11.41,28.50,981.99,-237,-79,-49
1512177686,-0.0117,-0.0390,0.0611,-29.97,28.08,943.54,-237,-79,-49
1512177686,-0.0077,-0.0200,0.0690,-39.55,57.31,933.53,-237,-79,-49
1512177686,-0.0067,-0.0123,0.0711,-2.20,79.96,1000.00,-245,-70,-60
1512177686,-0.0116,0.0057,0.0807,1.89,55.91,997.13,-245,-70,-60
1512177686,0.0068,0.0032,0.0818,-8.73,60.91,1022.34,-245,-70,-60
1512177686,0.0123,0.0015,0.0835,-68.30,88.20,1015.99,-245,-70,-60
1512177686,0.0173,-0.0041,0.0750,-52.73,35.58,1032.29,-245,-70,-60
1512177686,0.0104,0.0056,0.0738,-7.08,49.07,977.72,-235,-95,-40
1512177686,0.0003,0.0434,0.0663,-22.89,43.76,944.34,-235,-95,-40
1512177686,-0.0048,0.0577,0.0615,-51.39,46.81,1052.19,-235,-95,-40
1512177686,-0.0216,0.0112,0.0575,-44.13,21.18,957.89,-235,-95,-40
1512177686,-0.0146,-0.0161,0.0635,-103.94,0.55,1005.43,-238,-84,-40
1512177686,-0.0136,-0.0272,0.0739,-136.05,74.58,1039.43,-238,-84,-40
1512177686,0.0073,-0.0008,0.0800,-125.67,33.33,1054.14,-238,-84,-40
1512177686,0.0150,-0.0053,0.0842,-70.86,69.70,1013.24,-238,-84,-40
1512177686,0.0119,-0.0125,0.0787,-54.38,54.20,996.22,-238,-84,-40
1512177686,0.0127,-0.0209,0.0694,-10.01,56.64,1054.20,-244,-86,-42
1512177687,0.0005,-0.0364,0.0627,28.02,58.47,1012.02,-244,-86,-42
1512177687,-0.0015,-0.0121,0.0542,72.45,55.79,967.77,-244,-86,-42
1512177687,-0.0100,-0.0064,0.0569,46.57,25.51,964.97,-244,-86,-42
1512177687,0.0146,0.0065,0.0515,55.79,36.80,946.41,-263,-88,-37
1512177687,-0.0019,-0.0079,0.0666,66.83,24.23,967.04,-263,-88,-37
1512177687,0.0385,0.0356,0.0728,-7.02,81.18,951.35,-263,-88,-37
1512177687,0.0127,0.0426,0.0672,30.21,26.18,961.43,-263,-88,-37
1512177687,0.0157,0.0405,0.0602,29.42,48.95,953.49,-263,-88,-37
1512177687,0.0088,0.0181,0.0613,10.68,72.57,1004.39,-235,-91,-50
1512177687,0.0182,0.0076,0.0603,-15.26,47.97,1017.58,-235,-91,-50
1512177687,0.0160,0.0232,0.0651,-18.55,84.23,1001.65,-235,-91,-50
1512177687,0.0146,0.0393,0.0660,-4.88,80.38,982.06,-235,-91,-50
1512177687,0.0184,0.0435,0.0646,-1.71,77.82,987.12,-235,-91,-50
1512177687,0.0210,0.0419,0.0633,-42.11,82.21,993.96,-235,-91,-33
1512177687,0.0140,0.0254,0.0595,-87.40,27.16,1049.93,-235,-91,-33
1512177687,0.0150,0.0234,0.0615,-63.96,80.63,1006.53,-235,-91,-33
1512177687,0.0007,0.0301,0.0634,-56.21,77.15,992.55,-235,-91,-33
1512177687,-0.0012,0.0294,0.0636,-19.71,64.94,991.09,-253,-84,-40
1512177687,0.0031,0.0242,0.0630,-35.95,46.26,1063.29,-253,-84,-40
1512177687,0.0019,0.0051,0.0674,4.15,57.25,1023.44,-253,-84,-40
1512177687,-0.0089,-0.0047,0.0751,9.52,57.19,1033.69,-253,-84,-40
1512177687,-0.0241,-0.0108,0.0784,-0.61,68.85,991.64,-253,-84,-40
1512177687,-0.0016,-0.0081,0.0788,-32.04,75.44,1054.32,-240,-79,-52
1512177687,0.0035,-0.0190,0.0806,13.12,53.10,1045.59,-240,-79,-52
1512177687,-0.0081,-0.0210,0.0912,-3.11,50.05,1008.30,-240,-79,-52
1512177687,0.0004,0.0113,0.0917,22.34,69.46,952.58,-240,-79,-52
1512177687,-0.0001,0.0361,0.0912,62.93,67.44,948.61,-240,-79,-52
1512177687,0.0025,0.0280,0.0925,21.24,82.46,1031.37,-237,-86,-42
1512177687,-0.0080,0.0100,0.1012,28.08,46.63,978.82,-237,-86,-42
1512177687,-0.0067,0.0029,0.1061,34.36,64.39,990.97,-237,-86,-42
1512177687,-0.0193,0.0057,0.1252,21.85,74.89,1012.51,-237,-86,-42
1512177687,-0.0137,0.0216,0.1281,17.64,63.96,1036.68,-256,-81,-47
1512177687,0.0015,0.0394,0.1372,21.79,66.22,1034.24,-256,-81,-47
1512177687,0.0036,0.0194,0.1417,66.59,59.33,926.64,-256,-81,-47
1512177687,0.0075,0.0134,0.1453,31.68,45.47,965.39,-256,-81,-47
1512177687,0.0072,-0.0043,0.1461,44.43,74.95,903.26,-256,-81,-47
1512177687,0.0225,0.0161,0.1555,16.24,40.34,941.77,-256,-98,-57
1512177688,0.0435,0.0579,0.1539,68.54,64.21,947.27,-256,-98,-57
1512177688,0.0406,0.0704,0.1605,81.91,34.06,1011.17,-256,-98,-57
1512177688,0.0481,0.0518,0.1558,89.54,20.69,1070.01,-256,-98,-57
1512177688,0.0459,0.0324,0.1676,4.46,36.93,983.76,-256,-98,-57
1512177688,0.0360,0.0181,0.1707,85.39,36.56,1043.58,-267,-88,-44
1512177688,0.0298,0.0109,0.1874,58.59,23.86,1020.69,-267,-88,-44
1512177688,0.0366,0.0111,0.1907,-15.69,42.79,1060.06,-267,-88,-44
1512177688,0.0288,-0.0165,0.2019,22.09,42.54,1074.77,-267,-88,-44
1512177688,0.0172,-0.0360,0.2085,32.53,46.51,1051.64,-275,-107,-38
1512177688,0.0127,-0.0214,0.2108,74.04,40.65,944.15,-275,-107,-38
1512177688,0.0168,0.0048,0.2081,119.32,30.15,883.91,-275,-107,-38
1512177688,0.0218,0.0220,0.2088,70.50,45.72,994.51,-275,-107,-38
1512177688,0.0226,-0.0154,0.2101,136.35,28.56,1087.22,-275,-107,-38
1512177688,0.0229,0.0000,0.2212,95.64,52.19,1028.56,-268,-93,-28
1512177688,0.0309,0.0216,0.2290,75.13,47.24,1021.48,-268,-93,-28
1512177688,0.0248,0.0543,0.2354,78.55,52.80,1068.66,-268,-93,-28
1512177688,0.0322,0.0350,0.2385,97.47,36.25,971.07,-268,-93,-28
1512177688,0.0097,0.0055,0.2543,89.84,-7.81,951.17,-268,-93,-28
1512177688,-0.0200,-0.0360,0.2667,65.43,33.69,839.60,-270,-105,-40
1512177688,-0.0003,-0.0325,0.2831,55.85,12.45,952.58,-270,-105,-40
1512177688,-0.0039,-0.0011,0.2924,89.05,67.99,1055.05,-270,-105,-40
1512177688,-0.0036,0.0385,0.2951,141.78,41.93,969.91,-270,-105,-40
1512177688,-0.0075,0.0370,0.2939,112.30,11.72,1094.97,-282,-114,-38
1512177688,-0.0029,0.0214,0.2979,210.69,39.73,1055.42,-282,-114,-38
1512177688,-0.0210,0.0073,0.3031,122.74,9.52,949.40,-282,-114,-38
1512177688,-0.0103,0.0136,0.3105,143.37,39.79,1016.85,-282,-114,-38
1512177688,0.0061,0.0150,0.3068,123.72,20.69,960.51,-282,-114,-38
1512177688,0.0005,0.0068,0.3246,136.17,12.21,962.22,-288,-130,-37
1512177688,0.0060,-0.0004,0.3324,119.57,13.12,948.24,-288,-130,-37
1512177688,-0.0049,0.0085,0.3426,126.04,0.18,953.61,-288,-130,-37
1512177688,0.0009,0.0330,0.3442,136.35,26.61,982.79,-288,-130,-37
1512177688,0.0166,0.0627,0.3446,10.07,-4.58,998.11,-289,-132,-35
1512177688,0.0145,0.0654,0.3376,110.84,44.56,1137.76,-289,-132,-35
1512177688,-0.0353,0.0077,0.3462,119.81,-11.96,938.42,-289,-132,-35
1512177688,-0.0190,-0.0063,0.3467,93.38,21.36,935.85,-289,-132,-35
1512177688,-0.0142,0.0087,0.3483,134.28,25.94,1140.99,-289,-132,-35
1512177688,-0.0181,-0.0158,0.3491,140.38,-28.75,1102.78,-291,-144,-40
1512177688,-0.0437,-0.0405,0.3549,120.61,24.35,934.33,-291,-144,-40
1512177689,-0.0489,-0.0336,0.3613,116.15,17.03,947.94,-291,-144,-40
1512177689,-0.0288,-0.0254,0.3627,181.34,31.98,944.76,-291,-144,-40
1512177689,-0.0378,-0.0280,0.3663,91.43,-5.43,884.46,-291,-144,-40
1512177689,-0.0274,-0.0405,0.3735,91.74,-6.59,989.01,-274,-155,-40
1512177689,-0.0158,-0.0605,0.3776,95.03,53.83,991.70,-274,-155,-40
1512177689,-0.0039,-0.0589,0.3792,152.47,-31.43,925.35,-274,-155,-40
1512177689,0.0233,-0.0747,0.3776,123.23,-9.03,967.41,-274,-155,-40
1512177689,0.0032,-0.0642,0.3815,204.90,-10.19,937.01,-296,-167,-35
1512177689,0.0160,-0.0542,0.3872,210.88,-6.16,1026.86,-296,-167,-35
1512177689,0.0313,-0.0119,0.3916,224.24,-21.48,990.42,-296,-167,-35
1512177689,0.0040,0.0120,0.3912,189.70,-5.80,1042.85,-296,-167,-35
1512177689,0.0096,0.0280,0.3996,149.05,65.80,1133.67,-296,-167,-35
1512177689,0.0088,0.0493,0.3807,142.88,-44.62,1064.27,-305,-179,-47
1512177689,0.0081,0.0836,0.4028,232.12,6.23,1031.92,-305,-179,-47
1512177689,-0.0134,0.0712,0.3653,333.50,-56.40,1128.85,-305,-179,-47
1512177689,-0.0288,0.0678,0.4125,271.36,-8.67,1030.52,-305,-179,-47
1512177689,-0.0060,0.0378,0.4316,155.15,70.80,1021.73,-305,-179,-47
1512177689,-0.0007,0.0483,0.4373,144.23,60.24,1047.73,-300,-199,-86
1512177689,0.0182,0.0597,0.4381,158.75,63.96,1021.61,-300,-199,-86
1512177689,0.0031,0.0603,0.4220,164.43,23.86,1034.55,-300,-199,-86
1512177689,0.0039,0.0534,0.4360,140.38,93.08,977.05,-300,-199,-86
1512177689,-0.0117,0.0437,0.4254,137.27,13.00,1008.67,-309,-208,-71
1512177689,-0.0248,0.0495,0.4298,100.71,44.49,987.18,-309,-208,-71
1512177689,-0.0473,0.0333,0.4346,164.73,13.73,939.09,-309,-208,-71
1512177689,-0.0410,0.0402,0.4325,150.33,44.86,945.50,-309,-208,-71
1512177689,-0.0533,0.0197,0.4425,162.60,78.74,956.91,-309,-208,-71
1512177689,-0.0565,0.0124,0.4474,168.33,40.34,892.33,-303,-227,-99
1512177689,-0.0599,0.0077,0.4498,195.25,70.62,939.15,-303,-227,-99
1512177689,-0.0461,0.0136,0.4418,198.67,-8.12,1021.91,-303,-227,-99
1512177689,-0.0145,0.0565,0.4277,252.69,6.96,1056.46,-303,-227,-99
1512177689,-0.0008,0.0502,0.4228,226.50,9.09,1135.25,-303,-227,-99
1512177689,0.0099,0.0507,0.4300,250.85,41.69,1086.91,-321,-241,-103
1512177689,-0.0009,0.0344,0.4228,181.82,18.13,1005.00,-321,-241,-103
1512177689,-0.0087,0.0079,0.4296,145.69,77.51,953.25,-321,-241,-103
1512177689,0.0190,-0.0145,0.4289,14.47,-49.19,1024.35,-321,-241,-103
1512177689,0.0041,-0.0390,0.4225,101.75,16.36,951.17,-316,-239,-88
1512177689,-0.0045,-0.0542,0.4226,114.87,18.43,940.73,-316,-239,-88
1512177689,-0.0136,-0.0478,0.4278,166.08,68.12,1050.66,-316,-239,-88
1512177690,-0.0212,0.0089,0.4250,173.03,70.68,1060.55,-316,-239,-88
1512177690,-0.0205,0.0421,0.4161,156.37,41.93,988.59,-316,-239,-88
1512177690,0.0049,0.0652,0.4293,165.53,72.51,1071.78,-289,-245,-93
1512177690,0.0431,0.0288,0.4103,168.09,87.22,1070.68,-289,-245,-93
1512177690,0.0706,0.0820,0.4522,144.59,105.53,968.57,-289,-245,-93
1512177690,0.0313,0.0499,0.3816,184.20,77.15,991.88,-289,-245,-93
1512177690,0.0411,0.0601,0.4205,175.42,95.58,903.99,-289,-245,-93
1512177690,0.0378,0.0041,0.4021,220.34,76.66,1074.89,-303,-294,-113
1512177690,0.0413,0.0205,0.4181,147.95,51.94,882.93,-303,-294,-113
1512177690,0.0465,0.0252,0.4228,259.89,70.19,938.66,-303,-294,-113
1512177690,0.0550,0.0035,0.4107,188.05,28.44,906.19,-303,-294,-113
1512177690,0.0443,-0.0028,0.4196,213.62,27.89,949.22,-309,-285,-111
1512177690,0.0629,0.0040,0.4107,185.67,34.67,934.94,-309,-285,-111
1512177690,0.0430,0.0004,0.4234,186.83,60.00,959.78,-309,-285,-111
1512177690,0.0651,-0.0224,0.4067,212.16,73.79,917.60,-309,-285,-111
1512177690,0.0356,-0.0144,0.4087,276.25,15.69,907.35,-309,-285,-111
1512177690,0.0067,0.0007,0.3955,197.14,91.06,895.45,-300,-308,-116
1512177690,0.0233,0.0081,0.4055,99.06,66.65,1042.11,-300,-308,-116
1512177690,0.0190,-0.0173,0.4088,117.19,8.00,1098.88,-300,-308,-116
1512177690,0.0111,-0.0016,0.4012,130.62,46.33,914.73,-300,-308,-116
1512177690,0.0141,-0.0035,0.4095,104.31,62.07,978.88,-314,-304,-110
1512177690,0.0206,-0.0225,0.4076,162.48,60.55,971.31,-314,-304,-110
1512177690,0.0009,-0.0370,0.4100,191.77,86.24,987.37,-314,-304,-110
1512177690,0.0096,-0.0414,0.4089,160.40,51.27,1084.72,-314,-304,-110
1512177690,0.0297,0.0168,0.3878,93.75,92.83,1081.67,-314,-304,-110
1512177690,0.0245,0.0064,0.3919,120.36,65.49,1008.48,-314,-315,-130
1512177690,0.0044,0.0222,0.3953,201.11,60.06,961.55,-314,-315,-130
1512177690,-0.0209,0.0446,0.3911,219.06,32.47,929.57,-314,-315,-130
1512177690,-0.0166,0.0445,0.3973,206.85,21.91,913.51,-314,-315,-130
1512177690,-0.0020,0.0249,0.3951,129.76,60.91,984.13,-314,-315,-130
1512177690,0.0039,-0.0017,0.3906,135.56,35.16,1004.70,-316,-327,-118
1512177690,-0.0053,-0.0370,0.3928,115.60,31.31,999.82,-316,-327,-118
1512177690,0.0091,-0.0119,0.3935,62.26,77.21,1036.44,-316,-327,-118
1512177690,0.0165,0.0116,0.3918,126.83,44.13,960.21,-316,-327,-118
1512177690,0.0129,0.0037,0.3949,178.77,60.79,960.94,-303,-329,-110
1512177690,0.0037,0.0154,0.3908,199.16,94.18,993.90,-303,-329,-110
1512177690,-0.0073,0.0238,0.3874,152.77,46.14,1045.96,-303,-329,-110
1512177690,-0.0213,0.0128,0.3711,181.88,78.80,965.33,-303,-329,-110
1512177691,-0.0180,0.0185,0.3874,182.68,45.10,927.55,-303,-329,-110
1512177691,-0.0137,0.0137,0.3911,177.43,59.20,1011.11,-311,-343,-137
1512177691,-0.0105,0.0266,0.3903,123.05,81.48,949.16,-311,-343,-137
1512177691,0.0071,0.0269,0.3895,118.59,61.46,1053.16,-311,-343,-137
1512177691,0.0079,0.0108,0.3907,97.90,58.35,957.52,-311,-343,-137
1512177691,-0.0081,-0.0130,0.3887,76.11,60.00,934.51,-311,-343,-137
1512177691,0.0176,-0.0121,0.3866,80.14,74.77,980.47,-295,-349,-121
1512177691,0.0052,0.0036,0.3850,124.63,28.56,1053.89,-295,-349,-121
1512177691,0.0145,0.0146,0.3808,94.30,102.48,1063.96,-295,-349,-121
1512177691,0.0264,0.0186,0.3751,112.12,58.47,1041.75,-295,-349,-121
1512177691,-0.0112,0.0471,0.3746,90.33,31.49,1095.95,-281,-345,-108
1512177691,-0.0029,0.0310,0.3730,154.11,56.64,970.95,-281,-345,-108
1512177691,0.0063,0.0318,0.3650,39.61,80.51,1040.04,-281,-345,-108
1512177691,0.0028,0.0333,0.3718,104.61,68.30,1004.82,-281,-345,-108
1512177691,0.0097,0.0377,0.3779,94.42,33.20,982.42,-281,-345,-108
1512177691,-0.0051,0.0430,0.3795,89.60,95.89,910.16,-296,-361,-120
1512177691,-0.0063,0.0093,0.3959,97.29,32.84,966.55,-296,-361,-120
1512177691,0.0107,0.0079,0.3866,219.79,31.80,949.58,-296,-361,-120
1512177691,0.0029,-0.0027,0.3828,169.49,75.62,948.79,-296,-361,-120
1512177691,0.0198,0.0395,0.3748,118.53,36.74,1032.10,-296,-361,-120
1512177691,-0.0104,0.0893,0.3726,123.96,112.49,987.98,-274,-384,-108
1512177691,0.0012,0.0522,0.3699,124.88,59.69,1036.87,-274,-384,-108
1512177691,0.0161,0.0477,0.3679,123.11,83.25,1013.31,-274,-384,-108
1512177691,0.0064,0.0332,0.3690,114.14,87.04,944.58,-274,-384,-108
1512177691,0.0166,0.0534,0.3695,101.44,107.79,929.69,-268,-368,-123
1512177691,0.0276,0.0495,0.3734,73.67,52.98,989.38,-268,-368,-123
1512177691,0.0285,0.0369,0.3755,83.01,95.89,1015.81,-268,-368,-123
1512177691,0.0164,0.0449,0.3796,47.55,93.26,998.72,-268,-368,-123
1512177691,0.0021,0.0459,0.3796,107.73,114.07,1055.79,-268,-368,-123
1512177691,0.0107,0.0426,0.3719,104.00,131.23,891.97,-267,-380,-104
1512177691,0.0097,0.0711,0.3602,74.10,147.09,860.17,-267,-380,-104
1512177691,-0.0117,0.0240,0.3848,192.14,97.05,882.75,-267,-380,-104
1512177691,-0.0047,0.0249,0.3887,188.72,132.75,924.68,-267,-380,-104
1512177691,0.0031,0.0398,0.3855,203.06,89.48,998.72,-247,-379,-126
1512177691,0.0220,0.0469,0.3832,147.09,118.59,1003.85,-247,-379,-126
1512177691,0.0208,0.0578,0.3887,137.15,135.80,971.13,-247,-379,-126
1512177691,-0.0048,0.0557,0.3891,211.67,129.94,916.56,-247,-379,-126
1512177691,-0.0092,0.0254,0.3929,151.12,137.33,1033.69,-247,-379,-126
1512177692,-0.0063,0.0257,0.3855,174.32,52.43,982.60,-258,-393,-106
1512177692,0.0084,0.0266,0.3862,63.96,128.91,983.89,-258,-393,-106
1512177692,-0.0244,0.0099,0.3924,77.70,86.30,1029.11,-258,-393,-106
1512177692,-0.0582,0.0318,0.4019,100.04,88.38,1006.90,-258,-393,-106
1512177692,-0.0722,0.0192,0.4052,160.16,74.71,1033.33,-258,-393,-106
1512177692,-0.0411,0.0185,0.4049,37.78,92.10,1030.58,-242,-394,-108
1512177692,-0.0085,-0.0193,0.3884,151.55,102.42,926.82,-242,-394,-108
1512177692,-0.0099,-0.0150,0.3699,114.50,132.81,953.74,-242,-394,-108
1512177692,-0.0280,-0.0273,0.3981,160.95,129.21,1070.19,-242,-394,-108
1512177692,-0.0077,-0.0108,0.3939,33.51,157.78,1016.36,-217,-412,-125
1512177692,0.0003,-0.0120,0.4016,17.27,90.58,1005.62,-217,-412,-125
1512177692,-0.0262,-0.0317,0.3887,67.02,145.02,849.91,-217,-412,-125
1512177692,-0.0479,-0.0209,0.4029,218.87,98.27,850.52,-217,-412,-125
1512177692,-0.0064,-0.0184,0.4140,184.08,137.70,877.69,-217,-412,-125
1512177692,0.0009,-0.0176,0.4250,243.71,91.92,883.36,-224,-412,-118
1512177692,0.0015,-0.0224,0.4076,232.91,96.62,913.64,-224,-412,-118
1512177692,0.0152,-0.0394,0.4137,197.81,110.05,1006.96,-224,-412,-118
1512177692,0.0558,-0.0032,0.4140,72.39,133.18,1030.40,-224,-412,-118
1512177692,0.0186,-0.0152,0.4125,176.64,82.09,1009.83,-224,-412,-118
1512177692,0.0186,-0.0019,0.4153,153.56,187.99,994.63,-224,-430,-132
1512177692,0.0037,-0.0186,0.4262,210.08,105.65,927.12,-224,-430,-132
1512177692,0.0260,-0.0011,0.4171,119.26,144.35,935.06,-224,-430,-132
1512177692,0.0306,-0.0003,0.4234,77.51,119.51,1012.08,-224,-430,-132
1512177692,0.0201,0.0397,0.4226,126.46,165.65,1025.09,-196,-440,-108
1512177692,-0.0052,0.0316,0.4238,200.50,131.71,1080.51,-196,-440,-108
1512177692,0.0057,0.0305,0.4212,197.88,164.92,985.96,-196,-440,-108
1512177692,-0.0134,0.0467,0.4233,227.11,120.48,950.68,-196,-440,-108
1512177692,0.0084,0.0650,0.4232,132.08,162.78,961.98,-196,-440,-108
1512177692,0.0224,0.0495,0.4300,165.95,157.84,1013.49,-193,-444,-145
1512177692,0.0182,0.0515,0.4317,143.31,110.17,891.78,-193,-444,-145
1512177692,0.0210,0.0531,0.4269,147.71,105.04,985.05,-193,-444,-145
1512177692,0.0088,0.0409,0.4300,200.13,136.17,905.46,-193,-444,-145
1512177692,0.0217,0.0348,0.4372,190.98,62.50,1031.31,-195,-438,-110
1512177692,0.0466,0.0614,0.4256,94.12,190.06,904.66,-195,-438,-110
1512177692,0.0196,0.0368,0.4309,68.54,169.01,994.20,-195,-438,-110
1512177692,0.0173,0.0272,0.4269,141.11,77.39,923.83,-195,-438,-110
1512177692,0.0294,0.0145,0.4285,105.35,183.78,964.54,-195,-438,-110
1512177692,0.0707,0.0016,0.4305,159.42,24.72,948.36,-175,-426,-115
1512177693,0.0931,-0.0201,0.4009,101.68,152.10,873.41,-175,-426,-115
1512177693,0.0053,0.0188,0.4330,135.38,62.62,1005.62,-175,-426,-115
1512177693,0.0079,0.0079,0.4469,143.31,46.20,967.83,-175,-426,-115
1512177693,0.0294,-0.0316,0.4466,39.00,57.80,882.63,-175,-426,-115
1512177693,0.0410,-0.0546,0.4559,16.97,51.51,1059.45,-166,-438,-89
1512177693,0.0051,-0.0310,0.4470,72.02,60.18,996.09,-166,-438,-89
1512177693,0.0253,-0.0353,0.4450,48.83,31.56,1082.64,-166,-438,-89
1512177693,0.0117,-0.0208,0.4621,107.06,38.02,1033.69,-166,-438,-89
1512177693,0.0044,-0.0284,0.4442,130.07,53.53,1041.02,-166,-438,-89
1512177693,0.0284,-0.0241,0.4238,51.94,92.35,999.33,-156,-438,-89
1512177693,0.0113,-0.0393,0.4278,144.10,44.98,1033.08,-156,-438,-89
1512177693,0.0253,-0.0383,0.4294,109.37,74.16,1026.06,-156,-438,-89
1512177693,0.0350,0.0127,0.4282,81.91,167.48,1015.87,-156,-438,-89
1512177693,0.0365,0.0672,0.4230,141.11,160.77,1101.99,-165,-454,-101
1512177693,0.0091,0.1061,0.4208,227.23,69.82,1103.21,-165,-454,-101
1512177693,-0.0194,0.1056,0.4119,284.55,184.33,1037.35,-165,-454,-101
1512177693,-0.0200,0.0976,0.4265,290.10,61.28,931.21,-165,-454,-101
1512177693,-0.0044,0.0936,0.4439,91.31,36.50,900.94,-165,-454,-101
1512177693,0.0281,-0.0320,0.4249,-15.14,106.20,978.33,-154,-468,-115
1512177693,0.0445,-0.0459,0.4306,101.93,35.83,1079.10,-154,-468,-115
1512177693,0.1135,-0.0188,0.4264,6.29,76.78,763.06,-154,-468,-115
1512177693,0.0172,-0.0513,0.4019,136.29,75.32,838.99,-154,-468,-115
1512177693,-0.0129,-0.0660,0.4828,258.79,10.50,839.78,-133,-465,-94
1512177693,-0.0008,-0.0581,0.4626,-51.88,38.45,950.87,-133,-465,-94
1512177693,-0.0212,-0.0955,0.4156,79.41,63.54,976.14,-133,-465,-94
1512177693,0.0165,-0.0470,0.4041,25.88,21.12,1008.97,-133,-465,-94
1512177693,-0.0190,-0.0356,0.4053,120.91,63.35,929.32,-133,-465,-94
1512177693,0.0209,-0.0450,0.4221,140.99,-15.63,882.93,-117,-446,-79
1512177693,0.0150,0.0289,0.4478,131.35,54.57,862.12,-117,-446,-79
1512177693,0.0156,-0.0282,0.4157,123.66,70.25,1008.36,-117,-446,-79
1512177693,0.0209,-0.0209,0.3538,153.14,-9.22,964.97,-117,-446,-79
1512177693,0.0210,0.0097,0.3645,223.82,-44.49,1008.00,-117,-446,-79
1512177693,0.0116,-0.0148,0.4210,215.94,-42.30,970.95,-121,-484,-123
1512177693,0.0312,-0.0137,0.4312,70.50,-43.15,993.59,-121,-484,-123
1512177693,0.0146,0.0095,0.4201,110.11,-23.19,963.50,-121,-484,-123
1512177693,0.0292,-0.0005,0.4334,134.09,-3.85,1042.05,-121,-484,-123
1512177693,0.0286,0.0141,0.4317,160.34,-19.23,1068.73,-117,-488,-133
1512177694,-0.0035,0.0081,0.4461,189.33,-39.12,1010.86,-117,-488,-133
1512177694,0.0364,-0.0138,0.4398,80.26,-39.43,917.42,-117,-488,-133
1512177694,0.0081,0.0051,0.4252,107.54,-31.80,949.52,-117,-488,-133
1512177694,-0.0037,0.0017,0.4293,161.93,15.69,940.80,-117,-488,-133
1512177694,-0.0182,0.0224,0.4300,92.77,-9.34,1059.63,-101,-479,-121
1512177694,-0.0056,0.0276,0.4346,153.26,15.32,962.89,-101,-479,-121
1512177694,0.0158,0.0188,0.4238,210.27,70.01,1092.53,-101,-479,-121
1512177694,0.0932,0.0531,0.4282,166.14,37.48,1082.46,-101,-479,-121
1512177694,0.0493,0.0870,0.4393,143.01,96.31,920.23,-101,-479,-121
1512177694,0.0591,0.0554,0.4210,196.78,-100.16,973.45,-75,-477,-133
1512177694,0.0521,0.0229,0.4362,134.28,-3.85,944.03,-75,-477,-133
1512177694,0.0328,0.0184,0.4376,129.82,-20.87,923.03,-75,-477,-133
1512177694,0.0003,0.0146,0.4482,167.30,-1.71,913.70,-75,-477,-133
1512177694,-0.0061,-0.0134,0.4412,101.38,15.01,965.58,-84,-475,-128
1512177694,-0.0686,-0.0037,0.4515,125.12,-75.26,1013.61,-84,-475,-128
1512177694,-0.0123,-0.0180,0.4445,81.97,-7.45,922.36,-84,-475,-128
1512177694,0.0016,-0.0344,0.4510,157.78,18.80,974.43,-84,-475,-128
1512177694,-0.0623,0.0017,0.4529,133.73,-25.33,1014.34,-84,-475,-128
1512177694,-0.1465,0.0373,0.4498,84.35,-109.07,1146.30,-72,-467,-113
1512177694,-0.0664,-0.0077,0.4360,195.80,20.87,943.66,-72,-467,-113
1512177694,0.0008,-0.0427,0.4418,137.08,-69.03,1076.11,-72,-467,-113
1512177694,-0.0226,-0.0132,0.4409,193.18,43.27,991.39,-72,-467,-113
1512177694,0.0091,-0.0350,0.4445,47.49,-42.42,1104.25,-50,-477,-133
1512177694,0.0200,-0.0708,0.4457,104.61,16.24,946.47,-50,-477,-133
1512177694,0.0180,-0.0427,0.4534,192.69,-80.63,1040.89,-50,-477,-133
1512177694,0.0193,-0.0161,0.4430,250.18,-43.58,970.28,-50,-477,-133
1512177694,0.0390,-0.0214,0.4225,199.16,1.16,978.64,-50,-477,-133
1512177694,-0.0108,-0.0069,0.4163,297.61,-76.05,1020.39,-57,-477,-103
1512177694,-0.0084,0.0418,0.4041,173.16,-45.72,936.95,-57,-477,-103
1512177694,-0.0294,0.0322,0.4044,211.67,-78.00,976.81,-57,-477,-103
1512177694,-0.0130,0.0233,0.4064,202.45,-47.18,1077.45,-57,-477,-103
1512177694,-0.0041,0.0276,0.4028,76.29,-47.49,1052.37,-57,-477,-103
1512177694,-0.0141,0.0180,0.3977,117.55,-67.99,1017.09,-31,-458,-142
1512177694,-0.0193,0.0146,0.3967,160.46,-76.17,976.81,-31,-458,-142
1512177694,-0.0220,0.0277,0.3875,166.38,-63.78,999.94,-31,-458,-142
1512177694,-0.0300,0.0447,0.3820,145.51,-41.14,1058.47,-31,-458,-142
1512177694,-0.0301,0.0443,0.3775,164.55,-69.09,1022.71,-24,-461,-132
1512177694,-0.0181,0.0515,0.3623,108.58,-43.03,1029.30,-24,-461,-132
1512177695,-0.0254,0.0598,0.3523,160.83,-64.58,994.93,-24,-461,-132
1512177695,-0.0280,0.0683,0.3437,75.20,-55.91,1025.76,-24,-461,-132
1512177695,-0.0165,0.0658,0.3366,59.33,-57.01,1016.54,-24,-461,-132
1512177695,-0.0137,0.0502,0.3373,53.22,-65.31,969.60,-5,-456,-130
1512177695,0.0284,0.0313,0.3281,44.01,-45.17,997.25,-5,-456,-130
1512177695,0.0222,0.0348,0.3297,67.81,-71.53,933.29,-5,-456,-130
1512177695,-0.0210,0.0676,0.3193,138.67,-123.05,1010.50,-5,-456,-130
1512177695,-0.0111,0.0625,0.3075,6.41,-87.83,928.77,-8,-431,-99
1512177695,0.0146,0.0282,0.2917,102.78,-85.27,963.68,-8,-431,-99
1512177695,0.0253,0.0281,0.2751,48.83,-99.79,945.62,-8,-431,-99
1512177695,0.0173,0.0583,0.2433,52.98,-66.41,929.14,-8,-431,-99
1512177695,-0.0104,0.0618,0.2445,45.04,-74.65,1020.20,-8,-431,-99
1512177695,-0.0457,0.0708,0.2466,28.69,-99.00,1054.87,5,-428,-126
1512177695,-0.0044,0.0557,0.2340,-28.14,-36.74,1048.77,5,-428,-126
1512177695,-0.0124,0.0322,0.2341,38.33,-63.48,1038.57,5,-428,-126
1512177695,-0.0446,0.0282,0.2213,20.02,-82.46,1095.34,5,-428,-126
1512177695,0.0015,0.0177,0.2085,6.53,-87.46,1056.58,5,-428,-126
1512177695,-0.0055,0.0336,0.1909,-40.10,-79.96,1020.63,10,-416,-84
1512177695,0.0178,0.0312,0.1804,13.49,-80.69,1011.60,10,-416,-84
1512177695,-0.0194,0.0537,0.1700,24.60,-95.34,946.04,10,-416,-84
1512177695,-0.0237,0.0445,0.1614,43.15,-68.60,1019.35,10,-416,-84
1512177695,-0.0107,0.0297,0.1586,61.10,-103.82,997.92,7,-405,-84
1512177695,-0.0246,0.0364,0.1498,27.22,-120.24,1075.62,7,-405,-84
1512177695,-0.0028,0.0268,0.1377,-27.89,-61.83,1033.02,7,-405,-84
1512177695,-0.0019,0.0089,0.1403,-16.72,-108.40,966.06,7,-405,-84
1512177695,-0.0150,0.0201,0.1345,4.15,-115.17,985.11,7,-405,-84
1512177695,-0.0109,0.0075,0.1220,47.12,-106.08,983.83,14,-401,-81
1512177695,0.0190,-0.0201,0.1534,33.81,-152.83,1057.01,14,-401,-81
1512177695,0.0189,0.0071,0.0458,-26.37,-82.34,976.14,14,-401,-81
1512177695,-0.0206,0.0052,0.0972,34.67,-139.83,951.72,14,-401,-81
1512177695,-0.0728,0.0453,0.0832,-39.55,-24.96,1202.82,14,-401,-81
1512177695,-0.0314,0.0003,0.1221,-171.87,-186.65,1059.14,19,-379,-62
1512177695,-0.1206,0.1775,0.0931,-64.03,-137.70,1262.27,19,-379,-62
1512177695,-0.0490,0.0417,0.0783,-49.32,-124.33,985.17,19,-379,-62
1512177695,-0.0297,0.0518,0.0783,36.19,-142.40,1102.23,19,-379,-62
1512177695,0.0023,0.0091,0.0700,38.70,-70.07,882.26,35,-391,-71
1512177695,0.0025,0.0024,0.0703,-54.26,-96.50,1049.80,35,-391,-71
1512177695,-0.0049,0.0385,0.0756,-42.24,-120.18,1068.54,35,-391,-71
1512177696,-0.0173,0.0602,0.0650,-14.16,-92.22,1096.86,35,-391,-71
1512177696,-0.0072,0.0474,0.0606,47.97,-146.48,992.61,35,-391,-71
1512177696,-0.0353,0.0688,0.0744,-81.79,-120.48,1060.55,43,-393,-69
1512177696,-0.0262,0.0618,0.0483,-41.56,-145.81,994.63,43,-393,-69
1512177696,-0.0437,0.0566,0.0390,-43.21,-151.92,1064.58,43,-393,-69
1512177696,-0.0353,0.0382,0.0270,-12.57,-117.74,1005.55,43,-393,-69
1512177696,-0.0425,0.0546,0.0205,-42.72,-112.79,993.41,43,-393,-69
