time_unix,rotate_x,rotate_y,rotate_z,acc_x,acc_y,acc_z,mag_x,mag_y,mag_z
1512177340,0.0003,0.0017,-0.0004,-63.84,-64.51,1010.01,1,1,3
1512177340,0.0025,0.0021,-0.0027,-67.75,-65.31,992.68,1,1,3
1512177340,-0.0009,0.0040,-0.0005,-61.77,-71.72,1008.30,1,1,3
1512177340,-0.0009,0.0013,-0.0008,-71.17,-67.81,1014.28,-1,5,13
1512177340,0.0001,-0.0004,-0.0016,-74.34,-69.27,1001.95,-1,5,13
1512177340,-0.0004,0.0009,-0.0016,-73.55,-68.66,999.45,-1,5,13
1512177340,-0.0007,-0.0011,-0.0011,-62.81,-68.73,1021.61,-1,5,13
1512177340,-0.0008,0.0015,0.0000,-66.22,-67.63,994.38,-1,5,13
1512177340,-0.0004,0.0023,-0.0005,-68.60,-64.27,1001.28,7,10,-1
1512177340,0.0000,0.0008,-0.0003,-66.04,-65.49,997.44,7,10,-1
1512177340,0.0019,0.0011,0.0004,-66.28,-70.43,1000.67,7,10,-1
1512177340,0.0003,0.0007,0.0003,-62.74,-69.95,1003.91,7,10,-1
1512177340,0.0000,0.0011,-0.0007,-71.11,-73.30,998.54,-1,22,-6
1512177340,-0.0001,0.0012,-0.0023,-66.28,-68.66,1001.71,-1,22,-6
1512177340,0.0001,0.0009,-0.0013,-62.93,-66.65,1009.77,-1,22,-6
1512177340,0.0009,0.0019,-0.0012,-72.39,-64.33,989.26,-1,22,-6
1512177340,0.0023,0.0033,-0.0011,-62.32,-67.99,1002.99,-1,22,-6
1512177340,0.0003,-0.0011,-0.0024,-73.67,-61.52,1009.09,5,5,6
1512177340,-0.0013,0.0003,-0.0005,-73.36,-73.18,1006.59,5,5,6
1512177340,0.0011,0.0023,-0.0005,-70.62,-65.43,1003.91,5,5,6
1512177340,-0.0004,0.0023,-0.0013,-65.86,-68.66,990.84,5,5,6
1512177340,-0.0007,0.0024,0.0000,-66.28,-65.67,1000.00,5,5,6
1512177340,-0.0012,0.0000,-0.0004,-66.96,-70.62,1012.33,8,12,6
1512177340,0.0001,0.0028,-0.0013,-74.83,-69.40,986.02,8,12,6
1512177340,0.0011,0.0031,-0.0009,-66.59,-72.02,993.96,8,12,6
1512177340,-0.0012,0.0021,-0.0007,-62.38,-64.15,1018.25,8,12,6
1512177340,-0.0008,0.0029,-0.0019,-70.74,-70.43,994.81,3,3,8
1512177340,-0.0009,0.0021,-0.0001,-66.53,-64.39,1001.53,3,3,8
1512177341,0.0017,0.0012,-0.0013,-65.43,-66.77,1003.66,3,3,8
1512177341,-0.0013,0.0012,-0.0005,-70.43,-72.94,1006.96,3,3,8
1512177341,-0.0011,0.0005,0.0000,-64.09,-66.41,1006.10,3,3,8
1512177341,-0.0009,0.0012,-0.0015,-74.58,-68.30,1001.53,0,3,5
1512177341,0.0000,0.0029,-0.0003,-69.46,-70.31,1003.17,0,3,5
1512177341,-0.0016,0.0017,-0.0017,-64.76,-67.57,1009.28,0,3,5
1512177341,-0.0003,0.0016,-0.0008,-72.69,-66.96,998.29,0,3,5
1512177341,-0.0016,0.0027,0.0000,-67.38,-70.62,1003.17,0,3,5
1512177341,-0.0005,0.0009,-0.0023,-68.85,-69.64,1009.83,10,3,-1
1512177341,0.0009,0.0011,-0.0001,-70.74,-69.46,992.19,10,3,-1
1512177341,0.0005,0.0020,-0.0007,-66.22,-65.55,992.86,10,3,-1
1512177341,0.0009,0.0015,-0.0025,-65.06,-68.42,1007.14,10,3,-1
1512177341,0.0003,0.0017,-0.0007,-69.27,-66.83,1009.09,5,19,6
1512177341,-0.0003,0.0033,-0.0011,-67.20,-70.43,1001.65,5,19,6
1512177341,-0.0008,-0.0003,-0.0027,-68.97,-67.14,1004.09,5,19,6
1512177341,0.0007,0.0012,-0.0020,-70.07,-71.41,996.46,5,19,6
1512177341,0.0005,0.0024,-0.0005,-65.73,-68.66,1005.86,5,19,6
1512177341,0.0005,0.0029,-0.0011,-67.50,-64.76,996.58,-1,5,-6
1512177341,0.0004,0.0017,-0.0005,-65.12,-70.19,1008.48,-1,5,-6
1512177341,-0.0001,0.0001,-0.0009,-69.34,-69.46,1016.24,-1,5,-6
1512177341,0.0005,0.0020,-0.0009,-66.65,-72.02,988.71,-1,5,-6
1512177341,-0.0008,0.0031,-0.0007,-66.65,-69.64,991.64,-3,3,-8
1512177341,-0.0024,-0.0004,-0.0017,-63.60,-66.77,1027.59,-3,3,-8
1512177341,-0.0009,0.0009,-0.0009,-68.66,-70.80,997.13,-3,3,-8
1512177341,0.0005,0.0013,-0.0004,-68.54,-68.60,994.26,-3,3,-8
1512177341,0.0004,0.0004,-0.0015,-65.19,-66.16,998.60,-3,3,-8
1512177341,0.0007,0.0033,-0.0013,-70.92,-68.05,990.11,17,-7,11
1512177341,-0.0015,0.0015,-0.0015,-63.11,-68.18,1002.87,17,-7,11
1512177341,-0.0005,-0.0005,-0.0024,-71.04,-67.75,1001.28,17,-7,11
1512177341,0.0004,0.0013,-0.0007,-73.61,-72.45,992.86,17,-7,11
1512177341,-0.0016,0.0017,-0.0021,-64.45,-68.54,1005.55,17,-7,11
1512177341,0.0004,0.0024,-0.0021,-68.48,-67.02,996.46,-8,12,-3
1512177341,0.0003,0.0023,-0.0004,-69.76,-71.59,1003.05,-8,12,-3
1512177341,-0.0029,0.0025,-0.0011,-60.49,-68.73,1016.30,-8,12,-3
1512177341,-0.0012,0.0037,-0.0005,-67.57,-70.19,1009.46,-8,12,-3
1512177341,0.0008,0.0024,-0.0007,-69.52,-59.75,1002.56,-1,-5,-3
1512177341,0.0004,-0.0004,-0.0013,-61.89,-67.44,1008.00,-1,-5,-3
1512177341,-0.0009,0.0013,0.0003,-64.45,-68.12,1007.45,-1,-5,-3
1512177342,-0.0012,0.0023,-0.0008,-66.22,-65.98,1013.67,-1,-5,-3
1512177342,0.0009,0.0013,0.0004,-70.86,-62.13,1009.09,-1,-5,-3
1512177342,0.0015,0.0001,0.0009,-62.62,-67.08,998.47,1,5,-10
1512177342,0.0016,-0.0009,-0.0007,-56.34,-66.89,1011.54,1,5,-10
1512177342,0.0005,0.0004,-0.0009,-72.45,-70.50,1003.23,1,5,-10
1512177342,0.0033,0.0028,-0.0013,-66.41,-69.27,1001.89,1,5,-10
1512177342,0.0000,0.0003,-0.0012,-64.45,-67.93,1004.39,5,5,-3
1512177342,-0.0003,0.0027,-0.0003,-67.63,-72.45,1008.54,5,5,-3
1512177342,0.0019,0.0021,0.0004,-63.42,-67.81,996.46,5,5,-3
1512177342,0.0013,0.0032,-0.0012,-63.66,-71.04,989.32,5,5,-3
1512177342,0.0009,0.0019,0.0005,-75.62,-68.97,1004.88,5,5,-3
1512177342,0.0001,0.0017,0.0011,-60.36,-59.14,1009.16,3,10,-8
1512177342,0.0009,0.0025,-0.0011,-73.61,-73.49,993.29,3,10,-8
1512177342,0.0009,0.0043,-0.0005,-81.36,-66.65,975.95,3,10,-8
1512177342,-0.0044,0.0017,-0.0021,-67.02,-63.23,1014.59,3,10,-8
1512177342,-0.0009,0.0025,-0.0031,-66.16,-70.25,997.01,3,10,-8
1512177342,0.0001,0.0033,-0.0008,-68.05,-67.63,1001.59,50,1,-44
1512177342,0.0011,-0.0008,-0.0016,-66.65,-67.20,1005.37,50,1,-44
1512177342,-0.0007,0.0005,-0.0020,-66.71,-76.66,1012.08,50,1,-44
1512177342,0.0023,-0.0003,0.0004,-59.75,-67.63,1011.11,50,1,-44
1512177342,0.0011,0.0011,0.0013,-71.84,-68.66,980.65,50,12,-37
1512177342,-0.0016,0.0003,0.0004,-63.11,-71.84,1010.13,50,12,-37
1512177342,-0.0021,-0.0003,-0.0007,-62.01,-69.03,1021.55,50,12,-37
1512177342,-0.0016,0.0021,-0.0027,-72.08,-72.27,1015.50,50,12,-37
1512177342,-0.0028,0.0053,-0.0017,-85.51,-62.13,1004.15,50,12,-37
1512177342,0.0012,0.0003,-0.0019,-65.25,-62.01,1021.30,38,-3,-45
1512177342,-0.0019,0.0015,0.0008,-64.82,-72.33,1009.22,38,-3,-45
1512177342,-0.0020,-0.0004,-0.0020,-62.62,-67.63,1039.55,38,-3,-45
1512177342,0.0008,-0.0017,-0.0024,-70.56,-67.26,999.21,38,-3,-45
1512177342,0.0008,0.0003,-0.0017,-69.95,-71.84,993.35,38,-3,-45
1512177342,0.0081,-0.0020,-0.0003,-62.50,-72.14,971.62,-12,5,-16
1512177342,0.0003,0.0019,-0.0007,-69.76,-60.49,1028.26,-12,5,-16
1512177342,-0.0009,0.0012,-0.0001,-58.17,-54.69,991.88,-12,5,-16
1512177342,0.0004,0.0019,0.0000,-54.38,-50.11,1004.82,-12,5,-16
1512177342,0.0031,0.0065,0.0001,-46.88,-66.22,929.93,-12,5,-16
1512177342,0.0048,-0.0017,0.0008,-42.11,-65.06,995.00,-1,-1,-6
1512177342,0.0032,0.0007,-0.0019,-59.69,-35.77,994.69,-1,-1,-6
1512177342,0.0053,0.0028,-0.0003,-72.08,-57.86,1011.47,-1,-1,-6
1512177343,-0.0004,0.0019,-0.0023,-68.36,-62.38,1006.04,-1,-1,-6
1512177343,0.0019,0.0009,-0.0003,-81.48,-73.49,992.55,7,-3,-18
1512177343,0.0007,0.0027,0.0001,-68.60,-67.87,1006.77,7,-3,-18
1512177343,-0.0004,-0.0003,-0.0003,-62.62,-69.58,1013.18,7,-3,-18
1512177343,0.0019,0.0019,-0.0003,-70.86,-72.88,1004.64,7,-3,-18
1512177343,-0.0007,0.0000,-0.0007,-62.50,-64.76,1010.13,7,-3,-18
1512177343,0.0007,0.0015,-0.0011,-75.56,-64.51,998.54,-3,-3,-28
1512177343,0.0019,0.0036,-0.0008,-63.17,-64.70,995.12,-3,-3,-28
1512177343,0.0011,-0.0011,-0.0024,-62.13,-61.22,1057.25,-3,-3,-28
1512177343,-0.0032,0.0017,-0.0019,-74.58,-63.84,996.77,-3,-3,-28
1512177343,0.0035,0.0004,0.0003,-84.78,-57.80,1001.65,10,7,-5
1512177343,0.0007,0.0007,-0.0009,-74.83,-70.62,998.35,10,7,-5
1512177343,-0.0007,0.0036,0.0008,-117.25,-63.90,1010.80,10,7,-5
1512177343,0.0060,-0.0012,-0.0007,-26.86,-62.74,998.78,10,7,-5
1512177343,0.0004,0.0047,-0.0015,-86.00,-75.01,977.23,10,7,-5
1512177343,-0.0004,0.0008,-0.0012,-68.48,-74.28,994.81,8,5,-23
1512177343,0.0015,0.0001,-0.0003,-62.38,-60.30,1005.74,8,5,-23
1512177343,-0.0016,0.0012,-0.0012,-73.85,-73.18,1005.13,8,5,-23
1512177343,0.0037,0.0016,-0.0001,-54.63,-64.76,983.34,8,5,-23
1512177343,0.0032,0.0008,-0.0007,-67.93,-61.89,987.85,8,5,-23
1512177343,-0.0004,0.0013,-0.0009,-70.50,-76.35,999.33,1,8,-6
1512177343,0.0005,0.0007,0.0001,-66.53,-57.98,1011.41,1,8,-6
1512177343,-0.0004,0.0023,-0.0017,-62.44,-76.11,984.62,1,8,-6
1512177343,-0.0025,0.0025,-0.0003,-63.60,-75.99,1005.13,1,8,-6
1512177343,-0.0019,-0.0015,-0.0013,-68.79,-78.06,986.69,3,-3,-5
1512177343,-0.0024,0.0007,-0.0012,-75.13,-95.70,1002.99,3,-3,-5
1512177343,-0.0011,0.0031,-0.0020,-62.68,-94.36,1010.56,3,-3,-5
1512177343,-0.0001,0.0007,-0.0027,-74.10,-84.35,981.93,3,-3,-5
1512177343,-0.0021,0.0032,0.0001,-71.96,-103.15,998.29,3,-3,-5
1512177343,0.0029,-0.0004,-0.0013,-68.54,-91.92,1010.44,8,5,-6
1512177343,0.0023,0.0019,-0.0011,-70.13,-89.11,978.03,8,5,-6
1512177343,-0.0019,0.0028,-0.0012,-69.27,-113.89,996.03,8,5,-6
1512177343,-0.0013,-0.0005,-0.0032,-66.28,-104.19,1019.04,8,5,-6
1512177343,-0.0027,0.0016,-0.0041,-76.84,-99.18,980.41,8,5,-6
1512177343,-0.0052,0.0023,-0.0031,-66.47,-114.50,1003.23,0,-3,1
1512177343,-0.0040,-0.0020,-0.0041,-66.10,-100.16,1015.99,0,-3,1
1512177343,-0.0017,0.0017,-0.0025,-74.52,-111.88,981.08,0,-3,1
1512177344,-0.0031,0.0019,-0.0021,-59.63,-125.67,1010.93,0,-3,1
1512177344,-0.0008,-0.0035,-0.0031,-72.57,-118.47,1023.25,7,10,1
1512177344,0.0016,0.0003,-0.0041,-77.45,-129.09,982.18,7,10,1
1512177344,-0.0017,0.0029,-0.0019,-60.00,-148.93,998.60,7,10,1
1512177344,-0.0051,-0.0013,-0.0081,-64.15,-144.17,1040.71,7,10,1
1512177344,-0.0246,0.0112,-0.0069,-63.72,-138.55,1034.48,7,10,1
1512177344,0.0025,0.0016,-0.0028,-81.42,-144.59,985.29,-5,-1,0
1512177344,-0.0019,0.0049,0.0000,-64.51,-119.75,991.82,-5,-1,0
1512177344,0.0011,-0.0013,-0.0040,-65.49,-109.99,1042.48,-5,-1,0
1512177344,0.0019,-0.0012,-0.0029,-69.82,-112.49,1004.33,-5,-1,0
1512177344,0.0035,-0.0016,-0.0051,-63.84,-129.82,966.37,1,1,-6
1512177344,-0.0013,0.0043,-0.0051,-70.43,-168.76,972.84,1,1,-6
1512177344,-0.0023,0.0059,-0.0069,-66.22,-184.27,988.28,1,1,-6
1512177344,-0.0132,0.0097,-0.0085,-91.43,-196.96,1012.08,1,1,-6
1512177344,-0.0084,0.0016,-0.0076,-66.22,-177.00,1029.79,1,1,-6
1512177344,-0.0067,-0.0017,-0.0088,-77.39,-168.27,1053.47,1,19,-13
1512177344,-0.0108,-0.0025,-0.0075,-64.45,-159.00,1056.95,1,19,-13
1512177344,-0.0087,0.0001,-0.0071,-66.83,-169.13,1025.02,1,19,-13
1512177344,-0.0049,0.0005,-0.0053,-57.50,-165.10,1035.10,1,19,-13
1512177344,-0.0075,-0.0040,-0.0068,-51.33,-181.82,1034.30,1,19,-13
1512177344,-0.0083,-0.0045,-0.0095,-54.63,-197.45,1031.98,7,0,5
1512177344,-0.0043,-0.0055,-0.0103,-35.95,-214.90,1005.62,7,0,5
1512177344,-0.0084,-0.0004,-0.0117,-41.38,-217.90,1017.46,7,0,5
1512177344,-0.0089,-0.0001,-0.0104,-33.33,-219.97,1022.03,7,0,5
1512177344,-0.0092,-0.0031,-0.0085,-42.42,-213.87,1031.13,12,-5,0
1512177344,-0.0028,0.0024,-0.0071,-82.52,-213.44,1013.18,12,-5,0
1512177344,-0.0024,0.0025,-0.0072,-73.24,-209.23,1013.98,12,-5,0
1512177344,-0.0032,0.0013,-0.0068,-77.33,-210.63,1006.10,12,-5,0
1512177344,-0.0008,0.0003,-0.0065,-80.69,-208.25,995.85,12,-5,0
1512177344,0.0033,-0.0020,-0.0041,-83.74,-209.53,974.79,8,-15,13
1512177344,0.0016,-0.0035,-0.0069,-71.53,-208.31,1001.40,8,-15,13
1512177344,-0.0008,-0.0020,-0.0064,-86.43,-201.84,987.06,8,-15,13
1512177344,-0.0036,-0.0107,-0.0085,-66.35,-216.67,1023.44,8,-15,13
1512177344,-0.0015,-0.0093,-0.0075,-46.63,-206.97,996.34,8,-15,13
1512177344,-0.0053,-0.0081,-0.0077,-50.66,-209.66,1029.60,12,-8,6
1512177344,-0.0072,-0.0025,-0.0104,-38.33,-197.08,1016.11,12,-8,6
1512177344,-0.0056,-0.0064,-0.0127,-48.34,-204.04,1030.58,12,-8,6
1512177344,-0.0033,-0.0032,-0.0079,-53.47,-210.08,1033.14,12,-8,6
1512177345,-0.0020,0.0019,-0.0072,-74.71,-199.83,1013.12,-8,-5,0
1512177345,-0.0027,0.0073,-0.0064,-72.27,-214.36,992.86,-8,-5,0
1512177345,-0.0021,0.0008,-0.0076,-62.13,-203.74,1007.81,-8,-5,0
1512177345,0.0012,-0.0016,-0.0041,-65.55,-206.97,994.87,-8,-5,0
1512177345,0.0009,-0.0016,-0.0068,-72.02,-205.57,1010.56,-8,-5,0
1512177345,0.0005,-0.0079,-0.0047,-58.35,-210.02,1023.38,1,8,0
1512177345,-0.0020,-0.0047,-0.0041,-58.96,-212.95,1017.70,1,8,0
1512177345,-0.0024,-0.0020,-0.0064,-67.26,-208.56,1041.44,1,8,0
1512177345,-0.0049,-0.0004,-0.0088,-88.26,-225.77,1025.45,1,8,0
1512177345,-0.0101,0.0053,-0.0111,-50.23,-211.98,1003.85,1,8,0
1512177345,-0.0088,0.0011,-0.0081,-71.23,-207.76,978.09,8,1,-10
1512177345,-0.0112,-0.0007,-0.0084,-78.74,-221.92,1046.81,8,1,-10
1512177345,-0.0035,0.0007,-0.0031,-74.77,-190.73,1019.17,8,1,-10
1512177345,-0.0040,0.0008,-0.0027,-45.72,-211.85,1028.20,8,1,-10
1512177345,0.0000,-0.0003,-0.0008,-65.25,-224.18,1000.24,14,-3,8
1512177345,-0.0011,0.0000,-0.0023,-66.71,-227.54,990.84,14,-3,8
1512177345,-0.0079,-0.0013,-0.0011,-61.04,-241.39,963.32,14,-3,8
1512177345,-0.0061,-0.0075,-0.0031,-55.30,-222.05,1000.18,14,-3,8
1512177345,-0.0009,-0.0085,-0.0005,-68.30,-230.71,979.43,14,-3,8
1512177345,-0.0035,-0.0121,-0.0024,-37.78,-234.07,1045.04,12,-8,-6
1512177345,-0.0049,-0.0125,0.0011,-9.77,-199.28,1015.99,12,-8,-6
1512177345,-0.0028,-0.0100,0.0015,-78.19,-216.92,1017.76,12,-8,-6
1512177345,-0.0047,-0.0067,0.0008,-75.56,-219.54,1023.62,12,-8,-6
1512177345,0.0043,0.0023,0.0075,-60.55,-195.56,1015.08,19,-1,0
1512177345,-0.0064,0.0032,0.0023,-78.74,-227.05,980.77,19,-1,0
1512177345,-0.0015,-0.0109,0.0023,-57.31,-207.52,1000.00,19,-1,0
1512177345,0.0041,-0.0172,0.0076,-61.58,-226.38,1031.56,19,-1,0
1512177345,0.0035,-0.0123,0.0107,-37.60,-210.63,998.05,19,-1,0
1512177345,0.0023,-0.0029,0.0157,-70.13,-221.01,984.37,1,-1,10
1512177345,0.0021,-0.0083,0.0166,-53.04,-224.73,977.78,1,-1,10
1512177345,0.0000,-0.0103,0.0188,-71.78,-206.54,1016.85,1,-1,10
1512177345,0.0048,-0.0053,0.0177,-87.22,-206.73,946.96,1,-1,10
1512177345,0.0011,-0.0073,0.0217,-39.00,-203.37,962.83,1,-1,10
1512177345,-0.0108,-0.0154,0.0197,-32.78,-233.64,1049.26,-5,1,0
1512177345,-0.0072,-0.0133,0.0229,-6.10,-201.54,1018.68,-5,1,0
1512177345,-0.0059,-0.0141,0.0316,14.28,-186.28,988.77,-5,1,0
1512177345,-0.0056,-0.0188,0.0318,7.20,-196.84,1058.65,-5,1,0
1512177345,-0.0039,-0.0061,0.0360,-36.19,-193.36,988.10,3,-7,-18
1512177346,-0.0128,0.0015,0.0354,-21.73,-225.40,998.41,3,-7,-18
1512177346,0.0016,-0.0099,0.0431,-0.79,-187.68,1035.95,3,-7,-18
1512177346,-0.0129,0.0025,0.0426,-25.39,-197.45,954.22,3,-7,-18
1512177346,-0.0017,0.0041,0.0486,-37.66,-199.46,945.62,3,-7,-18
1512177346,0.0016,-0.0113,0.0534,-9.52,-182.37,986.02,-7,-7,-18
1512177346,-0.0043,-0.0040,0.0538,-18.31,-197.75,972.53,-7,-7,-18
1512177346,0.0001,-0.0048,0.0577,-0.98,-191.16,1024.17,-7,-7,-18
1512177346,0.0091,-0.0221,0.0646,10.56,-155.09,1088.26,-7,-7,-18
1512177346,0.0040,-0.0101,0.0670,-26.31,-161.01,1060.97,-7,-7,-18
1512177346,-0.0001,0.0011,0.0642,1.71,-182.92,1023.38,5,-8,3
1512177346,-0.0024,0.0124,0.0639,-58.47,-172.55,971.25,5,-8,3
1512177346,-0.0107,0.0136,0.0670,-32.84,-217.53,944.34,5,-8,3
1512177346,-0.0124,0.0057,0.0755,-5.49,-207.82,949.71,5,-8,3
1512177346,-0.0085,0.0041,0.0816,-29.72,-193.66,962.04,1,1,-20
1512177346,0.0072,-0.0009,0.0850,-44.56,-188.90,1005.31,1,1,-20
1512177346,0.0048,-0.0029,0.0871,35.77,-179.32,1034.48,1,1,-20
1512177346,0.0069,0.0091,0.0949,18.55,-137.02,985.96,1,1,-20
1512177346,0.0007,0.0084,0.0949,0.06,-180.48,1032.29,1,1,-20
1512177346,-0.0016,0.0011,0.1011,-12.02,-183.23,1046.33,5,-5,-16
1512177346,0.0153,-0.0204,0.1015,-32.96,-146.97,1065.67,5,-5,-16
1512177346,0.0085,0.0007,0.1053,-53.77,-156.43,1010.25,5,-5,-16
1512177346,0.0036,-0.0121,0.1044,-25.57,-182.19,1024.60,5,-5,-16
1512177346,0.0007,-0.0115,0.1121,-40.65,-191.47,1022.58,5,-5,-16
1512177346,0.0001,-0.0123,0.1162,-8.18,-188.05,970.83,-10,3,-8
1512177346,0.0000,-0.0172,0.1257,2.38,-204.28,983.22,-10,3,-8
1512177346,-0.0039,-0.0217,0.1181,3.17,-205.14,1014.83,-10,3,-8
1512177346,-0.0016,-0.0157,0.1213,-18.62,-161.44,1001.34,-10,3,-8
1512177346,0.0015,-0.0092,0.1286,18.19,-173.71,990.60,-12,8,-10
1512177346,-0.0073,-0.0020,0.1294,31.62,-160.71,961.00,-12,8,-10
1512177346,-0.0047,-0.0332,0.1427,24.54,-180.85,1072.45,-12,8,-10
1512177346,-0.0069,-0.0068,0.1397,46.02,-192.69,1010.93,-12,8,-10
1512177346,-0.0060,-0.0193,0.1450,27.77,-145.57,1027.89,-12,8,-10
1512177346,0.0020,-0.0047,0.1418,0.24,-186.52,1052.92,-26,-8,-10
1512177346,0.0043,-0.0212,0.1466,25.57,-169.62,1026.55,-26,-8,-10
1512177346,0.0009,-0.0145,0.1563,26.18,-167.11,1034.36,-26,-8,-10
1512177346,0.0049,-0.0019,0.1547,-51.76,-150.82,1030.94,-26,-8,-10
1512177346,0.0060,0.0009,0.1578,-50.60,-103.09,1002.26,-14,7,-22
1512177346,-0.0154,-0.0113,0.1547,36.13,-166.32,1012.21,-14,7,-22
1512177347,-0.0206,-0.0240,0.1615,47.12,-124.88,1027.89,-14,7,-22
1512177347,-0.0096,-0.0039,0.1627,-29.60,-114.07,1025.63,-14,7,-22
1512177347,0.0007,0.0096,0.1626,-39.92,-166.08,1048.89,-14,7,-22
1512177347,0.0059,-0.0028,0.1698,11.23,-114.75,953.98,-35,21,-11
1512177347,-0.0103,-0.0160,0.1772,34.73,-115.36,1076.90,-35,21,-11
1512177347,-0.0016,0.0041,0.1714,22.22,-142.88,986.27,-35,21,-11
1512177347,-0.0117,0.0128,0.1724,44.56,-152.28,940.43,-35,21,-11
1512177347,-0.0093,0.0240,0.1783,42.54,-130.00,956.42,-35,21,-11
1512177347,0.0284,0.0120,0.1904,32.53,-133.79,984.01,-40,8,-23
1512177347,-0.0138,0.0161,0.1844,-19.65,-170.29,1068.05,-40,8,-23
1512177347,-0.0045,0.0115,0.1788,26.12,-155.46,942.57,-40,8,-23
1512177347,-0.0060,-0.0004,0.1788,-16.60,-156.37,986.21,-40,8,-23
1512177347,0.0008,-0.0041,0.1842,23.80,-161.32,1036.44,-42,10,-1
1512177347,0.0112,-0.0045,0.1886,46.69,-129.64,982.97,-42,10,-1
1512177347,0.0027,0.0095,0.1899,61.10,-117.80,1045.65,-42,10,-1
1512177347,0.0060,0.0314,0.1912,56.27,-130.62,1023.44,-42,10,-1
1512177347,-0.0100,0.0310,0.1899,72.14,-143.62,1069.58,-42,10,-1
1512177347,-0.0157,0.0402,0.1931,93.87,-160.22,1029.48,-50,15,-10
1512177347,-0.0172,0.0439,0.2127,45.47,-130.07,1036.62,-50,15,-10
1512177347,-0.0097,0.0398,0.2023,38.88,-133.18,1045.53,-50,15,-10
1512177347,-0.0134,0.0257,0.2061,52.98,-103.39,1075.38,-50,15,-10
1512177347,-0.0157,0.0190,0.2121,43.76,-128.11,962.22,-50,15,-10
1512177347,-0.0172,0.0121,0.2127,30.58,-97.05,964.05,-47,-1,-27
1512177347,-0.0067,0.0012,0.2153,38.27,-111.63,950.20,-47,-1,-27
1512177347,-0.0027,-0.0099,0.2177,21.55,-120.97,953.86,-47,-1,-27
1512177347,-0.0048,-0.0145,0.2154,0.37,-116.88,1001.59,-47,-1,-27
1512177347,0.0043,-0.0060,0.2205,59.27,-111.69,983.46,-43,8,-13
1512177347,0.0019,0.0068,0.2238,71.66,-131.96,1023.01,-43,8,-13
1512177347,0.0117,0.0206,0.2245,64.51,-97.41,991.46,-43,8,-13
1512177347,-0.0023,-0.0017,0.2232,45.04,-134.70,1031.98,-43,8,-13
1512177347,-0.0025,-0.0117,0.2277,68.36,-100.40,1047.30,-43,8,-13
1512177347,-0.0007,0.0036,0.2282,-52.31,-110.84,998.66,-56,10,-28
1512177347,-0.0093,-0.0073,0.2269,35.03,-121.46,1012.63,-56,10,-28
1512177347,-0.0039,-0.0137,0.2237,46.08,-142.46,938.54,-56,10,-28
1512177347,0.0117,-0.0033,0.2262,2.93,-114.56,966.31,-56,10,-28
1512177347,0.0097,-0.0289,0.2264,45.10,-131.10,952.64,-56,10,-28
1512177347,0.0200,-0.0113,0.2293,-15.75,-120.85,1009.28,-65,5,-23
1512177348,0.0148,0.0013,0.2349,-17.64,-126.46,1001.65,-65,5,-23
1512177348,-0.0017,-0.0044,0.2372,48.65,-116.15,997.19,-65,5,-23
1512177348,-0.0158,-0.0103,0.2361,70.80,-119.14,968.20,-65,5,-23
1512177348,-0.0249,-0.0238,0.2421,83.44,-95.15,987.00,-70,0,-25
1512177348,-0.0262,-0.0113,0.2404,28.81,-120.79,1100.89,-70,0,-25
1512177348,-0.0160,0.0085,0.2334,48.34,-123.72,1049.87,-70,0,-25
1512177348,-0.0173,0.0241,0.2242,107.30,-101.62,1074.46,-70,0,-25
1512177348,-0.0145,0.0486,0.2264,72.08,-134.09,1060.91,-70,0,-25
1512177348,-0.0266,0.0431,0.2613,60.67,-153.08,1096.19,-70,-3,-25
1512177348,-0.0574,0.0246,0.2770,50.54,-110.05,1026.98,-70,-3,-25
1512177348,0.0198,0.0534,0.2471,54.63,-127.81,1015.87,-70,-3,-25
1512177348,0.0138,0.0328,0.2364,32.17,-121.77,966.67,-70,-3,-25
1512177348,0.0048,0.0096,0.2471,18.37,-119.63,914.67,-86,-1,-47
1512177348,-0.0197,-0.0081,0.2501,36.62,-130.55,919.31,-86,-1,-47
1512177348,0.0221,0.0208,0.2449,52.67,-82.95,1028.93,-86,-1,-47
1512177348,0.0077,0.0162,0.2443,51.27,-78.12,1045.53,-86,-1,-47
1512177348,0.0097,0.0297,0.2354,116.39,-97.11,1041.20,-86,-1,-47
1512177348,0.0051,0.0349,0.2381,17.70,-92.83,1028.99,-96,1,-33
1512177348,0.0029,0.0478,0.2294,83.44,-137.33,1015.20,-96,1,-33
1512177348,-0.0104,0.0154,0.2358,39.92,-113.95,1013.61,-96,1,-33
1512177348,-0.0281,-0.0009,0.2361,41.99,-118.90,948.73,-96,1,-33
1512177348,-0.0222,0.0048,0.2431,40.04,-145.57,981.14,-96,1,-33
1512177348,-0.0250,0.0138,0.2415,61.04,-110.53,1043.21,-91,0,-52
1512177348,-0.0417,0.0137,0.2454,85.14,-108.03,1022.95,-91,0,-52
1512177348,-0.0447,0.0206,0.2439,81.48,-126.46,1015.50,-91,0,-52
1512177348,-0.0318,0.0373,0.2409,76.60,-103.27,992.43,-91,0,-52
1512177348,-0.0276,0.0340,0.2344,47.61,-169.25,989.56,-101,-7,-52
1512177348,-0.0800,0.0107,0.2625,22.95,-85.08,951.72,-101,-7,-52
1512177348,-0.0635,-0.0092,0.2585,127.56,-106.08,1020.94,-101,-7,-52
1512177348,0.0534,0.0509,0.2529,15.26,-96.37,1138.92,-101,-7,-52
1512177348,0.0571,0.0493,0.2539,30.76,-100.10,1047.36,-101,-7,-52
1512177348,0.0204,0.0244,0.2523,54.50,-110.35,1047.67,-107,1,-50
1512177348,-0.0113,0.0153,0.2502,59.45,-91.37,929.81,-107,1,-50
1512177348,-0.0071,0.0285,0.2519,60.00,-124.57,947.08,-107,1,-50
1512177348,-0.0040,0.0226,0.2469,33.75,-88.68,981.81,-107,1,-50
1512177348,-0.0077,0.0280,0.2458,70.13,-156.62,991.88,-107,1,-50
1512177348,0.0053,0.0301,0.2497,88.20,-93.75,954.77,-119,-7,-55
1512177348,-0.0107,0.0048,0.2551,53.28,-160.71,979.31,-119,-7,-55
1512177349,0.0039,0.0129,0.2541,49.80,-96.44,1010.19,-119,-7,-55
1512177349,-0.0096,0.0148,0.2525,87.28,-91.06,996.58,-119,-7,-55
1512177349,0.0128,0.0334,0.2497,100.71,-99.79,1121.15,-115,-3,-59
1512177349,-0.0217,-0.0049,0.2478,78.92,-93.69,1002.14,-115,-3,-59
1512177349,0.0028,0.0073,0.2441,124.15,-145.20,1083.98,-115,-3,-59
1512177349,-0.0124,0.0233,0.2473,-5.43,-136.11,1014.77,-115,-3,-59
1512177349,0.0221,0.0607,0.2418,28.93,-74.28,995.18,-115,-3,-59
1512177349,0.0166,0.0380,0.2551,81.24,-110.11,1046.20,-119,-17,-52
1512177349,0.0594,0.0601,0.2499,14.10,-127.81,1004.70,-119,-17,-52
1512177349,0.0349,0.0433,0.2530,-35.83,-122.25,957.46,-119,-17,-52
1512177349,0.0478,0.0266,0.2509,-0.73,-132.02,949.04,-119,-17,-52
1512177349,0.0446,0.0172,0.2489,-0.85,-103.64,966.86,-119,-17,-52
1512177349,0.0133,-0.0049,0.2517,19.41,-130.49,925.48,-130,-14,-45
1512177349,0.0150,0.0056,0.2511,10.99,-129.88,994.93,-130,-14,-45
1512177349,0.0060,0.0063,0.2429,84.66,-132.81,1008.12,-130,-14,-45
1512177349,-0.0059,-0.0087,0.2497,78.55,-106.38,1017.46,-130,-14,-45
1512177349,-0.0032,-0.0168,0.2454,111.27,-120.85,1022.16,-121,-8,-57
1512177349,0.0069,0.0032,0.2503,43.58,-85.45,1029.85,-121,-8,-57
1512177349,-0.0031,0.0365,0.2454,44.01,-103.70,973.27,-121,-8,-57
1512177349,-0.0021,0.0530,0.2382,98.82,-106.20,995.36,-121,-8,-57
1512177349,-0.0063,0.0639,0.2386,41.26,-116.76,1002.20,-121,-8,-57
1512177349,-0.0146,0.0407,0.2376,42.54,-98.88,1036.56,-138,-12,-57
1512177349,0.0005,0.0353,0.2430,-5.92,-93.08,1014.22,-138,-12,-57
1512177349,-0.0020,0.0233,0.2459,29.60,-99.12,990.97,-138,-12,-57
1512177349,0.0150,0.0142,0.2525,14.53,-110.78,1033.39,-138,-12,-57
1512177349,0.0080,0.0095,0.2626,10.86,-120.42,984.99,-158,-21,-59
1512177349,0.0111,0.0168,0.2667,-11.35,-128.72,1047.24,-158,-21,-59
1512177349,-0.0216,0.0080,0.2603,4.82,-99.00,1042.42,-158,-21,-59
1512177349,-0.0192,-0.0177,0.2435,36.93,-99.12,1064.21,-158,-21,-59
1512177349,-0.0248,-0.0340,0.2430,-10.56,-44.98,939.76,-158,-21,-59
1512177349,-0.0198,-0.0471,0.2453,23.01,-72.94,1028.99,-140,-7,-52
1512177349,-0.0137,-0.0340,0.2457,30.09,-125.67,990.36,-140,-7,-52
1512177349,-0.0356,-0.0463,0.2503,56.88,-125.73,931.88,-140,-7,-52
1512177349,-0.0426,-0.0112,0.2497,94.97,-98.69,969.48,-140,-7,-52
1512177349,-0.0437,0.0083,0.2427,128.78,-110.29,1019.84,-140,-7,-52
1512177349,-0.0409,-0.0485,0.2441,125.24,-104.92,977.54,-156,-15,-57
1512177349,-0.0719,-0.0206,0.2366,85.69,-116.03,995.61,-156,-15,-57
1512177349,-0.0306,-0.0266,0.2462,94.60,-120.85,1088.56,-156,-15,-57
1512177350,-0.0276,-0.0031,0.2451,87.65,-102.11,1013.55,-156,-15,-57
1512177350,0.0091,0.0310,0.2541,1.34,-28.87,1056.34,-166,-19,-60
1512177350,0.0202,0.0370,0.2522,32.65,-60.97,1072.63,-166,-19,-60
1512177350,0.0154,0.0209,0.2537,-4.58,-37.41,1079.35,-166,-19,-60
1512177350,0.0142,0.0015,0.2393,65.61,-121.52,1039.79,-166,-19,-60
1512177350,0.0028,-0.0093,0.2438,-10.80,-71.72,975.52,-166,-19,-60
1512177350,-0.0245,-0.0065,0.2405,82.34,-105.41,1047.06,-166,-26,-57
1512177350,-0.0193,0.0119,0.2419,66.89,-96.19,1026.55,-166,-26,-57
1512177350,-0.0096,0.0013,0.2366,161.99,-90.27,961.85,-166,-26,-57
1512177350,-0.0204,-0.0079,0.2320,133.73,-94.18,1002.99,-166,-26,-57
1512177350,-0.0096,-0.0051,0.2222,73.12,-92.59,1068.85,-166,-26,-57
1512177350,0.0036,-0.0004,0.2202,34.91,-65.49,1109.74,-159,-26,-71
1512177350,0.0031,-0.0137,0.2194,34.73,-72.75,993.16,-159,-26,-71
1512177350,-0.0027,-0.0079,0.2166,54.14,-77.33,1027.65,-159,-26,-71
1512177350,0.0036,-0.0037,0.2181,60.49,-53.83,1001.10,-159,-26,-71
1512177350,0.0036,-0.0096,0.2104,77.33,-60.73,1034.36,-179,-42,-69
1512177350,0.0023,-0.0013,0.2089,56.82,-50.35,974.12,-179,-42,-69
1512177350,-0.0055,-0.0011,0.2041,48.77,-48.65,985.60,-179,-42,-69
1512177350,-0.0145,-0.0087,0.1961,85.45,-37.35,966.98,-179,-42,-69
1512177350,-0.0059,0.0033,0.1936,71.23,-69.89,988.46,-179,-42,-69
1512177350,-0.0089,0.0073,0.1947,25.33,-67.50,1037.78,-165,-38,-89
1512177350,-0.0201,-0.0015,0.1919,123.05,-45.65,967.16,-165,-38,-89
1512177350,-0.0309,-0.0111,0.1899,71.66,-61.77,979.43,-165,-38,-89
1512177350,-0.0234,-0.0048,0.1896,89.05,-42.79,1035.16,-165,-38,-89
1512177350,-0.0174,-0.0003,0.1905,31.62,-36.13,1023.68,-180,-44,-71
1512177350,-0.0177,0.0068,0.1859,57.31,-33.02,1021.91,-180,-44,-71
1512177350,-0.0250,0.0089,0.1823,18.62,-38.82,1007.45,-180,-44,-71
1512177350,-0.0240,0.0020,0.1826,1.34,-27.47,972.17,-180,-44,-71
1512177350,-0.0234,-0.0033,0.1762,-5.07,-34.67,986.57,-180,-44,-71
1512177350,-0.0220,-0.0150,0.1706,24.48,-58.47,992.25,-180,-47,-81
1512177350,-0.0141,-0.0157,0.1679,2.56,-42.24,993.29,-180,-47,-81
1512177350,-0.0194,-0.0091,0.1702,37.60,-56.70,965.70,-180,-47,-81
1512177350,-0.0225,-0.0085,0.1667,64.09,-12.70,985.23,-180,-47,-81
1512177350,-0.0225,-0.0048,0.1648,119.32,-34.61,1041.20,-180,-47,-81
1512177350,-0.0197,-0.0031,0.1601,83.07,-26.12,983.95,-198,-65,-77
1512177350,-0.0257,0.0044,0.1587,51.21,-30.64,961.61,-198,-65,-77
1512177350,-0.0160,0.0080,0.1589,60.85,-35.03,1044.80,-198,-65,-77
1512177351,-0.0089,0.0040,0.1590,23.80,-10.19,994.32,-198,-65,-77
1512177351,0.0045,0.0085,0.1601,3.91,-9.09,1061.58,-198,-51,-81
1512177351,0.0152,0.0067,0.1559,-23.99,-21.91,1044.49,-198,-51,-81
1512177351,0.0075,0.0079,0.1515,21.42,-17.70,929.75,-198,-51,-81
1512177351,0.0088,0.0284,0.1438,20.14,-53.53,962.83,-198,-51,-81
1512177351,0.0200,0.0491,0.1334,40.41,-46.57,930.66,-198,-51,-81
1512177351,0.0240,0.0475,0.1241,30.40,-19.65,1010.62,-191,-65,-74
1512177351,0.0237,0.0226,0.1205,-40.22,-25.39,1040.77,-191,-65,-74
1512177351,0.0180,-0.0024,0.1214,-21.42,-18.80,1046.39,-191,-65,-74
1512177351,0.0214,0.0004,0.1217,-55.97,-23.44,987.79,-191,-65,-74
1512177351,0.0234,0.0233,0.1233,-9.52,-24.05,1030.40,-202,-61,-74
1512177351,0.0272,0.0083,0.1248,-12.63,-21.97,994.81,-202,-61,-74
1512177351,0.0031,0.0032,0.1146,13.92,-22.03,1030.46,-202,-61,-74
1512177351,0.0007,-0.0127,0.1105,-35.77,-6.53,1040.71,-202,-61,-74
1512177351,-0.0047,-0.0152,0.1000,-37.60,-13.24,971.19,-202,-61,-74
1512177351,-0.0103,-0.0108,0.0943,-17.88,-19.29,986.63,-203,-52,-86
1512177351,-0.0104,0.0083,0.0867,23.13,-23.32,996.70,-203,-52,-86
1512177351,-0.0087,0.0085,0.0826,-1.95,21.61,1005.62,-203,-52,-86
1512177351,-0.0056,-0.0059,0.0868,-46.88,-41.93,1093.38,-203,-52,-86
1512177351,-0.0024,-0.0237,0.0876,-63.78,-29.54,993.84,-203,-52,-86
1512177351,-0.0149,-0.0317,0.0937,-32.84,-11.23,972.47,-193,-59,-86
1512177351,-0.0113,-0.0308,0.0985,-37.78,-57.01,1071.11,-193,-59,-86
1512177351,-0.0009,-0.0112,0.0952,-10.25,-16.17,993.96,-193,-59,-86
1512177351,-0.0011,-0.0226,0.0891,-22.83,-15.26,977.23,-193,-59,-86
1512177351,0.0085,-0.0193,0.0840,-30.46,-54.75,1009.64,-198,-61,-74
1512177351,0.0055,-0.0281,0.0760,-18.43,-32.23,955.02,-198,-61,-74
1512177351,-0.0041,-0.0045,0.0728,-27.83,-46.57,964.48,-198,-61,-74
1512177351,-0.0105,0.0201,0.0652,-24.11,-23.19,939.45,-198,-61,-74
1512177351,-0.0116,0.0302,0.0611,-8.48,-36.93,1008.61,-198,-61,-74
1512177351,-0.0067,0.0019,0.0626,-17.70,-45.04,1043.21,-193,-59,-86
1512177351,0.0079,0.0023,0.0660,-71.17,-31.13,1052.06,-193,-59,-86
1512177351,0.0123,-0.0160,0.0687,-70.31,-24.41,1039.37,-193,-59,-86
1512177351,0.0202,-0.0196,0.0684,-51.51,-13.79,990.54,-193,-59,-86
1512177351,-0.0059,-0.0013,0.0575,-39.31,-14.95,1033.02,-203,-70,-69
1512177351,-0.0027,0.0051,0.0530,-29.54,-51.94,1004.52,-203,-70,-69
1512177351,-0.0072,0.0037,0.0419,-29.42,-55.73,960.94,-203,-70,-69
1512177351,-0.0064,0.0214,0.0310,-11.29,-43.82,940.31,-203,-70,-69
1512177351,0.0160,0.0458,0.0333,-9.28,-27.53,949.28,-203,-70,-69
1512177352,0.0174,0.0446,0.0401,-10.25,-49.62,1013.85,-189,-70,-72
1512177352,0.0233,0.0241,0.0268,-48.71,-30.76,990.42,-189,-70,-72
1512177352,0.0224,-0.0174,0.0471,-91.80,-13.61,1101.50,-189,-70,-72
1512177352,0.0305,-0.0285,0.0517,-120.00,-31.80,1107.24,-189,-70,-72
1512177352,0.0055,-0.0117,0.0706,-60.06,3.97,1059.94,-189,-70,-72
1512177352,0.0146,-0.0150,0.0470,-53.28,-75.99,1031.31,-205,-65,-71
1512177352,0.0158,0.0111,0.0368,-69.27,-48.40,1011.41,-205,-65,-71
1512177352,-0.0065,0.0049,0.0285,-69.64,-31.49,967.29,-205,-65,-71
1512177352,-0.0113,-0.0137,0.0192,-30.21,-41.26,1022.77,-205,-65,-71
1512177352,-0.0108,-0.0398,0.0162,-25.39,-22.40,1035.89,-200,-59,-66
1512177352,-0.0016,-0.0236,0.0218,-60.06,-18.55,1017.82,-200,-59,-66
1512177352,-0.0136,-0.0012,0.0282,-53.77,-29.30,1043.40,-200,-59,-66
1512177352,-0.0188,-0.0013,0.0309,-35.89,-39.86,1002.26,-200,-59,-66
1512177352,-0.0099,0.0095,0.0358,-20.14,-19.90,991.09,-200,-59,-66
1512177352,-0.0121,0.0095,0.0304,-3.72,-32.96,981.57,-198,-82,-57
1512177352,-0.0057,-0.0028,0.0242,-2.32,-43.76,1066.28,-198,-82,-57
1512177352,-0.0019,-0.0108,0.0249,-40.16,2.99,1047.67,-198,-82,-57
1512177352,0.0083,-0.0200,0.0292,-40.95,-26.67,997.31,-198,-82,-57
1512177352,0.0170,-0.0092,0.0314,-87.59,-11.41,1059.75,-198,-82,-57
1512177352,-0.0020,-0.0064,0.0372,-60.42,-11.11,1054.63,-212,-82,-57
1512177352,0.0009,-0.0063,0.0345,-23.32,-42.60,956.48,-212,-82,-57
1512177352,-0.0178,0.0325,0.0189,-57.92,-35.95,880.43,-212,-82,-57
1512177352,-0.0316,0.0514,0.0103,-27.77,-23.44,980.83,-212,-82,-57
1512177352,-0.0338,0.0358,0.0068,-46.75,-48.83,1014.16,-209,-93,-57
1512177352,-0.0269,-0.0165,0.0140,-32.71,-34.79,976.07,-209,-93,-57
1512177352,-0.0312,-0.0234,0.0261,-37.35,-25.82,976.44,-209,-93,-57
1512177352,-0.0140,-0.0170,0.0356,-20.75,-44.07,970.52,-209,-93,-57
1512177352,0.0073,-0.0088,0.0398,-13.67,-39.00,1071.29,-209,-93,-57
1512177352,0.0134,-0.0269,0.0435,32.35,-70.80,1019.23,-212,-93,-57
1512177352,0.0031,-0.0289,0.0439,28.44,-23.32,1015.56,-212,-93,-57
1512177352,-0.0048,0.0104,0.0276,-22.03,-35.10,1026.98,-212,-93,-57
1512177352,-0.0065,0.0035,0.0185,43.64,-35.89,1070.56,-212,-93,-57
1512177352,-0.0029,0.0049,0.0165,76.42,-35.03,940.25,-193,-63,-52
1512177352,-0.0088,-0.0168,0.0308,23.56,-7.63,1018.01,-193,-63,-52
1512177352,-0.0121,0.0130,0.0344,-32.90,-18.92,1088.13,-193,-63,-52
1512177352,0.0004,0.0212,0.0381,13.73,-45.65,997.25,-193,-63,-52
1512177352,-0.0040,0.0284,0.0419,58.59,-55.73,949.89,-193,-63,-52
1512177352,0.0035,0.0210,0.0530,49.38,-39.49,953.12,-217,-77,-52
1512177353,0.0063,0.0096,0.0538,31.86,-19.17,1002.26,-217,-77,-52
1512177353,0.0035,0.0024,0.0571,-3.36,-33.39,964.90,-217,-77,-52
1512177353,0.0142,0.0048,0.0586,-47.91,-45.59,995.85,-217,-77,-52
1512177353,0.0212,0.0041,0.0617,-36.25,-31.31,1041.26,-217,-77,-52
1512177353,0.0194,-0.0059,0.0648,-5.92,-27.95,999.88,-207,-56,-45
1512177353,0.0109,0.0033,0.0655,-15.08,-32.35,971.19,-207,-56,-45
1512177353,0.0087,0.0134,0.0618,-0.55,-27.16,997.01,-207,-56,-45
1512177353,0.0041,0.0170,0.0599,36.01,-19.59,1007.57,-207,-56,-45
1512177353,-0.0053,0.0158,0.0577,50.84,-22.64,989.20,-210,-59,-38
1512177353,0.0004,0.0209,0.0605,38.21,-23.19,993.16,-210,-59,-38
1512177353,-0.0035,0.0092,0.0655,27.34,-22.09,992.43,-210,-59,-38
1512177353,0.0039,0.0083,0.0730,-6.29,-35.46,1023.32,-210,-59,-38
1512177353,0.0067,0.0101,0.0812,-17.58,-16.97,966.25,-210,-59,-38
1512177353,0.0153,0.0282,0.0830,-22.83,-21.06,996.58,-216,-79,-57
1512177353,0.0150,0.0354,0.0814,1.89,-17.70,992.61,-216,-79,-57
1512177353,-0.0072,0.0081,0.0844,52.49,-26.92,935.67,-216,-79,-57
1512177353,-0.0028,0.0048,0.0850,26.00,-24.60,1051.76,-216,-79,-57
1512177353,0.0072,-0.0005,0.0862,2.26,-15.63,1015.01,-216,-79,-57
1512177353,0.0012,0.0133,0.0886,2.01,-27.10,1044.25,-203,-74,-62
1512177353,-0.0036,0.0304,0.0879,37.90,-28.93,1027.28,-203,-74,-62
1512177353,-0.0005,0.0313,0.0855,55.85,-10.44,990.72,-203,-74,-62
1512177353,-0.0029,0.0129,0.0883,89.90,-40.34,1000.06,-203,-74,-62
1512177353,0.0071,0.0148,0.0884,30.70,-37.48,997.50,-214,-66,-55
1512177353,0.0045,0.0057,0.0928,19.35,-32.29,951.84,-214,-66,-55
1512177353,-0.0001,0.0073,0.0977,21.55,-27.59,879.27,-214,-66,-55
1512177353,-0.0025,0.0168,0.1044,12.15,-42.18,932.98,-214,-66,-55
1512177353,-0.0021,0.0121,0.1113,0.43,-16.66,1001.46,-214,-66,-55
1512177353,-0.0075,-0.0029,0.1156,-24.35,-39.92,967.65,-217,-77,-66
1512177353,-0.0051,-0.0107,0.1189,7.51,-22.16,1015.93,-217,-77,-66
1512177353,-0.0028,-0.0064,0.1258,16.36,-26.67,1005.13,-217,-77,-66
1512177353,0.0044,0.0071,0.1252,-1.16,-13.92,1026.31,-217,-77,-66
1512177353,-0.0076,0.0205,0.1208,39.73,-20.87,940.25,-216,-93,-64
1512177353,0.0031,0.0302,0.1202,41.20,-50.17,961.49,-216,-93,-64
1512177353,0.0097,0.0385,0.1214,22.28,-18.92,983.89,-216,-93,-64
1512177353,0.0025,0.0250,0.1280,47.36,-21.67,954.65,-216,-93,-64
1512177353,0.0100,0.0304,0.1293,3.66,-41.14,1043.88,-216,-93,-64
1512177353,0.0108,0.0252,0.1330,-27.28,-17.33,1025.51,-231,-88,-69
1512177354,0.0043,0.0176,0.1380,-12.88,-18.07,1045.72,-231,-88,-69
1512177354,-0.0004,0.0296,0.1445,-10.25,-23.01,1021.42,-231,-88,-69
1512177354,-0.0035,0.0277,0.1439,32.53,-47.85,968.08,-231,-88,-69
1512177354,0.0004,0.0288,0.1437,15.38,-47.73,981.51,-231,-88,-69
1512177354,-0.0016,0.0003,0.1426,25.51,-58.41,969.97,-242,-81,-66
1512177354,0.0080,-0.0013,0.1510,16.91,-41.14,1005.31,-242,-81,-66
1512177354,0.0190,0.0008,0.1567,19.41,-9.22,1008.30,-242,-81,-66
1512177354,0.0144,0.0059,0.1575,11.17,-33.51,988.46,-242,-81,-66
1512177354,0.0164,-0.0065,0.1590,-4.70,-12.76,1019.71,-235,-91,-49
1512177354,0.0232,-0.0051,0.1621,6.71,-19.04,1041.63,-235,-91,-49
1512177354,0.0173,0.0080,0.1638,17.82,-16.48,1051.45,-235,-91,-49
1512177354,0.0127,-0.0081,0.1688,42.30,-55.60,960.39,-235,-91,-49
1512177354,0.0127,-0.0178,0.1682,77.64,-32.96,993.84,-235,-91,-49
1512177354,0.0101,-0.0144,0.1775,28.93,-41.56,974.06,-240,-89,-67
1512177354,0.0003,-0.0089,0.1766,43.40,-33.33,1050.11,-240,-89,-67
1512177354,0.0079,0.0088,0.1827,60.91,-17.03,1019.65,-240,-89,-67
1512177354,-0.0093,0.0036,0.1903,64.09,-21.30,976.87,-240,-89,-67
1512177354,0.0001,0.0085,0.1933,69.70,-28.81,985.96,-254,-100,-71
1512177354,0.0064,0.0154,0.1933,67.14,-33.02,1028.26,-254,-100,-71
1512177354,-0.0015,0.0039,0.2063,72.63,4.52,984.37,-254,-100,-71
1512177354,-0.0049,-0.0031,0.2091,69.89,-39.55,975.34,-254,-100,-71
1512177354,0.0008,0.0326,0.2073,64.58,-41.87,882.75,-254,-100,-71
1512177354,-0.0112,0.0330,0.2067,86.36,1.71,1032.17,-245,-102,-69
1512177354,0.0069,0.0152,0.2099,76.23,-23.56,1030.15,-245,-102,-69
1512177354,0.0087,0.0140,0.2141,70.56,-40.77,972.72,-245,-102,-69
1512177354,0.0137,0.0111,0.2210,28.56,9.34,1095.64,-245,-102,-69
1512177354,0.0113,0.0087,0.2297,49.99,-64.76,970.70,-245,-102,-69
1512177354,0.0045,0.0103,0.2328,121.83,7.57,856.08,-242,-102,-76
1512177354,-0.0004,0.0093,0.2312,65.31,-6.35,977.05,-242,-102,-76
1512177354,-0.0048,0.0134,0.2260,86.12,-35.03,962.71,-242,-102,-76
1512177354,-0.0037,0.0232,0.2328,16.72,-18.01,1093.93,-242,-102,-76
1512177354,-0.0149,0.0093,0.2377,50.78,-5.49,995.85,-251,-107,-60
1512177354,-0.0250,0.0051,0.2569,50.35,-52.55,1021.12,-251,-107,-60
1512177354,-0.0638,-0.0021,0.2742,44.43,-0.67,942.14,-251,-107,-60
1512177354,-0.0660,0.0007,0.2679,122.07,-17.94,968.08,-251,-107,-60
1512177354,0.0314,-0.0206,0.2646,92.35,-9.64,975.34,-251,-107,-60
1512177354,0.0037,-0.0037,0.2579,23.56,-46.57,1130.19,-256,-126,-72
1512177354,0.0067,-0.0157,0.2658,4.76,23.68,1014.83,-256,-126,-72
1512177355,-0.0160,-0.0293,0.2803,46.14,-27.65,1050.78,-256,-126,-72
1512177355,-0.0226,-0.0169,0.2734,51.15,-11.60,1011.05,-256,-126,-72
1512177355,-0.0338,-0.0296,0.2692,89.90,-32.90,955.93,-256,-126,-72
1512177355,-0.0399,-0.0234,0.2691,64.88,-5.80,1043.64,-261,-111,-67
1512177355,-0.0406,-0.0249,0.2696,107.42,-37.41,1020.94,-261,-111,-67
1512177355,-0.0298,-0.0278,0.2770,61.40,16.05,993.10,-261,-111,-67
1512177355,-0.0443,-0.0336,0.2756,85.75,-9.16,1009.77,-261,-111,-67
1512177355,-0.0334,-0.0297,0.2823,92.53,-7.69,971.92,-268,-139,-84
1512177355,-0.0309,-0.0214,0.2830,83.13,-19.53,924.80,-268,-139,-84
1512177355,-0.0228,-0.0217,0.2862,122.19,-13.00,993.96,-268,-139,-84
1512177355,-0.0314,-0.0344,0.2951,82.34,-6.47,908.57,-268,-139,-84
1512177355,-0.0083,-0.0253,0.3057,80.38,-13.55,999.63,-268,-139,-84
1512177355,-0.0047,-0.0146,0.2952,66.71,-29.91,960.69,-275,-146,-81
1512177355,0.0364,-0.0193,0.3012,95.70,0.00,1018.98,-275,-146,-81
1512177355,0.0575,-0.0158,0.3004,38.70,-51.94,995.91,-275,-146,-81
1512177355,0.0164,-0.0366,0.3055,36.19,16.42,984.13,-275,-146,-81
1512177355,-0.0095,-0.0594,0.2976,77.76,-41.08,1034.61,-265,-146,-84
1512177355,-0.0028,-0.0422,0.2925,143.43,-14.83,995.30,-265,-146,-84
1512177355,-0.0344,-0.0170,0.2890,179.50,-42.97,994.20,-265,-146,-84
1512177355,-0.0202,0.0277,0.2872,163.27,18.68,1097.41,-265,-146,-84
1512177355,-0.0631,0.0273,0.2951,110.96,-7.32,1086.98,-265,-146,-84
1512177355,-0.1368,-0.0039,0.3537,84.17,-39.92,1070.07,-260,-172,-82
1512177355,-0.0666,0.0314,0.3218,134.83,96.86,1025.94,-260,-172,-82
1512177355,-0.0201,0.0458,0.3305,107.73,-158.75,1025.51,-260,-172,-82
1512177355,0.0771,-0.0146,0.3450,63.11,-75.13,819.03,-260,-172,-82
1512177355,-0.0663,-0.0308,0.3248,57.98,-37.35,863.04,-260,-172,-82
1512177355,0.0352,0.0200,0.3412,-4.88,-52.55,986.27,-274,-169,-79
1512177355,0.0747,0.0438,0.3188,26.00,18.37,999.27,-274,-169,-79
1512177355,0.0441,0.0509,0.3201,-2.14,-55.85,1028.32,-274,-169,-79
1512177355,0.0165,0.0457,0.3124,34.36,4.15,996.77,-274,-169,-79
1512177355,-0.0240,0.0165,0.3143,10.56,4.52,1065.06,-272,-181,-94
1512177355,-0.0057,0.0549,0.3061,49.07,-15.26,1180.24,-272,-181,-94
1512177355,-0.0009,0.0782,0.2996,89.23,-1.10,993.84,-272,-181,-94
1512177355,-0.0695,0.0390,0.3105,66.65,-36.87,958.92,-272,-181,-94
1512177355,-0.0274,0.0477,0.3190,42.54,-22.40,1067.63,-272,-181,-94
1512177355,0.0035,0.0790,0.3218,1.77,-36.32,1079.53,-265,-178,-108
1512177355,0.0028,0.0482,0.3208,38.82,17.09,1035.03,-265,-178,-108
1512177356,0.0085,0.0405,0.3245,8.79,-76.42,1036.62,-265,-178,-108
1512177356,-0.0198,0.0245,0.3353,41.75,-30.27,921.94,-265,-178,-108
1512177356,-0.0173,0.0168,0.3402,20.02,-36.87,1044.74,-265,-192,-94
1512177356,-0.0461,0.0304,0.3250,1.53,-36.13,912.23,-265,-192,-94
1512177356,-0.0458,0.0186,0.3177,-17.15,-75.07,1025.02,-265,-192,-94
1512177356,-0.0342,0.0433,0.3190,-23.19,-13.79,1033.26,-265,-192,-94
1512177356,-0.0402,0.0549,0.3135,6.10,-48.03,975.22,-265,-192,-94
1512177356,-0.0272,0.0594,0.3129,-15.08,-54.20,1106.26,-265,-206,-104
1512177356,0.0109,0.0739,0.3123,-7.14,-35.95,1069.58,-265,-206,-104
1512177356,0.0333,0.0595,0.3224,-6.84,-63.54,1134.22,-265,-206,-104
1512177356,0.0174,0.0292,0.3145,71.78,-76.66,973.27,-265,-206,-104
1512177356,-0.0043,0.0053,0.3177,83.19,-66.89,923.83,-265,-206,-104
1512177356,0.0148,0.0127,0.3226,113.34,-88.26,986.88,-263,-208,-99
1512177356,0.0119,0.0093,0.3358,88.68,-71.04,1008.54,-263,-208,-99
1512177356,-0.0007,0.0153,0.3454,46.08,-40.71,1059.08,-263,-208,-99
1512177356,-0.0064,-0.0036,0.3304,54.32,-38.51,1036.93,-263,-208,-99
1512177356,-0.0224,-0.0185,0.3333,-2.93,-77.45,1012.21,-274,-218,-82
1512177356,-0.0329,-0.0221,0.3244,-1.10,-79.65,956.85,-274,-218,-82
1512177356,-0.0314,-0.0103,0.3157,11.11,-57.92,982.48,-274,-218,-82
1512177356,-0.0305,-0.0037,0.3112,76.60,-90.82,1010.50,-274,-218,-82
1512177356,-0.0252,0.0031,0.2989,78.80,-73.61,962.34,-274,-218,-82
1512177356,-0.0214,0.0158,0.3084,103.45,-96.92,908.45,-263,-225,-96
1512177356,-0.0060,-0.0076,0.3208,101.14,-47.55,976.20,-263,-225,-96
1512177356,0.0124,0.0071,0.3232,125.12,-63.66,975.83,-263,-225,-96
1512177356,0.0036,0.0277,0.3153,110.78,-26.79,1092.96,-263,-225,-96
1512177356,0.0004,0.0585,0.3161,120.06,-65.25,1040.04,-256,-246,-99
1512177356,0.0083,0.0529,0.3099,80.02,-76.97,984.68,-256,-246,-99
1512177356,0.0121,0.0414,0.3238,46.14,-74.83,1005.43,-256,-246,-99
1512177356,0.0297,0.0376,0.3194,42.05,-65.37,1048.89,-256,-246,-99
1512177356,0.0505,0.0403,0.3246,33.94,-76.72,1093.63,-256,-246,-99
1512177356,0.0317,0.0321,0.3261,45.59,-66.28,951.54,-277,-229,-96
1512177356,0.0198,0.0451,0.3427,40.59,-60.61,1016.24,-277,-229,-96
1512177356,0.0276,0.0273,0.3316,21.24,-68.97,1032.41,-277,-229,-96
1512177356,0.0245,0.0391,0.3200,18.31,-30.82,1060.24,-277,-229,-96
1512177356,0.0065,0.0302,0.3145,4.03,-77.51,984.25,-277,-229,-96
1512177356,0.0144,0.0475,0.3119,-29.97,-57.50,957.82,-272,-237,-74
1512177356,-0.0047,0.0241,0.3095,35.52,-64.76,969.36,-272,-237,-74
1512177356,0.0133,0.0184,0.3131,19.96,-90.58,1016.85,-272,-237,-74
1512177357,0.0196,0.0328,0.3170,35.22,-74.52,942.02,-272,-237,-74
1512177357,0.0105,0.0258,0.3135,68.05,-96.56,1015.38,-267,-246,-96
1512177357,0.0021,0.0172,0.3147,73.24,-73.67,938.78,-267,-246,-96
1512177357,-0.0039,0.0101,0.3125,87.16,-47.30,972.41,-267,-246,-96
1512177357,0.0041,-0.0017,0.3147,46.14,-76.23,1012.02,-267,-246,-96
1512177357,-0.0031,-0.0148,0.3157,104.68,-59.94,941.28,-267,-246,-96
1512177357,-0.0083,-0.0198,0.3166,95.03,-38.02,904.11,-270,-257,-99
1512177357,0.0113,-0.0174,0.3177,58.96,-65.73,998.47,-270,-257,-99
1512177357,0.0230,-0.0015,0.3168,27.65,-43.03,1013.79,-270,-257,-99
1512177357,0.0033,-0.0035,0.3131,93.51,-51.33,971.98,-270,-257,-99
1512177357,0.0053,-0.0048,0.3100,93.81,-29.66,989.81,-270,-257,-99
1512177357,-0.0021,-0.0091,0.3096,88.81,-31.37,981.26,-256,-271,-103
1512177357,-0.0041,0.0096,0.3028,118.59,-55.42,950.68,-256,-271,-103
1512177357,-0.0188,0.0023,0.3077,110.23,-37.96,992.92,-256,-271,-103
1512177357,-0.0188,-0.0037,0.3036,124.63,-86.73,946.84,-256,-271,-103
1512177357,-0.0081,0.0224,0.3093,114.26,-41.38,975.34,-256,-282,-110
1512177357,-0.0116,0.0245,0.3091,133.30,-38.15,967.83,-256,-282,-110
1512177357,-0.0071,0.0132,0.3099,104.80,-50.48,1049.26,-256,-282,-110
1512177357,-0.0085,0.0000,0.3116,93.63,-4.64,924.44,-256,-282,-110
1512177357,0.0003,-0.0182,0.3135,59.39,3.97,1042.30,-256,-282,-110
1512177357,0.0210,-0.0013,0.3174,85.82,-0.61,1075.56,-253,-289,-89
1512177357,0.0067,-0.0146,0.3205,48.16,3.23,973.33,-253,-289,-89
1512177357,0.0015,-0.0053,0.3109,39.25,3.42,973.14,-253,-289,-89
1512177357,-0.0081,-0.0039,0.3087,78.61,7.93,978.21,-253,-289,-89
1512177357,-0.0124,0.0148,0.3019,59.08,-20.32,1043.82,-260,-289,-103
1512177357,-0.0181,0.0338,0.2937,-1.83,-16.17,920.53,-260,-289,-103
1512177357,-0.0398,0.0028,0.2969,78.67,-1.53,988.28,-260,-289,-103
1512177357,-0.0298,-0.0096,0.2981,83.80,-16.17,1023.25,-260,-289,-103
1512177357,0.0218,-0.0519,0.3051,78.74,2.69,860.53,-260,-289,-103
1512177357,0.0076,0.0154,0.3051,78.19,-9.03,993.29,-261,-304,-115
1512177357,0.0146,0.0161,0.3053,78.74,2.81,958.86,-261,-304,-115
1512177357,0.0197,0.0099,0.3065,109.68,1.04,1044.86,-261,-304,-115
1512177357,-0.0068,-0.0100,0.3087,156.37,2.87,985.23,-261,-304,-115
1512177357,-0.0132,0.0119,0.3013,93.93,-14.47,985.23,-261,-304,-115
1512177357,-0.0089,0.0148,0.2993,101.99,-30.64,1014.53,-245,-299,-99
1512177357,-0.0128,0.0214,0.2991,79.28,-6.59,960.14,-245,-299,-99
1512177357,-0.0232,0.0100,0.3021,112.92,-1.77,963.26,-245,-299,-99
1512177357,-0.0121,-0.0047,0.2991,130.86,-1.34,988.65,-245,-299,-99
1512177358,-0.0040,-0.0079,0.3021,103.52,6.41,957.58,-253,-320,-96
1512177358,0.0160,0.0068,0.3028,16.97,2.44,1052.55,-253,-320,-96
1512177358,0.0051,0.0008,0.3052,49.01,57.92,990.54,-253,-320,-96
1512177358,0.0025,-0.0028,0.2953,45.84,15.69,1072.75,-253,-320,-96
1512177358,-0.0053,0.0112,0.2882,94.67,-24.17,1035.28,-253,-320,-96
1512177358,-0.0164,0.0117,0.2866,74.28,2.56,982.54,-247,-308,-91
1512177358,-0.0100,0.0300,0.2848,54.99,10.62,1033.57,-247,-308,-91
1512177358,-0.0154,0.0330,0.2834,97.11,-1.53,993.16,-247,-308,-91
1512177358,-0.0140,0.0344,0.2835,57.74,31.13,975.28,-247,-308,-91
1512177358,-0.0069,0.0230,0.2879,74.77,-5.07,990.60,-247,-308,-91
1512177358,0.0071,0.0204,0.2975,52.19,18.62,968.63,-242,-324,-110
1512177358,0.0123,0.0277,0.2932,65.00,15.50,997.13,-242,-324,-110
1512177358,0.0146,0.0190,0.2964,57.56,40.28,1018.13,-242,-324,-110
1512177358,0.0044,0.0166,0.2913,66.53,-8.00,1015.38,-242,-324,-110
1512177358,0.0032,0.0041,0.2887,73.18,20.69,1013.73,-235,-320,-99
1512177358,0.0020,0.0261,0.2866,13.37,-13.43,996.15,-235,-320,-99
1512177358,0.0092,0.0245,0.2806,27.16,33.39,1039.25,-235,-320,-99
1512177358,0.0036,0.0314,0.2790,4.03,15.26,1050.48,-235,-320,-99
1512177358,0.0045,0.0505,0.2708,17.27,-8.42,1036.93,-235,-320,-99
1512177358,-0.0041,0.0490,0.2734,25.70,2.75,989.99,-235,-349,-99
1512177358,0.0001,0.0434,0.2726,68.48,12.39,988.65,-235,-349,-99
1512177358,0.0036,0.0411,0.2756,19.71,29.30,993.04,-235,-349,-99
1512177358,0.0045,0.0314,0.2802,22.46,9.46,913.45,-235,-349,-99
1512177358,0.0067,0.0234,0.2743,69.52,44.37,985.78,-235,-349,-99
1512177358,0.0289,0.0222,0.2815,53.77,4.09,1055.73,-233,-354,-98
1512177358,0.0033,0.0293,0.2750,97.90,2.81,899.35,-233,-354,-98
1512177358,0.0005,0.0391,0.2768,11.54,50.78,969.06,-233,-354,-98
1512177358,0.0043,0.0340,0.2692,39.92,0.85,1080.32,-233,-354,-98
1512177358,-0.0061,0.0230,0.2670,87.52,3.66,999.76,-238,-345,-89
1512177358,-0.0035,0.0200,0.2663,31.37,43.76,958.92,-238,-345,-89
1512177358,-0.0068,0.0356,0.2641,68.18,19.65,936.89,-238,-345,-89
1512177358,-0.0093,0.0417,0.2590,99.85,16.66,993.29,-238,-345,-89
1512177358,-0.0056,0.0429,0.2606,41.81,9.89,991.58,-238,-345,-89
1512177358,0.0049,0.0305,0.2646,3.91,33.57,1028.99,-221,-338,-82
1512177358,0.0130,0.0328,0.2635,35.71,30.52,1022.22,-221,-338,-82
1512177358,0.0144,0.0278,0.2682,20.26,47.91,1037.60,-221,-338,-82
1512177358,0.0084,0.0457,0.2654,34.85,-1.10,1012.82,-221,-338,-82
1512177359,0.0028,0.0461,0.2658,7.81,23.19,1002.62,-226,-343,-88
1512177359,-0.0028,0.0350,0.2630,30.27,7.87,1053.83,-226,-343,-88
1512177359,-0.0051,0.0450,0.2682,46.08,33.02,995.91,-226,-343,-88
1512177359,-0.0109,0.0501,0.2630,-14.10,-4.82,1010.80,-226,-343,-88
1512177359,-0.0097,0.0387,0.2658,-26.86,56.64,1038.70,-226,-343,-88
1512177359,0.0016,0.0394,0.2692,-17.27,7.93,1051.21,-230,-357,-81
1512177359,-0.0096,0.0161,0.2695,41.44,6.59,992.37,-230,-357,-81
1512177359,-0.0511,0.0177,0.2706,87.59,46.39,941.53,-230,-357,-81
1512177359,-0.0245,0.0033,0.2718,75.56,14.40,1003.66,-230,-357,-81
1512177359,-0.0206,-0.0073,0.2692,88.99,4.94,1005.92,-230,-357,-81
1512177359,-0.0218,0.0019,0.2678,74.58,14.95,985.66,-224,-363,-86
1512177359,-0.0023,-0.0009,0.2667,46.69,20.69,1088.32,-224,-363,-86
1512177359,-0.0144,-0.0071,0.2613,121.70,46.57,999.51,-224,-363,-86
1512177359,-0.0150,-0.0053,0.2676,69.09,17.52,998.29,-224,-363,-86
1512177359,-0.0140,0.0119,0.2671,71.35,32.17,991.46,-207,-363,-89
1512177359,-0.0127,0.0153,0.2730,35.77,50.23,1100.28,-207,-363,-89
1512177359,-0.0242,0.0063,0.2751,110.66,37.90,976.68,-207,-363,-89
1512177359,-0.0083,0.0051,0.2788,82.82,54.50,960.45,-207,-363,-89
1512177359,-0.0196,-0.0197,0.2912,110.66,21.91,882.26,-207,-363,-89
1512177359,-0.0040,-0.0204,0.2940,37.84,26.37,996.95,-195,-364,-84
1512177359,0.0087,-0.0132,0.3044,10.07,46.14,1027.59,-195,-364,-84
1512177359,0.0111,-0.0023,0.3012,21.79,15.63,1058.04,-195,-364,-84
1512177359,-0.0133,0.0268,0.2907,43.76,13.24,970.21,-195,-364,-84
1512177359,-0.0273,0.0216,0.2882,68.73,21.55,986.33,-195,-364,-84
1512177359,-0.0085,0.0001,0.2891,11.35,-2.87,1042.42,-200,-380,-86
1512177359,-0.0148,-0.0272,0.2923,70.43,33.45,976.26,-200,-380,-86
1512177359,-0.0009,-0.0107,0.2989,-52.67,-2.99,1027.16,-200,-380,-86
1512177359,0.0324,0.0224,0.2980,59.02,14.47,970.89,-200,-380,-86
1512177359,0.0192,0.0109,0.3103,34.55,15.75,1012.39,-198,-382,-94
1512177359,0.0101,0.0141,0.3079,64.27,-6.16,982.42,-198,-382,-94
1512177359,0.0084,0.0005,0.3125,11.35,27.65,1008.18,-198,-382,-94
1512177359,0.0077,0.0047,0.3072,6.41,-3.91,1008.91,-198,-382,-94
1512177359,0.0007,-0.0178,0.3100,53.71,18.80,1020.26,-198,-382,-94
1512177359,0.0084,-0.0084,0.3116,52.67,6.53,1032.90,-191,-400,-84
1512177359,0.0134,0.0013,0.3206,13.85,8.48,1046.08,-191,-400,-84
1512177359,0.0116,0.0080,0.3159,73.12,0.24,1009.16,-191,-400,-84
1512177359,-0.0092,-0.0130,0.3248,75.62,26.43,967.59,-191,-400,-84
1512177359,-0.0103,-0.0172,0.3248,101.26,-19.96,1012.45,-191,-400,-84
1512177360,-0.0036,-0.0173,0.3380,57.31,12.21,941.89,-177,-400,-91
1512177360,-0.0041,-0.0081,0.3320,114.81,-23.50,929.02,-177,-400,-91
1512177360,-0.0005,0.0099,0.3357,86.06,-16.48,1002.93,-177,-400,-91
1512177360,0.0065,0.0200,0.3386,93.99,-6.96,1066.47,-177,-400,-91
1512177360,-0.0121,0.0356,0.3393,89.84,-24.23,983.03,-172,-409,-86
1512177360,-0.0116,0.0537,0.3305,130.37,22.64,999.45,-172,-409,-86
1512177360,0.0129,0.0590,0.3401,46.69,10.31,1055.54,-172,-409,-86
1512177360,0.0136,0.0441,0.3886,107.06,52.31,1001.28,-172,-409,-86
1512177360,0.0099,0.0357,0.3606,111.82,4.21,965.82,-172,-409,-86
1512177360,0.0084,0.0168,0.3683,30.70,-7.02,948.91,-170,-410,-98
1512177360,0.0233,0.0441,0.3722,84.23,-26.43,982.73,-170,-410,-98
1512177360,0.0244,0.0518,0.3766,75.50,-2.69,1006.10,-170,-410,-98
1512177360,0.0065,0.0395,0.3766,98.82,10.07,1001.71,-170,-410,-98
1512177360,0.0119,0.0491,0.3691,115.23,-19.35,1047.85,-170,-410,-98
1512177360,0.0228,0.0522,0.3649,57.80,23.99,1010.38,-158,-401,-76
1512177360,0.0116,0.0362,0.3627,92.65,-47.24,1005.80,-158,-401,-76
1512177360,0.0150,0.0289,0.3698,17.40,-19.10,1003.54,-158,-401,-76
1512177360,0.0105,0.0232,0.3722,91.74,-5.68,1048.16,-158,-401,-76
1512177360,0.0142,0.0266,0.3794,19.47,7.45,1055.60,-161,-412,-79
1512177360,0.0040,0.0192,0.3702,170.10,-35.16,948.61,-161,-412,-79
1512177360,-0.0088,0.0016,0.3680,104.43,-7.32,868.71,-161,-412,-79
1512177360,0.0144,-0.0104,0.3715,144.71,-15.14,1026.49,-161,-412,-79
1512177360,0.0194,0.0123,0.3746,107.48,-2.81,1011.17,-161,-412,-79
1512177360,0.0270,0.0423,0.3750,36.13,-4.52,1068.85,-158,-405,-76
1512177360,0.0196,0.0365,0.3728,66.96,-22.95,981.75,-158,-405,-76
1512177360,0.0028,0.0289,0.3778,30.94,-45.59,916.69,-158,-405,-76
1512177360,0.0105,-0.0009,0.3814,32.23,-36.07,935.24,-158,-405,-76
1512177360,0.0188,-0.0284,0.3823,34.36,-21.55,936.83,-138,-417,-81
1512177360,0.0322,-0.0414,0.3827,28.44,-28.32,985.11,-138,-417,-81
1512177360,0.0246,-0.0154,0.3826,48.46,-24.17,1024.90,-138,-417,-81
1512177360,0.0152,-0.0458,0.3818,63.42,-38.76,992.49,-138,-417,-81
1512177360,0.0015,-0.0328,0.3719,119.69,-39.12,909.42,-138,-417,-81
1512177360,-0.0084,-0.0312,0.3702,76.97,-31.92,976.26,-130,-416,-76
1512177360,-0.0091,-0.0272,0.3674,99.55,-37.35,1060.67,-130,-416,-76
1512177360,0.0162,-0.0414,0.3715,41.02,-54.20,952.76,-130,-416,-76
1512177360,0.0149,-0.0185,0.3756,71.84,-35.64,1035.10,-130,-416,-76
1512177360,0.0423,-0.0328,0.3836,54.69,-61.65,1010.38,-130,-416,-76
1512177360,0.0157,-0.0150,0.3799,72.81,-27.65,986.02,-122,-430,-86
1512177361,0.0481,-0.0373,0.3838,42.05,-15.01,1045.72,-122,-430,-86
1512177361,0.0429,-0.0075,0.3783,16.11,-35.64,1057.13,-122,-430,-86
1512177361,0.0467,0.0008,0.3720,69.03,7.26,1005.25,-122,-430,-86
1512177361,0.0172,0.0366,0.3667,80.63,-8.12,1020.87,-93,-417,-81
1512177361,0.0035,0.0726,0.3566,162.11,-25.33,1055.24,-93,-417,-81
1512177361,-0.0184,0.0866,0.3557,198.12,1.22,1092.47,-93,-417,-81
1512177361,-0.0364,0.1057,0.3545,124.08,-52.25,1034.55,-93,-417,-81
1512177361,-0.0387,0.0762,0.3579,107.79,-48.89,961.91,-93,-417,-81
1512177361,-0.0190,0.0246,0.3700,80.02,-83.50,948.36,-93,-428,-91
1512177361,0.0047,0.0041,0.3722,50.23,-97.11,908.63,-93,-428,-91
1512177361,0.0028,0.0266,0.3828,71.29,-79.28,950.56,-93,-428,-91
1512177361,0.0376,-0.0040,0.3814,35.52,-114.69,940.37,-93,-428,-91
1512177361,0.0284,-0.0193,0.3846,34.24,-95.34,932.37,-93,-428,-91
1512177361,0.0438,-0.0244,0.3694,33.39,-80.14,938.29,-91,-430,-82
1512177361,0.0414,-0.0123,0.3570,49.87,-70.43,997.92,-91,-430,-82
1512177361,0.0127,-0.0029,0.3441,93.08,-56.95,1008.79,-91,-430,-82
1512177361,0.0040,-0.0181,0.3350,102.84,-44.43,1031.86,-91,-430,-82
1512177361,0.0072,-0.0534,0.3270,134.28,-26.00,1077.21,-75,-442,-81
1512177361,-0.0031,-0.0703,0.3482,142.70,-28.26,1084.05,-75,-442,-81
1512177361,-0.0170,-0.0711,0.3517,59.14,-118.10,1054.08,-75,-442,-81
1512177361,-0.0425,-0.0917,0.3597,79.28,-62.87,943.54,-75,-442,-81
1512177361,-0.0119,-0.0603,0.3756,98.39,-105.16,994.14,-75,-442,-81
1512177361,0.0031,-0.0387,0.3720,117.07,-113.28,976.75,-84,-437,-86
1512177361,-0.0055,-0.0328,0.3676,196.84,-70.80,948.67,-84,-437,-86
1512177361,-0.0025,-0.0144,0.3559,154.85,-137.33,1011.90,-84,-437,-86
1512177361,0.0073,0.0019,0.3518,169.62,-75.07,1009.77,-84,-437,-86
1512177361,-0.0072,-0.0031,0.3502,146.30,-99.98,960.51,-75,-442,-84
1512177361,0.0364,-0.0162,0.3554,155.46,-70.56,1041.87,-75,-442,-84
1512177361,0.0194,-0.0161,0.3611,102.05,-97.11,1004.64,-75,-442,-84
1512177361,0.0186,-0.0348,0.3680,80.02,-129.39,1005.80,-75,-442,-84
1512177361,0.0228,-0.0085,0.3708,132.02,-82.09,1056.76,-75,-442,-84
1512177361,0.0224,-0.0249,0.3840,119.32,-105.10,1047.42,-54,-446,-81
1512177361,0.0123,-0.0071,0.3690,191.47,-111.08,983.15,-54,-446,-81
1512177361,-0.0056,-0.0077,0.3690,198.00,-86.36,1048.83,-54,-446,-81
1512177361,0.0051,-0.0101,0.3678,175.90,-93.93,1090.45,-54,-446,-81
1512177361,0.0288,-0.0248,0.3611,192.14,-125.61,1097.90,-54,-446,-81
1512177361,-0.0092,-0.0360,0.3611,134.58,-152.77,896.85,-63,-447,-89
1512177361,-0.0101,-0.0112,0.3603,132.51,-148.99,985.35,-63,-447,-89
1512177362,0.0039,-0.0087,0.3767,27.47,-105.90,1098.27,-63,-447,-89
1512177362,0.0007,-0.0072,0.3787,128.30,-136.41,990.78,-63,-447,-89
1512177362,0.0103,0.0060,0.3774,213.75,-128.91,975.34,-33,-456,-101
1512177362,0.0157,0.0241,0.3719,204.53,-113.71,1010.44,-33,-456,-101
1512177362,0.0282,0.0429,0.3630,244.02,-87.28,1066.59,-33,-456,-101
1512177362,0.0683,0.0509,0.4151,137.82,-63.72,952.09,-33,-456,-101
1512177362,0.0366,0.1157,0.3555,162.96,-139.71,1058.04,-33,-456,-101
1512177362,0.0470,0.1212,0.3515,120.67,-108.89,954.59,-36,-456,-94
1512177362,0.0582,0.0900,0.3700,45.23,-123.54,927.31,-36,-456,-94
1512177362,0.0609,0.0658,0.3763,108.34,-143.37,919.49,-36,-456,-94
1512177362,0.0354,0.0370,0.3976,71.72,-84.17,966.61,-36,-456,-94
1512177362,-0.0165,0.0063,0.4068,83.44,-156.01,971.44,-36,-456,-94
1512177362,-0.0349,-0.0121,0.3980,34.91,-141.48,926.21,-42,-447,-82
1512177362,-0.0574,-0.0486,0.3832,99.12,-84.47,964.72,-42,-447,-82
1512177362,-0.0595,-0.0427,0.3783,103.88,-122.92,994.20,-42,-447,-82
1512177362,-0.0394,-0.0079,0.3707,140.38,-97.41,1048.46,-42,-447,-82
1512177362,-0.0692,-0.0045,0.3605,107.30,-105.22,988.10,-14,-444,-103
1512177362,-0.0443,-0.0079,0.3523,124.76,-85.33,1018.62,-14,-444,-103
1512177362,0.0001,-0.0182,0.3501,124.69,-147.64,1092.65,-14,-444,-103
1512177362,-0.0124,-0.0080,0.3466,127.69,-99.85,999.39,-14,-444,-103
1512177362,-0.0185,-0.0028,0.3555,106.57,-116.39,1014.16,-14,-444,-103
1512177362,-0.0071,-0.0071,0.3531,141.54,-117.55,998.54,-12,-446,-98
1512177362,-0.0011,-0.0228,0.3529,179.32,-154.30,1046.57,-12,-446,-98
1512177362,-0.0089,0.0141,0.3506,172.79,-123.47,981.87,-12,-446,-98
1512177362,-0.0133,-0.0053,0.3449,243.41,-105.41,1016.42,-12,-446,-98
1512177362,-0.0087,0.0009,0.3328,77.94,-90.45,1129.03,1,-431,-74
1512177362,-0.0063,-0.0083,0.3294,136.72,-84.11,1069.52,1,-431,-74
1512177362,0.0021,-0.0138,0.3205,48.34,-138.98,999.21,1,-431,-74
1512177362,-0.0166,-0.0107,0.3137,123.35,-73.06,990.42,1,-431,-74
1512177362,0.0079,0.0108,0.3216,60.49,-201.48,1039.79,1,-431,-74
1512177362,-0.0097,0.0165,0.2928,87.59,-107.67,925.23,0,-426,-89
1512177362,-0.0308,-0.0107,0.3178,112.37,-209.05,1036.25,0,-426,-89
1512177362,-0.0217,0.0016,0.2767,141.66,-134.70,946.41,0,-426,-89
1512177362,-0.0338,-0.0021,0.2776,127.62,-109.37,984.74,0,-426,-89
1512177362,-0.0272,0.0115,0.2674,123.41,-139.77,1032.23,0,-426,-89
1512177362,-0.0306,0.0077,0.2631,115.17,-125.18,947.02,28,-426,-110
1512177362,-0.0386,0.0216,0.2545,116.33,-154.05,1006.71,28,-426,-110
1512177363,-0.0349,0.0361,0.2519,99.67,-71.17,984.92,28,-426,-110
1512177363,0.0000,0.0241,0.2465,40.22,-113.40,1089.42,28,-426,-110
1512177363,0.0111,0.0305,0.2361,19.35,-147.71,1006.90,19,-435,-98
1512177363,-0.0065,0.0149,0.2253,112.79,-133.36,1005.98,19,-435,-98
1512177363,-0.0198,0.0284,0.2229,35.71,-157.84,995.91,19,-435,-98
1512177363,0.0004,0.0278,0.2129,74.52,-132.87,1049.93,19,-435,-98
1512177363,-0.0222,0.0354,0.2125,75.26,-161.07,978.45,19,-435,-98
1512177363,-0.0185,0.0406,0.2015,94.97,-192.93,951.23,10,-423,-82
1512177363,-0.0254,0.0238,0.1983,62.50,-140.75,1020.02,10,-423,-82
1512177363,-0.0252,0.0354,0.1933,72.14,-123.72,1035.64,10,-423,-82
1512177363,-0.0305,0.0625,0.1807,143.98,-119.45,993.10,10,-423,-82
1512177363,-0.0301,0.0712,0.1744,110.05,-118.59,1062.87,10,-423,-82
1512177363,-0.0276,0.0640,0.1622,107.24,-141.72,1022.52,33,-417,-101
1512177363,-0.0036,0.0587,0.1719,22.22,-136.17,1060.91,33,-417,-101
1512177363,-0.0282,0.0561,0.1617,60.18,-126.65,939.58,33,-417,-101
1512177363,-0.0063,0.0370,0.1613,24.17,-170.65,1026.67,33,-417,-101
1512177363,0.0000,0.0302,0.1606,24.96,-145.39,1053.65,33,-417,-77
1512177363,0.0077,0.0495,0.1660,52.92,-191.71,1116.64,33,-417,-77
1512177363,-0.0128,0.0499,0.1554,64.58,-128.66,1024.60,33,-417,-77
1512177363,-0.0172,0.0486,0.1441,65.92,-118.65,1026.73,33,-417,-77
1512177363,-0.0005,0.0446,0.1386,65.31,-134.22,1040.10,33,-417,-77
1512177363,-0.0017,0.0280,0.1394,45.41,-90.64,1034.12,45,-409,-89
1512177363,-0.0113,0.0316,0.1268,35.34,-146.48,991.39,45,-409,-89
1512177363,0.0020,0.0289,0.1125,82.03,-114.56,1002.08,45,-409,-89
1512177363,-0.0040,0.0181,0.1037,28.38,-110.23,1039.79,45,-409,-89
1512177363,-0.0039,0.0222,0.1233,-0.49,-157.59,1024.17,45,-409,-89
1512177363,0.0069,0.0045,0.1253,7.45,-118.35,987.61,43,-403,-67
1512177363,-0.0136,-0.0100,0.1222,13.61,-146.42,977.60,43,-403,-67
1512177363,-0.0164,-0.0120,0.1188,64.58,-146.30,1002.50,43,-403,-67
1512177363,-0.0290,0.0001,0.1152,12.63,-140.75,1027.22,43,-403,-67
1512177363,-0.0381,0.0007,0.1001,18.43,-112.30,982.79,35,-391,-72
1512177363,-0.0398,-0.0068,0.0955,110.72,-138.55,1009.89,35,-391,-72
1512177363,-0.0250,0.0185,0.0891,71.04,-114.01,1128.23,35,-391,-72
1512177363,-0.0451,0.0095,0.0882,46.26,-195.01,1028.20,35,-391,-72
1512177363,-0.0352,0.0330,0.0679,78.61,-150.94,990.97,35,-391,-72
1512177363,-0.0300,0.0345,0.0822,70.74,-157.04,1033.69,52,-391,-86
1512177363,-0.0253,0.0383,0.0780,81.85,-125.67,985.17,52,-391,-86
1512177363,-0.0257,0.0458,0.0756,77.45,-131.23,1102.11,52,-391,-86
1512177364,-0.0274,0.0370,0.0724,10.31,-147.40,921.87,52,-391,-86
1512177364,0.0178,0.0301,0.0678,-93.14,-98.27,1104.86,56,-409,-72
1512177364,-0.0181,0.0332,0.0909,-53.59,-125.79,1063.17,56,-409,-72
1512177364,-0.0332,0.0338,0.0607,-13.00,-153.63,1068.73,56,-409,-72
1512177364,-0.0843,0.0158,0.0483,72.75,-121.22,989.14,56,-409,-72
1512177364,-0.0360,0.0350,0.0385,-66.96,-192.14,1041.50,56,-409,-72
1512177364,-0.0318,0.0422,0.0385,29.30,-148.99,1019.84,66,-394,-66
1512177364,-0.0531,0.0403,0.0360,26.49,-126.53,986.88,66,-394,-66
1512177364,-0.0678,0.0401,0.0334,-15.81,-196.84,1023.68,66,-394,-66
1512177364,-0.0581,0.0549,0.0228,16.11,-121.28,960.45,66,-394,-66
1512177364,-0.0493,0.0467,0.0326,14.22,-194.09,999.57,66,-394,-66
1512177364,-0.0269,0.0487,0.0401,53.47,-157.23,1063.29,68,-410,-74
1512177364,-0.0285,0.0248,0.0466,17.76,-209.59,992.98,68,-410,-74
1512177364,-0.0089,0.0618,0.0298,86.00,-143.86,963.99,68,-410,-74
1512177364,-0.0810,-0.0047,0.0386,185.67,-204.41,845.09,68,-410,-74
1512177364,-0.0310,-0.0197,0.0120,62.50,-128.72,805.11,66,-391,-69
1512177364,0.0039,0.0241,0.0105,67.32,-175.17,1044.62,66,-391,-69
1512177364,0.0084,-0.0019,0.0298,-44.25,-184.02,986.08,66,-391,-69
1512177364,-0.0045,0.0052,0.0097,101.20,-152.65,806.15,66,-391,-69
1512177364,-0.0101,0.0063,0.0160,-65.37,-184.33,982.67,66,-391,-69
1512177364,-0.0039,0.0071,0.0169,65.80,-111.08,1046.14,43,-389,-64
1512177364,-0.0083,0.0276,0.0073,48.16,-206.60,1032.10,43,-389,-64
1512177364,-0.0061,0.0344,0.0007,2.14,-138.43,944.40,43,-389,-64
1512177364,0.0192,0.0172,0.0105,-17.70,-161.50,974.61,43,-389,-64
1512177364,0.0192,0.0083,0.0108,-59.20,-170.84,1123.66,43,-389,-64
1512177364,0.0282,0.0037,0.0115,-35.64,-148.38,1049.19,43,-393,-74
1512177364,0.0249,-0.0150,-0.0021,11.47,-145.94,983.76,43,-393,-74
1512177364,0.0502,0.0312,-0.0085,-54.87,-132.87,1093.38,43,-393,-74
1512177364,0.0320,0.0407,-0.0221,-39.06,-136.66,1040.41,43,-393,-74
1512177364,0.0450,0.0630,-0.0254,-17.76,-176.15,1077.45,56,-391,-66
1512177364,0.0240,0.0465,-0.0406,23.56,-99.24,990.36,56,-391,-66
1512177364,0.0212,0.0144,-0.0398,-2.75,-196.96,1026.43,56,-391,-66
1512177364,0.0320,0.0349,-0.0414,-39.31,-152.53,977.11,56,-391,-66
1512177364,0.0130,0.0300,-0.0277,-21.42,-139.47,905.82,56,-391,-66
1512177364,0.0180,0.0872,-0.0341,-14.28,-115.66,1025.57,56,-387,-72
1512177364,0.0313,0.0332,0.0071,-156.31,-212.65,1057.25,56,-387,-72
1512177364,0.0397,0.0391,-0.0113,-72.88,-183.84,796.45,56,-387,-72
1512177364,0.0201,0.0116,-0.0302,-137.08,-163.64,972.17,56,-387,-72
1512177365,0.0498,0.0241,0.0045,-96.74,-222.29,1063.35,56,-387,-72
1512177365,0.0506,0.0242,-0.0597,-52.55,-64.45,934.33,49,-398,-62
1512177365,0.0245,-0.0044,0.0101,-83.86,-158.69,973.63,49,-398,-62
1512177365,0.0582,0.0035,-0.0285,-77.58,4.82,1010.99,49,-398,-62
1512177365,0.0304,-0.0027,-0.0434,9.16,-31.56,916.75,49,-398,-62
1512177365,0.0309,0.0084,-0.0549,-39.73,-103.76,999.57,45,-391,-32
1512177365,0.0313,0.0013,-0.0603,-56.76,-123.17,992.55,45,-391,-32
1512177365,0.0226,0.0065,-0.0631,-26.55,-159.55,926.09,45,-391,-32
1512177365,0.0318,-0.0096,-0.0563,-29.72,-106.99,1000.98,45,-391,-32
1512177365,0.0310,0.0081,-0.0495,-58.29,-96.01,971.13,45,-391,-32
1512177365,0.0376,0.0278,-0.0506,-22.58,-111.76,967.29,42,-391,-42
1512177365,0.0377,0.0128,-0.0570,-48.46,-105.10,1028.44,42,-391,-42
1512177365,0.0455,0.0109,-0.0598,-93.69,-72.63,1009.34,42,-391,-42
1512177365,0.0486,0.0081,-0.0558,-146.85,-86.79,1027.16,42,-391,-42
1512177365,0.0503,-0.0017,-0.0631,-99.37,-55.24,1019.41,42,-391,-42
1512177365,0.0406,-0.0035,-0.0593,-55.97,-82.95,990.84,47,-393,-40
1512177365,0.0435,0.0228,-0.0715,-83.92,-72.81,938.78,47,-393,-40
1512177365,0.0513,0.0040,-0.0852,-72.51,-71.96,976.07,47,-393,-40
1512177365,0.0555,-0.0001,-0.0847,-79.41,-78.06,970.89,47,-393,-40
1512177365,0.0381,-0.0072,-0.0875,-50.54,-49.07,914.00,36,-393,-50
1512177365,0.0212,-0.0189,-0.0927,-32.90,-58.84,949.89,36,-393,-50
1512177365,0.0276,-0.0254,-0.0927,-75.93,-53.59,1005.68,36,-393,-50
1512177365,0.0264,-0.0270,-0.0880,-62.07,-37.48,990.42,36,-393,-50
1512177365,0.0206,-0.0356,-0.0860,-103.09,-54.32,998.11,36,-393,-50
1512177365,0.0229,-0.0320,-0.0951,-100.59,-39.25,970.83,45,-394,-25
1512177365,0.0210,-0.0308,-0.0968,-116.64,-29.05,1056.40,45,-394,-25
1512177365,0.0124,-0.0254,-0.1001,-85.27,-32.17,1004.58,45,-394,-25
1512177365,0.0013,-0.0119,-0.1068,-65.61,-59.88,961.61,45,-394,-25
1512177365,0.0041,-0.0221,-0.1068,-66.89,-41.63,1023.50,45,-394,-25
1512177365,0.0083,-0.0313,-0.1020,-31.49,-54.02,980.96,29,-410,-37
1512177365,0.0228,-0.0280,-0.0969,-102.23,-55.97,973.51,29,-410,-37
1512177365,0.0254,-0.0266,-0.0929,-78.74,-37.78,990.11,29,-410,-37
1512177365,0.0148,-0.0308,-0.0947,-34.85,-70.74,979.68,29,-410,-37
1512177365,0.0214,-0.0206,-0.0939,-48.46,-75.26,940.00,33,-414,-40
1512177365,0.0245,-0.0262,-0.0941,-92.35,-1.95,1006.77,33,-414,-40
1512177365,0.0152,-0.0559,-0.0891,-108.52,-57.07,990.97,33,-414,-40
1512177365,0.0071,-0.0475,-0.1004,-54.08,-73.67,952.94,33,-414,-40
1512177365,0.0053,-0.0425,-0.1025,-48.28,-65.19,880.13,33,-414,-40
1512177366,0.0240,-0.0173,-0.1069,-33.26,-64.21,1002.69,29,-396,-33
1512177366,0.0229,-0.0205,-0.1027,-53.53,-53.71,953.06,29,-396,-33
1512177366,0.0170,-0.0429,-0.1056,-55.30,-12.76,1002.87,29,-396,-33
1512177366,0.0190,-0.0443,-0.1051,-38.09,-39.12,1017.58,29,-396,-33
1512177366,0.0213,-0.0349,-0.1052,-49.44,-29.17,1040.77,12,-396,-23
1512177366,0.0214,-0.0455,-0.0983,16.66,-54.63,955.32,12,-396,-23
1512177366,0.0238,-0.0397,-0.1035,-44.68,-23.50,1023.38,12,-396,-23
1512177366,-0.0004,-0.0770,-0.1071,-58.35,-69.03,1065.67,12,-396,-23
1512177366,-0.0020,-0.0514,-0.1113,-49.44,-20.63,1033.08,12,-396,-23
1512177366,-0.0095,-0.0154,-0.1154,-64.94,-27.77,1027.16,24,-401,-5
1512177366,-0.0176,-0.0028,-0.1188,-7.26,-29.17,1074.22,24,-401,-5
1512177366,-0.0213,-0.0101,-0.1201,-38.88,-22.22,1008.24,24,-401,-5
1512177366,-0.0338,-0.0128,-0.1248,-56.15,-37.23,987.18,24,-401,-5
1512177366,-0.0260,-0.0285,-0.1230,1.71,-41.26,968.93,24,-401,-5
1512177366,-0.0269,-0.0292,-0.1226,-20.08,-59.57,946.90,28,-409,1
1512177366,-0.0127,-0.0320,-0.1250,-37.35,-57.43,955.08,28,-409,1
1512177366,0.0123,-0.0427,-0.1250,-94.85,-61.28,986.15,28,-409,1
1512177366,0.0047,-0.0386,-0.1174,-119.32,-13.98,982.60,28,-409,1
1512177366,-0.0049,-0.0346,-0.1257,-107.42,-50.17,964.23,43,-393,16
1512177366,-0.0218,-0.0184,-0.1392,-42.66,-59.02,932.25,43,-393,16
1512177366,-0.0262,-0.0166,-0.1487,-38.51,-26.73,1000.31,43,-393,16
1512177366,-0.0282,-0.0296,-0.1519,-111.33,-48.34,1037.96,43,-393,16
1512177366,-0.0276,-0.0300,-0.1557,-76.35,-53.83,1008.73,43,-393,16
1512177366,-0.0202,-0.0197,-0.1566,-102.17,-37.29,988.40,35,-391,-11
1512177366,-0.0144,-0.0001,-0.1585,-74.28,-30.33,1031.62,35,-391,-11
1512177366,-0.0049,-0.0197,-0.1519,-152.65,-31.49,1093.93,35,-391,-11
1512177366,-0.0025,-0.0429,-0.1473,-137.57,-62.32,1031.49,35,-391,-11
1512177366,0.0001,-0.0479,-0.1407,-147.28,-20.14,1032.78,35,-391,-11
1512177366,0.0076,-0.0107,-0.1518,-118.23,-23.99,1001.40,33,-403,-6
1512177366,0.0204,0.0129,-0.1654,-24.96,-36.01,1060.00,33,-403,-6
1512177366,0.0148,0.0024,-0.1722,-90.70,-78.25,1020.81,33,-403,-6
1512177366,0.0234,-0.0040,-0.1747,-70.92,-36.99,1015.08,33,-403,-6
1512177366,0.0194,0.0089,-0.1744,-115.91,-27.89,970.64,33,-403,-6
1512177366,0.0296,0.0080,-0.1766,-120.97,-31.43,952.94,42,-405,-1
1512177366,0.0177,0.0116,-0.1736,-104.00,-17.33,940.00,42,-405,-1
1512177366,0.0048,0.0015,-0.1702,-142.33,-51.33,951.17,42,-405,-1
1512177366,-0.0130,-0.0088,-0.1738,-96.37,-58.96,1015.20,42,-405,-1
1512177366,-0.0208,0.0035,-0.1711,-112.79,-19.78,961.79,35,-409,-11
1512177367,-0.0229,-0.0136,-0.1794,-134.03,-48.71,1031.86,35,-409,-11
1512177367,-0.0134,-0.0144,-0.1862,-131.04,-23.80,966.67,35,-409,-11
1512177367,-0.0166,-0.0083,-0.1895,-90.52,-57.98,1020.57,35,-409,-11
1512177367,-0.0095,-0.0242,-0.1917,-72.14,-47.24,986.15,35,-409,-11
1512177367,-0.0079,-0.0264,-0.1955,-94.67,-10.25,1009.52,28,-423,-11
1512177367,-0.0080,-0.0196,-0.1980,-125.24,-38.51,1036.99,28,-423,-11
1512177367,0.0055,-0.0105,-0.2041,-126.16,-47.91,1015.93,28,-423,-11
1512177367,0.0031,0.0001,-0.2084,-146.18,-60.06,967.96,28,-423,-11
1512177367,0.0028,0.0044,-0.2069,-135.44,-38.15,1019.65,7,-423,-11
1512177367,0.0154,0.0072,-0.2032,-124.63,-23.44,959.78,7,-423,-11
1512177367,0.0056,0.0181,-0.2037,-155.40,-5.25,966.92,7,-423,-11
1512177367,0.0004,0.0249,-0.2112,-158.20,-2.93,1016.78,7,-423,-11
1512177367,-0.0104,0.0169,-0.2180,-169.13,9.03,1065.25,7,-423,-11
1512177367,-0.0105,0.0260,-0.2252,-155.21,-14.59,1041.20,14,-412,-11
1512177367,-0.0117,0.0345,-0.2328,-186.16,-31.31,1048.52,14,-412,-11
1512177367,-0.0170,0.0304,-0.2368,-174.56,-22.64,1007.14,14,-412,-11
1512177367,-0.0202,0.0144,-0.2462,-122.38,-49.87,1050.60,14,-412,-11
1512177367,-0.0189,0.0064,-0.2437,-143.55,-24.54,1016.91,14,-412,-11
1512177367,-0.0233,0.0246,-0.2407,-106.38,-37.35,968.87,5,-421,-6
1512177367,-0.0176,0.0093,-0.2423,-167.36,-32.23,1027.04,5,-421,-6
1512177367,-0.0273,0.0140,-0.2401,-116.64,27.34,990.42,5,-421,-6
1512177367,-0.0546,0.0109,-0.2550,-120.54,-58.17,1033.26,5,-421,-6
1512177367,-0.0382,0.0044,-0.2562,-222.90,-36.68,986.63,-10,-416,-5
1512177367,-0.0381,0.0035,-0.2599,-180.85,-50.90,979.37,-10,-416,-5
1512177367,-0.0409,0.0099,-0.2573,-227.66,-43.15,998.84,-10,-416,-5
1512177367,-0.0332,0.0217,-0.2573,-189.39,-47.79,1002.87,-10,-416,-5
1512177367,-0.0461,0.0012,-0.2676,-154.42,-54.26,1006.71,-10,-416,-5
1512177367,-0.0398,0.0073,-0.2645,-145.14,-29.05,964.66,3,-416,-15
1512177367,-0.0439,0.0248,-0.2751,-116.27,-20.02,990.66,3,-416,-15
1512177367,-0.0445,0.0502,-0.2613,-61.71,-26.92,928.65,3,-416,-15
1512177367,-0.0435,0.0573,-0.2732,-102.91,-18.01,1072.08,3,-416,-15
1512177367,-0.0274,0.0549,-0.2682,-220.76,-37.48,986.82,3,-416,-15
1512177367,-0.0369,0.0418,-0.2611,-153.32,-5.92,1027.95,-15,-410,-16
1512177367,-0.0236,0.0245,-0.2585,-191.47,-67.50,937.87,-15,-410,-16
1512177367,-0.0049,0.0214,-0.2483,-187.62,-50.72,950.62,-15,-410,-16
1512177367,-0.0075,0.0214,-0.2465,-147.64,-22.22,990.97,-15,-410,-16
1512177367,-0.0033,0.0092,-0.2557,-235.72,-7.93,1002.38,-10,-409,-11
1512177367,0.0048,-0.0015,-0.2570,-255.80,5.07,1038.39,-10,-409,-11
1512177368,0.0005,0.0150,-0.2491,-199.95,-14.59,1008.18,-10,-409,-11
1512177368,0.0043,0.0300,-0.2567,-166.38,-37.54,935.42,-10,-409,-11
1512177368,-0.0061,0.0293,-0.2659,-194.82,-48.40,994.93,-10,-409,-11
1512177368,-0.0016,0.0093,-0.2615,-178.89,4.46,1026.73,-19,-407,-27
1512177368,-0.0039,-0.0007,-0.2605,-186.22,-43.64,962.16,-19,-407,-27
1512177368,-0.0107,0.0053,-0.2569,-151.92,-56.15,994.93,-19,-407,-27
1512177368,0.0008,0.0225,-0.2485,-144.65,-24.96,978.15,-19,-407,-27
1512177368,0.0041,0.0225,-0.2510,-157.35,-39.06,1014.89,-19,-407,-27
1512177368,0.0040,0.0217,-0.2478,-83.56,-37.23,941.65,-19,-417,-10
1512177368,0.0052,0.0064,-0.2486,-117.37,-39.25,1015.32,-19,-417,-10
1512177368,0.0040,-0.0164,-0.2449,-128.66,-21.18,993.90,-19,-417,-10
1512177368,-0.0141,-0.0119,-0.2463,-68.60,-78.00,942.32,-19,-417,-10
1512177368,-0.0197,-0.0012,-0.2535,-87.71,-61.22,1017.58,-31,-412,-15
1512177368,-0.0101,0.0197,-0.2485,-38.57,4.82,1036.62,-31,-412,-15
1512177368,0.0028,0.0326,-0.2589,-126.83,-81.12,957.95,-31,-412,-15
1512177368,0.0165,0.0304,-0.2578,-113.34,-36.13,1008.42,-31,-412,-15
1512177368,0.0107,0.0099,-0.2467,-132.32,-98.27,938.48,-31,-412,-15
1512177368,0.0240,-0.0012,-0.2445,-120.85,-47.24,992.74,-33,-414,-20
1512177368,0.0348,-0.0141,-0.2264,-134.89,-11.54,1078.43,-33,-414,-20
1512177368,0.0194,-0.0164,-0.2286,-133.48,-40.34,1018.74,-33,-414,-20
1512177368,0.0228,-0.0161,-0.2216,-158.45,-4.94,1042.54,-33,-414,-20
1512177368,0.0190,-0.0111,-0.2209,-184.27,-36.32,992.92,-52,-405,-5
1512177368,0.0153,0.0052,-0.2192,-129.15,-29.79,1028.56,-52,-405,-5
1512177368,0.0208,-0.0027,-0.2128,-134.52,6.35,1000.24,-52,-405,-5
1512177368,0.0190,-0.0200,-0.2073,-147.83,-43.88,981.69,-52,-405,-5
1512177368,0.0136,-0.0280,-0.2028,-111.69,-11.35,990.23,-52,-405,-5
1512177368,0.0055,-0.0047,-0.1944,-107.18,-0.73,952.03,-52,-437,-8
1512177368,0.0029,0.0096,-0.1973,-37.84,-27.10,978.15,-52,-437,-8
1512177368,-0.0005,-0.0052,-0.2040,-43.70,-71.41,1007.69,-52,-437,-8
1512177368,-0.0148,-0.0093,-0.2201,-102.78,-80.51,863.40,-52,-437,-8
1512177368,0.0145,-0.0916,-0.1518,40.47,-84.53,948.67,-52,-437,-8
1512177368,0.0000,-0.0502,-0.1562,-17.33,25.51,1040.16,-57,-428,-20
1512177368,0.0324,-0.0109,-0.1505,-88.87,10.25,990.17,-57,-428,-20
1512177368,0.0088,0.0039,-0.1617,-17.09,-17.52,960.88,-57,-428,-20
1512177368,-0.0095,-0.0129,-0.1541,-51.45,-28.14,1040.47,-57,-428,-20
1512177368,0.0000,-0.0322,-0.1467,-134.89,-52.80,1012.63,-68,-438,0
1512177368,0.0003,-0.0563,-0.1466,-170.10,-44.49,937.01,-68,-438,0
1512177369,-0.0053,-0.0840,-0.1286,-120.54,-82.52,1026.79,-68,-438,0
1512177369,0.0068,-0.0820,-0.1322,-133.54,22.03,976.81,-68,-438,0
1512177369,0.0108,-0.0391,-0.1245,-71.23,-24.05,941.77,-68,-438,0
1512177369,0.0012,-0.0473,-0.1194,-16.24,-33.75,923.22,-77,-419,-8
1512177369,-0.0312,-0.0549,-0.1169,121.58,-7.39,992.55,-77,-419,-8
1512177369,-0.0322,-0.0358,-0.1146,45.53,-43.64,981.63,-77,-419,-8
1512177369,-0.0405,-0.0221,-0.0589,-48.03,6.84,985.72,-77,-419,-8
1512177369,-0.0426,-0.0172,-0.0529,23.13,-25.45,1042.60,-77,-419,-8
1512177369,-0.0485,-0.0020,-0.0743,-31.07,-55.85,1013.61,-66,-426,-38
1512177369,-0.0387,-0.0369,-0.0602,83.86,-5.92,1123.29,-66,-426,-38
1512177369,-0.0188,0.0225,-0.0507,32.17,-44.07,1002.44,-66,-426,-38
1512177369,-0.0451,-0.0141,-0.0482,23.50,-0.61,1033.33,-66,-426,-38
1512177369,-0.0216,0.0071,-0.0374,49.38,-14.71,981.57,-84,-437,-49
1512177369,-0.0302,0.0003,-0.0296,-17.88,20.75,1118.90,-84,-437,-49
1512177369,-0.0350,0.0136,-0.0300,35.77,-52.25,986.21,-84,-437,-49
1512177369,-0.0494,-0.0068,-0.0174,-22.16,-35.58,950.20,-84,-437,-49
1512177369,-0.0304,-0.0079,-0.0121,-16.05,88.75,1010.44,-84,-437,-49
1512177369,-0.0047,-0.0061,-0.0182,42.30,35.95,1141.60,-79,-435,-44
1512177369,-0.0067,0.0268,0.0418,141.78,-117.37,945.98,-79,-435,-44
1512177369,-0.0282,0.0332,-0.0196,19.47,56.52,984.62,-79,-435,-44
1512177369,-0.0370,0.0049,0.0285,24.84,-121.09,983.22,-79,-435,-44
1512177369,-0.0226,0.0214,0.0312,59.33,-35.58,1035.10,-79,-435,-44
1512177369,-0.0469,-0.0253,0.0402,24.23,-52.00,923.65,-70,-440,-45
1512177369,-0.0304,-0.0349,0.0491,-69.46,-74.10,973.82,-70,-440,-45
1512177369,-0.0262,-0.0304,0.0621,60.79,-23.50,997.56,-70,-440,-45
1512177369,-0.0188,-0.0153,0.0702,-31.74,-5.13,1108.46,-70,-440,-45
1512177369,-0.0033,0.0165,0.0633,36.32,-4.15,1201.48,-75,-424,-47
1512177369,-0.0089,0.0507,0.0635,73.36,-52.37,1122.50,-75,-424,-47
1512177369,-0.0172,0.0373,0.0679,11.90,-41.69,970.28,-75,-424,-47
1512177369,-0.0240,-0.0395,0.0800,39.37,-47.55,1076.60,-75,-424,-47
1512177369,0.0116,0.0411,0.0932,-1.83,-15.26,1020.39,-75,-424,-47
1512177369,-0.0024,0.0107,0.0955,1.65,-27.34,1046.75,-80,-423,-55
1512177369,0.0073,0.0415,0.1011,98.45,0.79,890.38,-80,-423,-55
1512177369,-0.0067,0.0322,0.0991,128.97,-58.29,949.65,-80,-423,-55
1512177369,-0.0080,0.0270,0.1093,129.46,-33.08,942.69,-80,-423,-55
1512177369,0.0140,0.0264,0.1139,-16.85,19.35,1049.01,-80,-423,-55
1512177369,0.0024,-0.0035,0.1201,6.10,-22.16,1147.34,-63,-430,-62
1512177369,-0.0035,0.0180,0.1206,20.26,13.06,1036.50,-63,-430,-62
1512177370,-0.0256,0.0425,0.1169,51.45,-37.17,1081.12,-63,-430,-62
1512177370,-0.0326,0.0385,0.1288,5.68,-12.08,929.75,-63,-430,-62
1512177370,-0.0543,0.0017,0.1298,97.23,-135.01,1139.10,-80,-409,-52
1512177370,-0.0300,0.0421,0.1250,56.76,-12.63,987.92,-80,-409,-52
1512177370,-0.0362,0.0445,0.1125,159.85,-30.40,1026.61,-80,-409,-52
1512177370,-0.0274,0.0521,0.1154,154.05,-36.74,1018.80,-80,-409,-52
1512177370,0.0220,0.0559,0.1298,23.80,-12.27,888.55,-80,-409,-52
1512177370,-0.0246,0.0170,0.1442,42.66,-38.33,1048.03,-59,-401,-55
1512177370,-0.0185,-0.0182,0.1583,34.12,-2.26,970.89,-59,-401,-55
1512177370,-0.0349,-0.0373,0.1550,5.98,-29.48,969.36,-59,-401,-55
1512177370,-0.0140,-0.0314,0.1626,22.22,75.56,1130.74,-59,-401,-55
1512177370,-0.0273,-0.0120,0.1742,127.01,-105.16,1127.62,-59,-401,-55
1512177370,-0.0113,0.0033,0.1465,101.26,-23.93,896.61,-57,-410,-50
1512177370,-0.0169,-0.0017,0.1623,95.70,6.16,985.66,-57,-410,-50
1512177370,-0.0121,-0.0011,0.1618,105.83,-80.20,1033.51,-57,-410,-50
1512177370,-0.0015,0.0005,0.1607,78.86,51.27,961.85,-57,-410,-50
1512177370,-0.0397,0.0067,0.1959,74.10,-12.63,999.21,-52,-423,-55
1512177370,-0.0511,-0.0051,0.2234,110.66,-73.55,1028.56,-52,-423,-55
1512177370,-0.0130,0.0399,0.1562,80.63,-3.97,986.51,-52,-423,-55
1512177370,-0.0217,0.0346,0.1862,-5.55,-71.11,1069.95,-52,-423,-55
1512177370,0.0055,0.0285,0.1808,-3.72,-27.22,1033.75,-52,-423,-55
1512177370,-0.0012,-0.0007,0.1867,-7.26,-11.17,1060.97,-43,-428,-60
1512177370,0.0076,-0.0051,0.1955,42.30,-42.72,1075.56,-43,-428,-60
1512177370,0.0334,0.0206,0.1939,67.44,-1.53,1030.52,-43,-428,-60
1512177370,0.0302,0.0394,0.1957,17.52,5.37,1051.70,-43,-428,-60
1512177370,0.0296,0.0264,0.1951,52.31,-77.21,1061.10,-40,-421,-67
1512177370,0.0314,0.0185,0.1973,15.32,23.32,1002.69,-40,-421,-67
1512177370,0.0193,0.0117,0.1913,11.72,-71.59,1000.79,-40,-421,-67
1512177370,0.0406,0.0253,0.1836,2.62,2.38,1111.02,-40,-421,-67
1512177370,0.0237,0.0262,0.1904,15.87,17.15,1028.56,-40,-421,-67
1512177370,0.0184,0.0149,0.1921,55.42,-42.42,953.19,-24,-419,-45
1512177370,0.0087,0.0124,0.1945,84.35,-38.64,966.25,-24,-419,-45
1512177370,0.0117,0.0040,0.1983,39.00,-11.54,978.52,-24,-419,-45
1512177370,0.0036,-0.0160,0.1975,59.75,-57.62,1050.90,-24,-419,-45
1512177370,0.0091,-0.0229,0.2017,47.97,-7.32,969.67,-24,-419,-45
1512177370,0.0017,-0.0249,0.2057,39.06,10.01,932.01,-24,-401,-38
1512177370,-0.0024,-0.0016,0.2001,82.58,-72.81,1022.83,-24,-401,-38
1512177370,-0.0008,-0.0016,0.1961,112.55,-34.67,935.24,-24,-401,-38
1512177371,-0.0039,-0.0162,0.1969,75.81,-63.29,935.24,-24,-401,-38
1512177371,0.0154,-0.0097,0.2003,46.75,-21.67,948.06,-29,-396,-50
1512177371,0.0170,-0.0111,0.2019,37.29,-0.98,949.58,-29,-396,-50
1512177371,0.0125,-0.0134,0.2072,73.97,-28.63,959.72,-29,-396,-50
1512177371,0.0160,-0.0061,0.2088,73.18,-25.51,954.77,-29,-396,-50
1512177371,0.0296,0.0052,0.2120,111.21,-7.20,1018.19,-29,-396,-50
1512177371,0.0225,0.0133,0.2128,71.66,9.70,1032.90,-5,-410,-60
1512177371,0.0025,0.0071,0.2161,71.35,18.98,1029.72,-5,-410,-60
1512177371,-0.0161,-0.0256,0.2210,30.70,-37.84,1007.69,-5,-410,-60
1512177371,-0.0029,-0.0081,0.2144,69.09,7.14,980.16,-5,-410,-60
1512177371,-0.0096,0.0200,0.2228,23.74,20.20,1025.82,-5,-410,-60
1512177371,-0.0049,0.0045,0.2210,138.73,-22.22,1006.16,-24,-416,-42
1512177371,-0.0153,0.0005,0.2224,61.46,5.68,1054.81,-24,-416,-42
1512177371,-0.0130,-0.0059,0.2298,65.55,0.98,1092.04,-24,-416,-42
1512177371,-0.0153,-0.0019,0.2306,141.30,22.22,1065.49,-24,-416,-42
1512177371,-0.0409,-0.0025,0.2318,155.82,3.78,1016.24,-8,-400,-50
1512177371,-0.0313,0.0294,0.2381,132.63,-33.51,994.51,-8,-400,-50
1512177371,-0.0487,0.0328,0.2787,73.06,29.60,892.33,-8,-400,-50
1512177371,-0.0816,-0.0346,0.2891,92.90,-30.58,969.54,-8,-400,-50
1512177371,-0.0027,-0.0047,0.2980,76.35,-27.22,866.88,-8,-400,-50
1512177371,0.0007,-0.0386,0.2735,49.50,-13.18,933.17,0,-416,-82
1512177371,0.0061,-0.0585,0.2731,39.49,-15.75,959.96,0,-416,-82
1512177371,0.0185,-0.0188,0.2686,106.75,25.57,985.41,0,-416,-82
1512177371,0.0157,-0.0177,0.2792,81.36,-9.83,1111.51,0,-416,-82
1512177371,0.0024,-0.0292,0.2859,100.04,-12.02,1044.07,0,-416,-82
1512177371,-0.0117,-0.0270,0.2788,104.86,-7.51,990.91,12,-410,-74
1512177371,-0.0260,-0.0360,0.2870,101.50,-1.53,1022.95,12,-410,-74
1512177371,-0.0505,-0.0638,0.2858,121.58,-33.45,989.87,12,-410,-74
1512177371,-0.0447,-0.0530,0.2920,133.24,3.91,955.63,12,-410,-74
1512177371,-0.0256,-0.0346,0.2995,140.87,-17.64,1000.79,19,-421,-84
1512177371,0.0016,-0.0148,0.3055,99.79,4.15,995.61,19,-421,-84
1512177371,-0.0326,-0.0336,0.3096,81.67,15.32,1007.20,19,-421,-84
1512177371,-0.0140,-0.0218,0.3164,152.83,-11.17,1081.97,19,-421,-84
1512177371,-0.0483,-0.0209,0.3136,152.65,6.23,962.28,19,-421,-84
1512177371,-0.0174,-0.0261,0.3165,160.64,-20.14,1004.46,7,-412,-82
1512177371,-0.0089,0.0313,0.3278,191.71,77.09,1044.13,7,-412,-82
1512177371,-0.0141,0.0281,0.3280,148.86,3.48,1032.35,7,-412,-82
1512177371,-0.0043,-0.0008,0.3258,150.82,77.70,1014.28,7,-412,-82
1512177372,0.0033,0.0087,0.3380,52.73,24.29,1149.05,29,-417,-81
1512177372,0.0044,0.0096,0.3445,119.75,-16.36,1039.12,29,-417,-81
1512177372,-0.0192,0.0029,0.3485,156.43,37.05,904.42,29,-417,-81
1512177372,-0.0198,-0.0032,0.3586,166.26,19.96,872.38,29,-417,-81
1512177372,-0.0077,0.0009,0.3575,217.29,77.51,984.50,29,-417,-81
1512177372,0.0174,0.0047,0.3563,267.82,8.54,1145.69,38,-409,-69
1512177372,0.0142,0.0253,0.3514,300.66,34.55,934.69,38,-409,-69
1512177372,-0.0565,0.0190,0.3771,134.70,16.11,892.40,38,-409,-69
1512177372,-0.0200,0.0065,0.3912,92.35,-8.85,967.83,38,-409,-69
1512177372,0.0903,0.0161,0.4633,118.77,99.61,871.28,54,-403,-88
1512177372,-0.0132,0.0260,0.3892,133.54,18.74,956.12,54,-403,-88
1512177372,-0.0112,0.0119,0.3939,109.44,51.57,1022.22,54,-403,-88
1512177372,-0.0165,0.0077,0.4036,134.64,-38.09,1056.40,54,-403,-88
1512177372,-0.0389,-0.0060,0.4068,147.40,79.04,911.68,54,-403,-88
1512177372,-0.0463,0.0320,0.4246,98.57,64.88,874.94,36,-414,-94
1512177372,-0.0137,0.0253,0.4340,168.46,26.37,1151.73,36,-414,-94
1512177372,-0.0276,0.0101,0.4272,191.83,85.63,955.26,36,-414,-94
1512177372,-0.0373,-0.0121,0.4424,171.02,-45.53,963.93,36,-414,-94
1512177372,0.0037,0.0240,0.4389,207.70,53.22,1006.10,36,-414,-94
1512177372,-0.0045,0.0282,0.4490,190.55,60.79,951.97,47,-393,-88
1512177372,-0.0084,0.0376,0.4420,134.40,-17.27,961.73,47,-393,-88
1512177372,-0.0162,0.0329,0.4353,135.93,1.95,914.73,47,-393,-88
1512177372,-0.0027,0.0296,0.4368,119.75,18.13,1012.15,47,-393,-88
1512177372,0.0109,0.0345,0.4486,4.64,27.16,1095.40,47,-393,-88
1512177372,0.0115,0.0482,0.4443,99.00,7.02,1017.15,59,-391,-93
1512177372,-0.0193,0.0407,0.4381,151.61,34.67,946.66,59,-391,-93
1512177372,-0.0142,0.0676,0.4348,130.43,-19.41,964.72,59,-391,-93
1512177372,-0.0116,0.0583,0.4305,132.20,-0.24,938.72,59,-391,-93
1512177372,-0.0148,0.0438,0.4285,206.85,-23.56,905.27,75,-379,-91
1512177372,-0.0157,0.0403,0.4300,161.80,-32.53,868.71,75,-379,-91
1512177372,-0.0165,0.0663,0.4278,99.79,13.79,1092.77,75,-379,-91
1512177372,0.0158,0.0447,0.4258,106.87,-29.66,1019.65,75,-379,-91
1512177372,0.0040,0.0691,0.4270,26.92,-5.19,981.93,75,-379,-91
1512177372,-0.0025,0.0708,0.4266,37.96,-27.22,1013.73,82,-364,-91
1512177372,-0.0049,0.0569,0.4277,50.17,-4.33,1052.49,82,-364,-91
1512177372,-0.0032,0.0503,0.4245,51.27,7.02,1010.31,82,-364,-91
1512177372,-0.0045,0.0533,0.4288,66.96,-1.65,1000.06,82,-364,-91
1512177372,-0.0023,0.0621,0.4256,39.98,38.39,962.71,82,-364,-91
1512177373,-0.0120,0.0418,0.4297,64.39,-30.27,987.30,89,-368,-94
1512177373,-0.0075,0.0330,0.4305,112.43,-0.67,981.93,89,-368,-94
1512177373,-0.0088,0.0091,0.4312,117.07,8.79,1009.58,89,-368,-94
1512177373,-0.0087,0.0079,0.4322,61.10,-14.65,899.90,89,-368,-94
1512177373,-0.0226,0.0521,0.4313,31.19,-36.93,851.81,89,-350,-88
1512177373,-0.0073,0.0164,0.4206,-4.52,-15.69,1074.22,89,-350,-88
1512177373,-0.0040,0.0112,0.4284,23.99,-41.02,1049.68,89,-350,-88
1512177373,-0.0121,0.0249,0.4266,64.58,-16.78,926.39,89,-350,-88
1512177373,-0.0035,0.0210,0.4206,82.28,-19.65,950.74,89,-350,-88
1512177373,-0.0011,0.0294,0.4172,31.74,-45.53,1018.80,101,-342,-72
1512177373,0.0165,0.0293,0.4128,52.06,2.38,1067.87,101,-342,-72
1512177373,0.0091,0.0366,0.4113,68.05,-48.58,1009.95,101,-342,-72
1512177373,0.0075,0.0305,0.4173,32.71,-25.45,966.92,101,-342,-72
1512177373,0.0039,0.0260,0.4237,41.99,-33.51,963.87,94,-327,-76
1512177373,0.0190,0.0236,0.4281,67.81,-14.04,1080.99,94,-327,-76
1512177373,0.0368,0.0357,0.4241,54.99,-28.81,1027.89,94,-327,-76
1512177373,0.0184,0.0245,0.4268,44.74,-10.62,1003.30,94,-327,-76
1512177373,0.0313,0.0368,0.4210,21.30,-58.78,1115.36,94,-327,-76
1512177373,0.0284,0.0437,0.4224,26.43,14.40,1000.55,103,-319,-67
1512177373,0.0007,0.0340,0.4232,133.30,-23.01,962.10,103,-319,-67
1512177373,0.0146,0.0361,0.4159,60.97,-33.26,933.23,103,-319,-67
1512177373,0.0217,0.0553,0.4175,32.65,-18.62,991.27,103,-319,-67
1512177373,0.0186,0.0421,0.4165,39.00,-22.46,1027.53,103,-319,-67
1512177373,0.0176,0.0340,0.4160,12.57,-11.90,999.57,115,-306,-69
1512177373,0.0051,0.0101,0.4168,45.41,32.47,1065.98,115,-306,-69
1512177373,-0.0027,-0.0194,0.4210,-51.88,38.27,1097.41,115,-306,-69
1512177373,-0.0128,-0.0168,0.4047,-59.14,20.45,1078.25,115,-306,-69
1512177373,-0.0272,-0.0483,0.4072,-43.46,56.09,1047.18,117,-290,-74
1512177373,-0.0513,-0.0920,0.4426,7.69,19.78,1071.78,117,-290,-74
1512177373,-0.0826,-0.1212,0.4151,-139.83,22.89,1032.96,117,-290,-74
1512177373,-0.0796,-0.1366,0.4024,-69.27,25.57,1034.97,117,-290,-74
1512177373,-0.0767,-0.1221,0.4019,-64.27,-42.85,1007.39,117,-290,-74
1512177373,-0.1013,-0.1559,0.3874,34.67,-4.33,971.37,126,-285,-69
1512177373,-0.1256,-0.1710,0.3839,30.27,-12.02,937.93,126,-285,-69
1512177373,-0.0854,-0.1486,0.3780,-18.25,-15.20,936.28,126,-285,-69
1512177373,-0.0276,-0.0699,0.3716,21.42,-29.11,986.45,126,-285,-69
1512177373,-0.0418,-0.0831,0.3730,118.29,-45.04,883.42,126,-285,-69
1512177374,-0.0376,-0.0557,0.3621,84.78,-38.88,949.77,117,-283,-54
1512177374,-0.0021,-0.0618,0.4023,101.38,-22.95,983.58,117,-283,-54
1512177374,-0.0017,-0.0225,0.3807,67.93,-42.42,1018.01,117,-283,-54
1512177374,0.0220,-0.0501,0.3715,111.63,-65.31,945.86,117,-283,-54
1512177374,0.0013,-0.0543,0.3622,91.19,-44.01,935.73,126,-296,-76
1512177374,0.0156,-0.0514,0.3727,58.29,-37.84,975.77,126,-296,-76
1512177374,0.0186,-0.0348,0.3798,5.68,-50.84,1040.53,126,-296,-76
1512177374,-0.0092,-0.0429,0.3746,35.40,-75.32,925.29,126,-296,-76
1512177374,0.0060,-0.0419,0.3678,29.24,-69.70,996.28,126,-296,-76
1512177374,0.0088,-0.0297,0.3643,76.11,-50.60,1010.99,133,-267,-42
1512177374,0.0051,0.0170,0.3531,32.17,-21.61,1120.00,133,-267,-42
1512177374,-0.0328,0.0575,0.3350,128.60,-45.41,1096.92,133,-267,-42
1512177374,-0.0310,0.0595,0.3237,50.42,-18.37,1077.76,133,-267,-42
1512177374,-0.0486,0.0575,0.3250,6.23,-0.06,1103.33,133,-267,-42
1512177374,-0.0517,0.1101,0.3202,84.35,14.53,1106.14,126,-267,-62
1512177374,-0.0545,0.1166,0.3217,47.36,2.20,1103.03,126,-267,-62
1512177374,-0.0859,0.1236,0.3217,92.22,15.69,916.44,126,-267,-62
1512177374,-0.0920,0.1337,0.3289,62.32,-28.99,977.48,126,-267,-62
1512177374,-0.0699,0.1225,0.3341,62.50,-48.22,1029.42,142,-248,-71
1512177374,-0.0586,0.1129,0.3384,29.24,-46.94,956.73,142,-248,-71
1512177374,-0.0883,0.1044,0.3412,52.86,-60.36,926.82,142,-248,-71
1512177374,-0.0911,0.0977,0.3458,-8.54,-110.11,983.15,142,-248,-71
1512177374,-0.0730,0.0855,0.3410,-31.74,-113.89,1022.77,142,-248,-71
1512177374,-0.1069,0.0754,0.3194,-37.60,-93.99,937.13,137,-236,-69
1512177374,-0.1470,-0.0124,0.3025,41.56,-128.85,938.48,137,-236,-69
1512177374,0.0280,0.0623,0.2892,-137.33,-104.80,1110.72,137,-236,-69
1512177374,-0.0390,0.0056,0.3128,-174.50,-97.05,1080.26,137,-236,-69
1512177374,-0.0631,-0.0172,0.3205,14.83,-99.61,1056.82,137,-215,-22
1512177374,-0.0615,-0.0104,0.3184,49.13,-117.80,945.19,137,-215,-22
1512177374,-0.0554,-0.0160,0.3096,33.81,-99.18,966.49,137,-215,-22
1512177374,-0.0459,-0.0229,0.3155,-19.17,-121.95,1006.77,137,-215,-22
1512177374,-0.0569,-0.0377,0.3273,44.86,-139.40,1116.82,137,-215,-22
1512177374,-0.0603,-0.0630,0.3293,31.62,-120.97,1058.29,144,-211,-38
1512177374,-0.0489,-0.0334,0.3397,-41.44,-114.38,987.49,144,-211,-38
1512177374,-0.0547,-0.0374,0.3610,28.63,-146.18,966.98,144,-211,-38
1512177374,-0.0390,-0.0313,0.3443,-27.40,-138.43,952.33,144,-211,-38
1512177374,-0.0353,-0.0438,0.3507,-19.84,-137.39,1013.00,144,-211,-38
1512177374,-0.0369,-0.0473,0.3509,-15.08,-132.32,1017.15,144,-204,-32
1512177375,-0.0274,-0.0276,0.3539,-87.22,-123.05,1075.68,144,-204,-32
1512177375,-0.0218,-0.0301,0.3610,-76.97,-161.19,1110.60,144,-204,-32
1512177375,-0.0127,-0.0409,0.3585,8.24,-119.75,1052.19,144,-204,-32
1512177375,-0.0103,-0.0417,0.3629,-18.80,-148.80,997.50,142,-202,-33
1512177375,-0.0081,-0.0575,0.3607,6.96,-130.55,1074.65,142,-202,-33
1512177375,0.0007,-0.0557,0.3653,-37.84,-149.17,983.15,142,-202,-33
1512177375,-0.0067,-0.0788,0.3606,37.72,-146.55,990.17,142,-202,-33
1512177375,-0.0093,-0.0883,0.3585,80.87,-194.15,943.66,142,-202,-33
1512177375,-0.0089,-0.1003,0.3611,85.75,-145.45,869.81,149,-199,-40
1512177375,0.0031,-0.0819,0.3599,71.59,-169.01,969.42,149,-199,-40
1512177375,0.0005,-0.0842,0.3672,65.61,-146.55,924.07,149,-199,-40
1512177375,-0.0013,-0.0711,0.3690,23.32,-156.19,961.24,149,-199,-40
1512177375,-0.0052,-0.1216,0.3826,63.90,-131.90,1018.49,149,-199,-40
1512177375,0.0116,-0.0820,0.3767,48.83,-104.06,1056.21,137,-183,-49
1512177375,0.0148,-0.0834,0.3787,56.21,-109.07,980.41,137,-183,-49
1512177375,0.0214,-0.0782,0.3718,27.22,-126.40,997.13,137,-183,-49
1512177375,0.0088,-0.1003,0.3751,59.75,-101.26,935.24,137,-183,-49
1512177375,0.0031,-0.0886,0.3688,54.69,-116.58,1058.59,137,-183,-42
1512177375,0.0193,-0.0565,0.3642,55.97,-117.25,1129.70,137,-183,-42
1512177375,0.0272,-0.0264,0.3589,59.94,-46.20,1123.72,137,-183,-42
1512177375,0.0185,-0.0013,0.3561,90.52,-85.33,1098.02,137,-183,-42
1512177375,0.0101,0.0411,0.3394,116.15,-119.81,1007.26,137,-183,-42
1512177375,0.0097,0.0640,0.3645,19.96,-83.01,1053.22,133,-165,-59
1512177375,0.0748,0.0505,0.3409,102.11,-79.77,1144.35,133,-165,-59
1512177375,0.0498,0.0750,0.3326,30.46,-79.77,941.59,133,-165,-59
1512177375,0.0670,0.0780,0.3325,16.30,-83.86,921.20,133,-165,-59
1512177375,0.0667,0.0800,0.3305,18.86,-108.28,870.06,137,-151,-42
1512177375,0.1057,0.0819,0.3434,17.27,-47.73,1003.48,137,-151,-42
1512177375,0.0730,0.0871,0.3530,-18.98,-97.11,1046.14,137,-151,-42
1512177375,0.0414,0.0719,0.3533,-13.92,-84.47,899.23,137,-151,-42
1512177375,0.0189,0.0530,0.3433,21.79,-93.51,933.53,137,-151,-42
1512177375,0.0338,0.0586,0.3268,-8.61,-71.59,1019.53,124,-142,-54
1512177375,0.0383,0.0764,0.3093,-51.21,-76.90,1034.24,124,-142,-54
1512177375,0.0213,0.0550,0.3160,-4.33,-96.74,961.67,124,-142,-54
1512177375,-0.0007,0.0312,0.3127,-16.91,-109.19,951.11,124,-142,-54
1512177375,0.0003,0.0245,0.3091,-30.64,-68.73,1033.14,124,-142,-54
1512177375,0.0068,0.0268,0.3119,-34.12,-64.88,986.88,119,-116,-49
1512177375,-0.0025,0.0144,0.3111,-15.38,-114.32,937.62,119,-116,-49
1512177376,-0.0063,0.0085,0.3133,-18.37,-77.88,1021.79,119,-116,-49
1512177376,0.0109,0.0248,0.3149,-25.57,-58.72,1074.22,119,-116,-49
1512177376,0.0060,0.0128,0.3104,-4.76,-87.65,1011.23,112,-130,-45
1512177376,-0.0095,-0.0011,0.3076,17.82,-73.12,955.38,112,-130,-45
1512177376,-0.0035,0.0029,0.2992,7.81,-111.82,1006.35,112,-130,-45
1512177376,0.0036,0.0127,0.2969,7.02,-91.55,983.09,112,-130,-45
1512177376,-0.0003,0.0117,0.2945,23.62,-99.06,1003.48,112,-130,-45
1512177376,0.0123,0.0201,0.2939,-10.56,-86.91,1032.47,117,-121,-67
1512177376,0.0056,0.0180,0.2925,-30.33,-97.66,991.70,117,-121,-67
1512177376,-0.0048,0.0075,0.2927,-12.15,-89.17,1008.67,117,-121,-67
1512177376,0.0020,0.0065,0.2932,-23.62,-59.81,1015.81,117,-121,-67
1512177376,0.0119,0.0252,0.2896,-30.58,-78.31,1030.33,117,-121,-67
1512177376,0.0047,0.0256,0.2836,-10.13,-107.30,1017.94,112,-123,-69
1512177376,0.0045,0.0221,0.2786,-34.48,-87.77,1029.17,112,-123,-69
1512177376,0.0092,0.0257,0.2754,-51.57,-95.83,1013.67,112,-123,-69
1512177376,-0.0009,0.0172,0.2718,-18.80,-104.92,979.98,112,-123,-69
1512177376,0.0049,0.0137,0.2724,-46.20,-97.66,1011.96,107,-104,-54
1512177376,0.0019,0.0123,0.2707,-16.66,-76.97,990.72,107,-104,-54
1512177376,0.0003,0.0117,0.2700,-15.81,-94.24,992.80,107,-104,-54
1512177376,0.0012,0.0136,0.2657,-15.93,-87.34,1015.56,107,-104,-54
1512177376,0.0025,0.0212,0.2590,-6.65,-91.37,966.13,107,-104,-54
1512177376,-0.0044,0.0080,0.2557,5.62,-96.01,967.77,96,-96,-50
1512177376,0.0023,0.0088,0.2551,-22.34,-82.52,1027.22,96,-96,-50
1512177376,0.0011,0.0115,0.2531,-45.47,-92.10,992.31,96,-96,-50
1512177376,0.0009,0.0096,0.2537,-35.28,-106.93,1012.39,96,-96,-50
1512177376,0.0041,0.0120,0.2522,-27.10,-90.88,1002.44,96,-96,-50
1512177376,0.0025,0.0133,0.2525,-4.58,-88.01,1002.38,94,-88,-55
1512177376,-0.0031,0.0047,0.2523,-13.18,-91.06,989.32,94,-88,-55
1512177376,0.0115,0.0169,0.2454,-52.67,-85.08,1039.79,94,-88,-55
1512177376,0.0045,0.0097,0.2431,-52.67,-85.82,1016.17,94,-88,-55
1512177376,-0.0025,0.0052,0.2407,-47.06,-124.69,1021.00,93,-86,-54
1512177376,0.0024,0.0071,0.2380,-27.40,-103.76,1018.86,93,-86,-54
1512177376,0.0045,0.0092,0.2374,-27.40,-96.01,1004.70,93,-86,-54
1512177376,-0.0012,0.0048,0.2345,-8.30,-121.95,993.96,93,-86,-54
1512177376,-0.0064,-0.0076,0.2353,-5.43,-110.41,993.77,93,-86,-54
1512177376,0.0069,0.0067,0.2365,-20.39,-92.77,1047.73,87,-63,-52
1512177376,-0.0001,0.0035,0.2384,-8.24,-125.37,954.47,87,-63,-52
1512177376,-0.0091,-0.0041,0.2358,-11.78,-143.19,921.14,87,-63,-52
1512177377,-0.0116,-0.0024,0.2382,-31.86,-154.30,1029.05,87,-63,-52
1512177377,-0.0004,-0.0013,0.2368,-26.31,-123.78,1048.95,82,-68,-47
1512177377,0.0009,0.0057,0.2350,-22.83,-135.13,1060.79,82,-68,-47
1512177377,-0.0004,0.0087,0.2376,-26.06,-154.36,1015.50,82,-68,-47
1512177377,-0.0048,0.0005,0.2370,-4.88,-163.82,1020.63,82,-68,-47
1512177377,-0.0117,-0.0100,0.2382,26.86,-160.77,954.59,82,-68,-47
1512177377,-0.0039,-0.0021,0.2407,-2.93,-178.16,994.69,77,-70,-42
1512177377,-0.0092,-0.0028,0.2465,-4.82,-200.56,988.53,77,-70,-42
1512177377,-0.0109,-0.0138,0.2384,25.39,-217.83,968.87,77,-70,-42
1512177377,-0.0091,-0.0017,0.2521,11.17,-202.82,1010.31,77,-70,-42
1512177377,-0.0120,-0.0051,0.2553,52.31,-220.09,974.79,77,-70,-42
1512177377,-0.0136,-0.0048,0.2602,25.88,-212.83,999.27,82,-68,-54
1512177377,-0.0085,0.0009,0.2654,40.65,-244.38,990.84,82,-68,-54
1512177377,-0.0095,0.0048,0.2695,28.32,-232.67,1028.14,82,-68,-54
1512177377,-0.0148,-0.0033,0.2774,27.65,-227.36,1002.69,82,-68,-54
1512177377,-0.0103,0.0009,0.2868,28.75,-226.20,985.96,72,-65,-60
1512177377,-0.0083,-0.0016,0.2911,54.99,-239.99,923.16,72,-65,-60
1512177377,-0.0052,0.0124,0.2932,54.57,-240.72,1034.55,72,-65,-60
1512177377,-0.0015,0.0168,0.2972,38.02,-247.80,1073.18,72,-65,-60
1512177377,-0.0125,0.0108,0.2993,82.64,-247.19,994.87,72,-65,-60
1512177377,-0.0089,0.0225,0.3061,87.34,-222.53,1029.11,73,-56,-69
1512177377,-0.0104,0.0288,0.3140,17.88,-253.72,1036.19,73,-56,-69
1512177377,-0.0077,0.0289,0.3230,14.47,-227.11,971.62,73,-56,-69
1512177377,-0.0113,0.0180,0.3300,37.90,-234.99,993.59,73,-56,-69
1512177377,-0.0021,0.0278,0.3352,13.37,-259.52,1021.79,73,-56,-69
1512177377,0.0072,0.0226,0.3443,-22.34,-225.65,1034.97,72,-61,-64
1512177377,0.0039,0.0224,0.3451,1.22,-246.34,1041.63,72,-61,-64
1512177377,0.0073,0.0208,0.3485,23.01,-235.72,1048.65,72,-61,-64
1512177377,0.0057,0.0229,0.3489,15.32,-239.07,991.27,72,-61,-64
1512177377,0.0020,0.0164,0.3513,35.34,-235.90,1003.36,68,-47,-50
1512177377,0.0060,0.0280,0.3547,-7.81,-269.35,1065.92,68,-47,-50
1512177377,-0.0059,0.0234,0.3551,35.10,-235.11,1003.91,68,-47,-50
1512177377,-0.0117,0.0245,0.3574,33.94,-254.27,1036.25,68,-47,-50
1512177377,-0.0116,0.0330,0.3651,10.31,-203.12,1001.34,68,-47,-50
1512177377,-0.0134,0.0260,0.3657,45.41,-252.26,1022.52,45,-52,-52
1512177377,-0.0125,0.0204,0.3700,38.76,-225.89,995.91,45,-52,-52
1512177377,-0.0100,0.0132,0.3807,65.49,-231.26,1000.06,45,-52,-52
1512177378,0.0124,0.0258,0.3835,39.00,-256.96,1058.53,45,-52,-52
1512177378,0.0029,0.0188,0.3816,69.15,-237.30,981.45,45,-52,-52
1512177378,-0.0003,0.0213,0.3824,43.46,-234.07,964.72,40,-29,-67
1512177378,-0.0009,0.0218,0.3792,69.58,-246.95,936.34,40,-29,-67
1512177378,0.0040,0.0240,0.3788,37.84,-223.08,938.54,40,-29,-67
1512177378,0.0027,0.0250,0.3743,42.72,-240.97,963.62,40,-29,-67
1512177378,0.0009,0.0242,0.3719,19.29,-238.89,985.96,38,-14,-72
1512177378,0.0162,0.0229,0.3712,24.48,-235.23,1063.35,38,-14,-72
1512177378,0.0037,0.0213,0.3755,17.52,-195.68,993.16,38,-14,-72
1512177378,0.0104,0.0210,0.3732,-16.30,-206.97,1055.60,38,-14,-72
1512177378,0.0112,0.0212,0.3683,-7.63,-248.23,1054.57,38,-14,-72
1512177378,0.0075,0.0158,0.3666,0.12,-218.26,1070.74,43,-26,-60
1512177378,0.0045,0.0125,0.3623,-8.18,-241.15,1069.40,43,-26,-60
1512177378,-0.0013,0.0037,0.3603,27.34,-247.01,980.35,43,-26,-60
1512177378,0.0060,0.0089,0.3595,3.23,-225.59,1013.67,43,-26,-60
1512177378,0.0109,0.0108,0.3589,2.26,-205.75,1022.58,26,-22,-54
1512177378,0.0092,0.0202,0.3575,20.14,-238.59,1020.51,26,-22,-54
1512177378,0.0127,0.0224,0.3490,55.30,-233.46,1004.76,26,-22,-54
1512177378,0.0103,0.0302,0.3475,-77.70,-214.72,971.25,26,-22,-54
1512177378,0.0020,0.0178,0.3439,-44.62,-213.87,986.51,26,-22,-54
1512177378,0.0130,0.0285,0.3381,-52.19,-181.70,1048.40,17,-3,-69
1512177378,0.0051,0.0229,0.3333,-20.02,-227.11,999.76,17,-3,-69
1512177378,-0.0008,0.0225,0.3292,-7.39,-213.50,1015.99,17,-3,-69
1512177378,-0.0063,0.0168,0.3285,-8.85,-191.71,1029.17,17,-3,-69
1512177378,-0.0104,0.0168,0.3205,12.02,-232.24,1019.47,8,-15,-60
1512177378,-0.0052,0.0130,0.3184,7.26,-235.66,977.60,8,-15,-60
1512177378,-0.0043,0.0156,0.3133,-14.22,-220.89,972.47,8,-15,-60
1512177378,-0.0095,0.0096,0.3120,-23.44,-262.21,997.74,8,-15,-60
1512177378,-0.0055,0.0064,0.3059,-27.77,-219.18,1000.00,8,-15,-60
1512177378,-0.0129,0.0084,0.2980,-56.64,-216.00,995.00,0,0,-72
1512177378,-0.0166,-0.0140,0.2883,41.02,-250.18,952.82,0,0,-72
1512177378,-0.0085,-0.0168,0.2867,-20.02,-256.59,989.62,0,0,-72
1512177378,-0.0025,-0.0124,0.2870,-52.12,-239.26,1043.33,0,0,-72
1512177378,0.0019,-0.0083,0.2828,-19.04,-238.89,975.65,0,0,-72
1512177378,-0.0063,-0.0341,0.2748,-13.24,-260.86,932.92,-14,-3,-49
1512177378,0.0169,-0.0028,0.2642,4.58,-287.48,997.68,-14,-3,-49
1512177378,0.0148,-0.0241,0.2587,36.25,-247.19,945.37,-14,-3,-49
1512177378,0.0146,-0.0200,0.2470,-29.30,-231.45,1029.11,-14,-3,-49
1512177379,0.0260,-0.0040,0.2400,0.12,-245.54,1132.81,-14,-7,-69
1512177379,0.0005,-0.0027,0.2313,39.31,-262.15,1012.94,-14,-7,-69
1512177379,0.0121,0.0240,0.2250,-30.40,-245.54,1110.35,-14,-7,-69
1512177379,0.0170,0.0434,0.2075,-68.18,-260.56,1094.97,-14,-7,-69
1512177379,0.0037,0.0413,0.2128,-73.73,-278.63,1060.30,-14,-7,-69
1512177379,0.0097,0.0386,0.1997,-64.64,-258.97,1018.80,-28,10,-59
1512177379,0.0084,0.0305,0.1862,-43.76,-212.89,963.20,-28,10,-59
1512177379,0.0158,0.0529,0.1627,-103.76,-268.68,1040.95,-28,10,-59
1512177379,0.0115,0.0478,0.1461,-91.98,-269.53,994.87,-28,10,-59
1512177379,0.0077,0.0537,0.1525,-94.30,-240.30,960.88,-28,10,-59
1512177379,-0.0043,0.0189,0.1633,-70.74,-261.35,1018.25,-17,7,-45
1512177379,0.0148,0.0225,0.1349,-237.67,-251.16,1000.00,-17,7,-45
1512177379,-0.0044,0.0341,0.1346,-82.70,-227.97,1016.54,-17,7,-45
1512177379,0.0053,0.0336,0.1261,-130.13,-238.34,979.92,-17,7,-45
1512177379,0.0040,0.0284,0.1182,-97.96,-250.49,997.07,-47,22,-27
1512177379,0.0079,0.0083,0.1168,-75.20,-266.91,961.67,-47,22,-27
1512177379,0.0117,0.0040,0.1140,-87.89,-240.17,989.81,-47,22,-27
1512177379,0.0161,0.0064,0.1032,-121.15,-225.77,1003.60,-47,22,-27
1512177379,0.0013,-0.0020,0.1009,-114.26,-255.25,1001.65,-47,22,-27
1512177379,-0.0069,-0.0101,0.0915,-99.91,-247.07,974.73,-40,15,-44
1512177379,-0.0055,-0.0161,0.0838,-101.62,-240.66,978.33,-40,15,-44
1512177379,-0.0016,-0.0028,0.0788,-19.78,-212.04,904.05,-40,15,-44
1512177379,-0.0040,0.0021,0.0687,-99.12,-216.92,952.33,-40,15,-44
1512177379,-0.0085,0.0093,0.0643,-59.27,-248.23,985.84,-40,15,-44
1512177379,-0.0027,0.0104,0.0587,-38.51,-239.56,992.98,-50,15,-44
1512177379,0.0132,-0.0009,0.0571,-113.46,-259.77,1051.70,-50,15,-44
1512177379,0.0245,0.0009,0.0519,-44.31,-276.67,1016.24,-50,15,-44
1512177379,0.0272,-0.0055,0.0534,-63.35,-234.62,1006.10,-50,15,-44
1512177379,0.0277,-0.0031,0.0511,-37.29,-247.13,1022.95,-40,1,-27
1512177379,0.0232,-0.0057,0.0415,-48.95,-226.50,993.59,-40,1,-27
1512177379,0.0254,0.0016,0.0357,-63.48,-197.14,1017.58,-40,1,-27
1512177379,0.0056,-0.0152,0.0296,-68.36,-252.44,1067.75,-40,1,-27
1512177379,0.0134,-0.0148,0.0221,-100.52,-247.74,1042.85,-40,1,-27
1512177379,0.0216,-0.0049,0.0278,-101.01,-190.86,1023.62,-45,28,-38
1512177379,0.0360,-0.0036,0.0174,-103.70,-192.32,1043.58,-45,28,-38
1512177379,0.0313,-0.0044,0.0225,-91.55,-191.41,950.62,-45,28,-38
1512177379,0.0264,0.0004,0.0154,-68.91,-191.10,984.80,-45,28,-38
1512177379,0.0318,-0.0045,0.0093,-78.61,-209.90,1024.48,-56,14,-45
1512177380,0.0234,-0.0111,0.0116,-96.68,-182.13,1037.23,-56,14,-45
1512177380,0.0326,0.0071,0.0069,-99.98,-190.31,969.85,-56,14,-45
1512177380,0.0269,0.0181,-0.0004,-61.83,-222.47,1017.46,-56,14,-45
1512177380,0.0210,0.0201,0.0023,-56.52,-212.46,950.56,-56,14,-45
1512177380,0.0161,0.0081,-0.0031,-89.72,-195.37,1039.43,-45,24,-32
1512177380,0.0079,0.0129,-0.0051,-99.79,-220.83,1059.20,-45,24,-32
1512177380,0.0127,0.0357,-0.0104,-101.44,-194.46,936.95,-45,24,-32
1512177380,-0.0005,0.0301,-0.0276,-160.77,-216.86,950.01,-45,24,-32
1512177380,-0.0069,0.0061,-0.0233,-186.40,-234.07,1055.11,-45,24,-32
1512177380,-0.0051,0.0093,-0.0385,-130.43,-223.21,1004.82,-54,5,-37
1512177380,-0.0011,0.0100,-0.0353,-163.88,-220.34,1033.26,-54,5,-37
1512177380,-0.0146,-0.0032,-0.0405,-146.24,-201.35,1011.41,-54,5,-37
1512177380,-0.0196,-0.0011,-0.0348,-136.11,-263.79,968.75,-54,5,-37
1512177380,-0.0092,-0.0100,-0.0438,-52.06,-177.31,1013.24,-56,17,-25
1512177380,-0.0237,-0.0117,-0.0479,-139.04,-253.78,1009.64,-56,17,-25
1512177380,-0.0206,-0.0029,-0.0606,-101.56,-192.57,1074.89,-56,17,-25
1512177380,-0.0065,-0.0104,-0.0522,-189.21,-203.00,1047.67,-56,17,-25
1512177380,0.0009,-0.0129,-0.0599,-152.83,-191.47,992.37,-56,17,-25
1512177380,-0.0077,-0.0136,-0.0595,-185.79,-241.58,962.71,-52,24,-38
1512177380,-0.0088,-0.0261,-0.0602,-69.76,-243.84,907.35,-52,24,-38
1512177380,-0.0190,-0.0178,-0.0574,-35.64,-220.46,984.80,-52,24,-38
1512177380,-0.0241,-0.0232,-0.0626,-83.44,-208.13,995.73,-52,24,-38
1512177380,-0.0037,-0.0314,-0.0615,-132.51,-185.42,1081.12,-52,24,-38
1512177380,-0.0036,-0.0310,-0.0559,-60.91,-203.67,1061.28,-45,21,-32
1512177380,-0.0004,-0.0134,-0.0650,-111.69,-189.09,1016.30,-45,21,-32
1512177380,-0.0040,-0.0196,-0.0650,-92.29,-194.70,966.80,-45,21,-32
1512177380,0.0245,-0.0127,-0.0499,-123.66,-99.24,973.33,-45,21,-32
1512177380,0.0292,-0.0015,-0.0567,-134.64,-60.24,915.53,-45,21,-25
1512177380,-0.2450,-0.1292,-0.0563,-38.02,-29.17,1122.86,-45,21,-25
1512177380,-0.0734,-0.0663,-0.0523,-123.23,-126.71,984.01,-45,21,-25
1512177380,0.0011,-0.0242,-0.0522,-133.79,-116.27,1059.57,-45,21,-25
1512177380,0.0398,0.0111,-0.0767,-166.32,-121.22,1007.93,-45,21,-25
1512177380,0.0614,0.0445,-0.0945,-117.43,-133.54,1000.67,-50,15,-67
1512177380,0.0766,0.0341,-0.1069,-62.07,-164.55,1010.25,-50,15,-67
1512177380,0.1133,0.0213,-0.0874,-66.53,-117.07,1023.25,-50,15,-67
1512177380,0.0389,-0.0012,-0.0746,-122.62,-130.31,1029.30,-50,15,-67
1512177380,0.0537,-0.0032,-0.0787,-172.79,-69.34,968.02,-50,15,-67
1512177381,0.0269,-0.0092,-0.0827,-91.80,-96.25,1012.70,-45,28,-15
1512177381,0.0160,-0.0056,-0.0879,-183.78,-124.39,931.21,-45,28,-15
1512177381,0.0453,-0.0221,-0.0824,-203.19,2.81,1038.76,-45,28,-15
1512177381,0.0328,-0.0146,-0.0889,-240.11,-35.03,1050.60,-45,28,-15
1512177381,0.0441,-0.0001,-0.1000,-191.47,-35.10,924.80,-40,29,-20
1512177381,0.0015,-0.0169,-0.0927,-187.62,-148.13,1028.69,-40,29,-20
1512177381,0.0162,-0.0124,-0.0864,-230.59,-76.84,1011.11,-40,29,-20
1512177381,0.0133,-0.0096,-0.0795,-183.11,-43.82,1028.02,-40,29,-20
1512177381,0.0024,-0.0009,-0.0748,-133.18,-71.29,960.94,-40,29,-20
1512177381,-0.0477,-0.0152,-0.0823,-126.53,-96.13,998.90,-47,12,-23
1512177381,-0.0249,-0.0112,-0.0933,-70.86,-42.91,933.90,-47,12,-23
1512177381,-0.0281,-0.0266,-0.0818,-91.43,-49.44,996.03,-47,12,-23
1512177381,0.0197,-0.0182,-0.0798,-128.17,-10.19,1014.04,-47,12,-23
1512177381,-0.0204,-0.0302,-0.0820,-119.38,-57.01,953.86,-43,19,-54
1512177381,-0.0301,-0.0128,-0.0864,-134.34,-22.03,1002.08,-43,19,-54
1512177381,-0.0121,-0.0128,-0.0870,-106.26,-53.89,968.57,-43,19,-54
1512177381,-0.0016,-0.0189,-0.0763,-141.17,20.02,982.97,-43,19,-54
1512177381,0.0029,-0.0281,-0.0742,-131.84,-27.83,1076.78,-43,19,-54
1512177381,0.0100,-0.0087,-0.0800,-91.74,15.75,1039.86,-42,-7,-25
1512177381,-0.0084,-0.0021,-0.0719,-112.00,6.47,1041.75,-42,-7,-25
1512177381,0.0178,0.0064,-0.0740,-72.88,-15.08,1011.60,-42,-7,-25
1512177381,-0.0007,-0.0012,-0.0743,-154.97,24.84,1021.55,-42,-7,-25
1512177381,-0.0222,-0.0113,-0.0735,-106.75,30.40,978.94,-31,3,-11
1512177381,-0.0214,-0.0067,-0.0674,-151.55,-18.07,1006.84,-31,3,-11
1512177381,0.0004,0.0059,-0.0670,-100.34,8.97,1021.30,-31,3,-11
1512177381,-0.0116,0.0032,-0.0756,-157.10,-29.42,968.81,-31,3,-11
1512177381,-0.0214,-0.0116,-0.0699,-138.12,-37.54,987.00,-31,3,-11
1512177381,-0.0145,-0.0056,-0.0755,-62.32,-52.61,957.46,-15,5,-40
1512177381,-0.0104,0.0012,-0.0668,-38.82,-13.55,1016.60,-15,5,-40
1512177381,-0.0209,-0.0136,-0.0648,-76.66,-26.73,1063.23,-15,5,-40
1512177381,-0.0177,-0.0198,-0.0617,-93.63,-22.95,948.00,-15,5,-40
1512177381,-0.0222,-0.0165,-0.0526,-100.46,-34.06,1039.43,-15,5,-40
1512177381,-0.0095,-0.0065,-0.0577,-60.97,-0.31,1011.78,-7,-3,-38
1512177381,-0.0252,-0.0145,-0.0481,-84.47,-19.29,1005.55,-7,-3,-38
1512177381,-0.0397,-0.0349,-0.0473,-98.69,-8.18,1014.47,-7,-3,-38
1512177381,-0.0190,-0.0330,-0.0426,-53.16,0.92,1040.71,-7,-3,-38
1512177381,-0.0149,-0.0252,-0.0356,-90.58,-28.02,994.20,-7,-3,-38
1512177381,-0.0334,-0.0128,-0.0421,-69.15,5.49,1029.54,-10,10,-59
1512177382,0.0204,-0.0079,-0.0417,-58.90,-31.43,977.23,-10,10,-59
1512177382,-0.0057,-0.0204,-0.0272,-23.62,-6.23,986.33,-10,10,-59
1512177382,-0.0297,-0.0374,-0.0246,-55.18,-10.31,949.10,-10,10,-59
1512177382,0.0027,-0.0297,-0.0196,-54.93,-62.32,971.68,-15,-5,-57
1512177382,-0.0025,-0.0240,-0.0141,-16.48,-0.55,1038.09,-15,-5,-57
1512177382,0.0004,-0.0204,-0.0036,-29.36,-20.63,1075.44,-15,-5,-57
1512177382,0.0148,-0.0148,-0.0056,-31.56,-37.17,1052.00,-15,-5,-57
1512177382,0.0124,-0.0111,-0.0097,-26.92,-27.16,980.35,-15,-5,-57
1512177382,-0.0196,-0.0152,-0.0288,-0.67,-17.15,999.15,-17,-3,-52
1512177382,-0.0202,-0.0132,0.0153,-10.99,6.35,1062.50,-17,-3,-52
1512177382,0.0020,-0.0036,0.0225,-24.05,-29.11,1044.56,-17,-3,-52
1512177382,0.0224,0.0064,0.0314,-0.79,-12.70,1062.62,-17,-3,-52
1512177382,0.0032,0.0060,0.0342,-54.69,13.06,1005.55,-10,-10,-49
1512177382,-0.0064,0.0045,0.0429,-87.95,-53.34,982.06,-10,-10,-49
1512177382,-0.0124,-0.0056,0.0489,-59.27,-29.79,1042.05,-10,-10,-49
1512177382,-0.0220,-0.0387,0.0579,-17.76,-3.30,986.02,-10,-10,-49
1512177382,0.0091,-0.0209,0.0651,-74.89,-34.48,1010.19,-10,-10,-49
1512177382,0.0177,0.0141,0.0724,-81.48,-24.66,991.82,-22,-12,-44
1512177382,-0.0172,0.0031,0.0736,-18.01,-57.80,970.21,-22,-12,-44
1512177382,0.0009,-0.0269,0.0806,9.28,-29.05,1041.32,-22,-12,-44
1512177382,-0.0099,-0.0264,0.0856,-25.09,-3.97,893.37,-22,-12,-44
1512177382,-0.0270,-0.0165,0.0840,-67.99,-57.98,996.52,-22,-12,-44
1512177382,0.0061,-0.0200,0.0901,22.64,-28.44,1038.15,-17,0,-55
1512177382,-0.0180,-0.0401,0.1024,-2.50,-39.25,1026.73,-17,0,-55
1512177382,0.0025,-0.0378,0.1076,61.46,-46.81,1019.35,-17,0,-55
1512177382,0.0168,-0.0250,0.1161,4.58,-40.10,994.51,-17,0,-55
1512177382,0.0317,-0.0084,0.1182,34.48,-14.04,1108.70,-31,-14,-72
1512177382,-0.0049,-0.0240,0.1280,26.61,7.20,1055.85,-31,-14,-72
1512177382,-0.0149,-0.0320,0.1266,11.11,-16.54,1048.83,-31,-14,-72
1512177382,-0.0001,-0.0304,0.1293,87.77,-46.69,1011.05,-31,-14,-72
1512177382,0.0004,-0.0123,0.1431,-5.25,-1.22,1026.86,-31,-14,-72
1512177382,-0.0718,-0.0650,0.1433,148.44,-92.59,936.77,-33,-1,-77
1512177382,-0.0293,-0.0350,0.1561,100.28,-62.56,1017.94,-33,-1,-77
1512177382,-0.0447,-0.0270,0.1507,82.34,-92.77,979.61,-33,-1,-77
1512177382,-0.0321,-0.0108,0.1599,56.03,-53.10,969.79,-33,-1,-77
1512177382,0.0091,-0.0049,0.1617,90.15,-68.42,951.23,-56,-3,-59
1512177382,-0.0067,0.0148,0.1707,45.41,-6.59,1017.58,-56,-3,-59
1512177382,0.0360,0.0518,0.1731,18.19,-42.05,1050.23,-56,-3,-59
1512177383,-0.0210,-0.0112,0.1776,13.06,-79.90,975.46,-56,-3,-59
1512177383,-0.0064,-0.0133,0.1791,91.80,-41.44,982.06,-56,-3,-59
1512177383,-0.0602,-0.0567,0.1911,25.94,-16.97,857.06,-54,1,-64
1512177383,-0.0113,-0.0127,0.1904,73.49,-44.13,1051.57,-54,1,-64
1512177383,0.0059,-0.0164,0.1976,104.74,-12.27,978.94,-54,1,-64
1512177383,-0.0027,-0.0186,0.1993,73.49,-31.68,961.55,-54,1,-64
1512177383,0.0226,0.0091,0.2085,42.36,-42.36,1038.02,-54,1,-64
1512177383,-0.0013,-0.0115,0.2049,103.27,-52.55,1007.51,-54,-22,-44
1512177383,-0.0177,-0.0217,0.2218,91.25,-8.79,1033.87,-54,-22,-44
1512177383,-0.0063,-0.0160,0.2312,67.02,-8.73,985.11,-54,-22,-44
1512177383,0.0366,-0.0194,0.2389,48.65,-10.68,1123.84,-54,-22,-44
1512177383,-0.0221,-0.0385,0.2337,171.57,-64.76,968.75,-50,-12,-57
1512177383,-0.0068,-0.0360,0.2329,174.13,-59.02,1010.74,-50,-12,-57
1512177383,-0.0085,-0.0225,0.2517,89.05,-5.55,970.52,-50,-12,-57
1512177383,0.0174,0.0079,0.2670,143.62,-24.17,1055.48,-50,-12,-57
1512177383,0.0085,0.0301,0.2866,174.74,-40.47,1085.14,-50,-12,-57
1512177383,-0.0029,0.0346,0.2980,179.14,-20.57,983.52,-45,-3,-69
1512177383,-0.0039,0.0582,0.2992,183.59,8.61,1100.71,-45,-3,-69
1512177383,-0.0678,0.0376,0.2863,123.17,-10.19,997.25,-45,-3,-69
1512177383,-0.0466,0.0529,0.2812,144.71,-44.43,892.52,-45,-3,-69
1512177383,0.0024,0.0169,0.2820,113.28,-40.16,945.31,-75,-5,-60
1512177383,0.0008,-0.0084,0.2852,91.00,-79.71,991.64,-75,-5,-60
1512177383,0.0305,0.0020,0.2832,80.51,-32.96,885.80,-75,-5,-60
1512177383,0.0365,0.0401,0.2987,82.52,-33.81,948.97,-75,-5,-60
1512177383,0.0364,0.0350,0.2961,101.81,-37.90,936.28,-75,-5,-60
1512177383,0.0272,0.0123,0.3133,35.28,-50.60,965.39,-77,17,-49
1512177383,-0.0040,-0.0177,0.2828,72.45,-69.70,1009.52,-77,17,-49
1512177383,-0.0206,-0.0308,0.2780,95.89,-25.57,1013.24,-77,17,-49
1512177383,-0.0341,-0.0079,0.2726,152.40,-31.25,995.30,-77,17,-49
1512177383,-0.0064,0.0017,0.2699,180.73,-39.25,1004.82,-77,17,-49
1512177383,0.0015,0.0172,0.2810,139.95,-38.88,1012.27,-79,-5,-50
1512177383,-0.0274,-0.0032,0.2780,147.09,-38.76,1007.14,-79,-5,-50
1512177383,-0.0342,-0.0080,0.2723,150.02,-29.11,1025.94,-79,-5,-50
1512177383,-0.0264,-0.0033,0.2703,95.58,-30.94,1061.04,-79,-5,-50
1512177383,0.0467,0.0266,0.2815,55.91,-50.66,1053.71,-96,8,-57
1512177383,0.0308,0.0041,0.2764,78.49,-73.97,1084.17,-96,8,-57
1512177383,0.0274,-0.0261,0.2787,25.39,-6.53,988.40,-96,8,-57
1512177384,-0.0105,-0.0124,0.2662,71.29,-72.27,1114.20,-96,8,-57
1512177384,0.0316,0.0134,0.2674,73.97,-50.84,1021.79,-96,8,-57
1512177384,0.0221,0.0254,0.2720,100.46,-52.61,1045.84,-107,15,-50
1512177384,-0.0061,0.0438,0.2762,83.80,-19.78,1055.73,-107,15,-50
1512177384,-0.0585,0.0325,0.2559,73.24,-13.67,1040.95,-107,15,-50
1512177384,-0.0369,0.0547,0.2426,75.32,-70.62,1068.36,-107,15,-50
1512177384,-0.0127,0.0639,0.2502,74.28,-35.89,1001.46,-107,15,-50
1512177384,-0.0273,0.0652,0.2590,43.70,-51.88,918.27,-96,5,-71
1512177384,-0.0599,0.0370,0.2610,20.14,-49.74,904.79,-96,5,-71
1512177384,-0.0281,0.0591,0.2531,52.73,-58.11,916.56,-96,5,-71
1512177384,-0.0204,0.0366,0.2501,89.17,-82.34,882.32,-96,5,-71
1512177384,-0.0318,0.0341,0.2573,50.78,-58.04,989.50,-121,5,-57
1512177384,-0.0115,0.0121,0.2609,65.49,-67.02,972.84,-121,5,-57
1512177384,0.0501,0.0308,0.2784,48.28,-62.32,996.22,-121,5,-57
1512177384,0.0245,0.0274,0.2583,56.88,-38.09,979.00,-121,5,-57
1512177384,-0.0024,0.0273,0.2559,53.89,-61.52,1041.99,-121,5,-57
1512177384,-0.0181,0.0419,0.3222,52.25,-17.03,1024.23,-115,10,-59
1512177384,-0.0285,0.0237,0.2577,62.87,-62.07,984.07,-115,10,-59
1512177384,-0.0064,0.0321,0.2414,80.87,-65.12,1031.07,-115,10,-59
1512177384,0.0125,0.0269,0.2509,72.69,-85.27,983.64,-115,10,-59
1512177384,0.0176,0.0302,0.2554,23.01,-75.38,1043.15,-115,10,-59
1512177384,0.0059,0.0051,0.2554,12.63,-47.85,1050.84,-126,7,-62
1512177384,-0.0052,0.0057,0.2561,53.89,-46.51,1047.97,-126,7,-62
1512177384,-0.0091,0.0300,0.2558,80.20,-50.90,1059.27,-126,7,-62
1512177384,0.0007,0.0220,0.2598,93.32,-40.28,1023.07,-126,7,-62
1512177384,0.0077,0.0056,0.2535,75.93,-113.77,1029.48,-128,-1,-57
1512177384,0.0313,0.0047,0.2527,14.04,-7.02,1026.73,-128,-1,-57
1512177384,0.0237,0.0029,0.2537,-19.17,-46.02,1060.42,-128,-1,-57
1512177384,0.0305,0.0127,0.2413,82.70,-85.75,1040.34,-128,-1,-57
1512177384,0.0132,0.0096,0.2413,78.49,-36.74,949.77,-128,-1,-57
1512177384,-0.0055,-0.0005,0.2389,62.87,-106.75,934.63,-137,10,-38
1512177384,0.0076,0.0061,0.2348,72.39,-97.47,917.24,-137,10,-38
1512177384,-0.0399,-0.0252,0.2352,26.49,-99.79,910.89,-137,10,-38
1512177384,0.0193,-0.0184,0.2032,-18.80,-97.35,955.87,-137,10,-38
1512177384,0.0494,-0.0009,0.2202,49.26,-128.30,1082.09,-133,-10,-52
1512177384,0.0454,0.0130,0.2470,53.96,-99.24,944.09,-133,-10,-52
1512177384,0.0513,0.0222,0.2313,10.74,-55.91,971.07,-133,-10,-52
1512177384,0.0068,0.0218,0.2274,-2.14,-103.70,1022.77,-133,-10,-52
1512177385,-0.0369,0.0104,0.2099,3.78,-67.38,1032.65,-133,-10,-52
1512177385,-0.0374,0.0401,0.2111,17.76,-105.47,1077.64,-147,3,-38
1512177385,-0.0395,0.0345,0.2135,85.08,-96.01,1053.28,-147,3,-38
1512177385,-0.0205,0.0321,0.2181,27.53,-62.74,990.54,-147,3,-38
1512177385,-0.0200,0.0281,0.2197,8.18,-116.94,991.82,-147,3,-38
1512177385,-0.0023,0.0270,0.2164,7.69,-105.04,1122.74,-147,3,-38
1512177385,0.0100,0.0096,0.2229,22.09,-122.56,1045.35,-144,-14,-52
1512177385,0.0298,0.0337,0.2273,56.03,-123.11,1007.69,-144,-14,-52
1512177385,-0.0109,0.0269,0.2233,43.82,-109.37,950.81,-144,-14,-52
1512177385,-0.0447,-0.0013,0.2139,38.09,-109.92,949.52,-144,-14,-52
1512177385,-0.0304,-0.0108,0.2170,45.41,-106.87,1046.51,-163,5,-60
1512177385,-0.0206,-0.0037,0.2210,30.15,-125.00,1071.17,-163,5,-60
1512177385,-0.0081,-0.0097,0.2280,1.28,-120.79,1026.86,-163,5,-60
1512177385,0.0232,-0.0097,0.2256,-33.81,-95.46,987.06,-163,5,-60
1512177385,-0.0085,-0.0112,0.2294,9.22,-140.87,1012.76,-163,5,-60
1512177385,-0.0555,-0.0280,0.2285,14.71,-154.11,983.46,-145,-1,-57
1512177385,-0.0931,-0.0232,0.2333,34.18,-143.74,977.11,-145,-1,-57
1512177385,-0.0611,-0.0048,0.2244,81.05,-138.73,991.88,-145,-1,-57
1512177385,-0.0276,0.0040,0.2246,67.08,-161.07,1080.08,-145,-1,-57
1512177385,-0.0390,-0.0186,0.2345,16.66,-130.74,1072.08,-145,-1,-57
1512177385,-0.0270,-0.0162,0.2377,-0.98,-146.85,982.18,-166,-12,-50
1512177385,-0.0546,-0.0060,0.2272,49.68,-180.48,935.73,-166,-12,-50
1512177385,-0.0248,-0.0025,0.2337,24.29,-174.13,1002.26,-166,-12,-50
1512177385,-0.0073,-0.0007,0.2354,57.56,-182.68,1019.23,-166,-12,-50
1512177385,0.0077,0.0080,0.2365,52.43,-207.58,1009.83,-175,-21,-52
1512177385,-0.0205,-0.0174,0.2328,94.73,-164.86,1018.68,-175,-21,-52
1512177385,-0.0302,-0.0156,0.2350,41.14,-149.72,976.50,-175,-21,-52
1512177385,0.0011,0.0048,0.2365,55.05,-163.21,1003.54,-175,-21,-52
1512177385,-0.0060,0.0180,0.2314,66.83,-159.24,1092.10,-175,-21,-52
1512177385,0.0009,0.0192,0.2413,56.64,-158.39,1072.02,-168,-3,-49
1512177385,0.0261,0.0133,0.2425,85.94,-120.61,1034.73,-168,-3,-49
1512177385,0.0320,0.0234,0.2513,43.52,-145.94,1036.01,-168,-3,-49
1512177385,-0.0105,-0.0165,0.2454,71.47,-126.53,1073.55,-168,-3,-49
1512177385,0.0027,-0.0374,0.2422,115.23,-171.39,905.64,-168,-3,-49
1512177385,-0.0107,-0.0402,0.2462,97.90,-170.96,991.21,-188,-19,-64
1512177385,0.0040,-0.0313,0.2550,81.05,-161.13,997.13,-188,-19,-64
1512177385,0.0389,0.0127,0.2554,87.65,-181.46,1019.10,-188,-19,-64
1512177385,0.0128,0.0051,0.2602,139.95,-143.07,1019.84,-188,-19,-64
1512177386,-0.0387,-0.0209,0.2645,187.74,-159.12,1035.40,-191,-26,-64
1512177386,-0.0314,-0.0061,0.2571,102.54,-131.23,913.94,-191,-26,-64
1512177386,-0.0095,0.0258,0.2474,94.73,-155.46,1017.15,-191,-26,-64
1512177386,0.0201,0.0434,0.2477,98.08,-112.67,1049.99,-191,-26,-64
1512177386,-0.0503,-0.0244,0.2549,98.82,-165.47,998.29,-191,-26,-64
1512177386,-0.0326,-0.0157,0.2623,137.15,-153.20,953.49,-182,-24,-55
1512177386,-0.0330,-0.0314,0.2551,152.95,-138.24,994.57,-182,-24,-55
1512177386,0.0254,0.0156,0.2627,102.42,-156.13,1011.35,-182,-24,-55
1512177386,0.0013,0.0317,0.2598,121.15,-160.95,980.47,-182,-24,-55
1512177386,0.0028,0.0048,0.2594,162.05,-139.53,1042.42,-182,-24,-55
1512177386,-0.0284,-0.0121,0.2629,86.73,-145.20,975.52,-203,-42,-69
1512177386,0.0081,0.0181,0.2571,92.53,-138.55,997.01,-203,-42,-69
1512177386,0.0059,0.0224,0.2551,77.33,-120.79,977.11,-203,-42,-69
1512177386,-0.0800,-0.0214,0.2610,73.43,-156.31,1023.62,-203,-42,-69
1512177386,-0.0332,-0.0138,0.2587,114.93,-125.61,1030.40,-200,-35,-72
1512177386,-0.0369,-0.0229,0.2635,124.21,-152.59,1005.68,-200,-35,-72
1512177386,0.0308,0.0252,0.2622,110.96,-146.18,1110.90,-200,-35,-72
1512177386,0.0007,0.0048,0.2591,77.88,-86.12,1031.62,-200,-35,-72
1512177386,-0.0237,-0.0121,0.2578,107.24,-73.00,967.96,-200,-35,-72
1512177386,0.0057,0.0182,0.2503,61.34,-67.44,1031.68,-212,-51,-67
1512177386,-0.0217,0.0012,0.2467,85.08,-138.37,999.76,-212,-51,-67
1512177386,-0.0011,0.0142,0.2431,85.69,-143.19,1038.33,-212,-51,-67
1512177386,0.0164,0.0047,0.2393,127.01,-109.25,959.35,-212,-51,-67
1512177386,0.0068,-0.0032,0.2402,112.49,-106.87,1009.34,-207,-45,-52
1512177386,0.0316,-0.0047,0.2393,84.35,-124.63,984.07,-207,-45,-52
1512177386,0.0138,0.0085,0.2458,59.02,-98.08,1046.51,-207,-45,-52
1512177386,0.0111,0.0059,0.2479,82.82,-80.26,956.05,-207,-45,-52
1512177386,0.0157,0.0280,0.2483,39.00,-69.76,1063.05,-207,-45,-52
1512177386,-0.0028,0.0152,0.2385,80.51,-71.11,1024.41,-217,-52,-69
1512177386,-0.0032,0.0084,0.2377,64.76,-95.58,1030.15,-217,-52,-69
1512177386,0.0076,-0.0017,0.2288,34.30,-130.49,1016.30,-217,-52,-69
1512177386,0.0123,0.0065,0.2302,69.58,-68.97,1035.28,-217,-52,-69
1512177386,0.0364,0.0190,0.2304,48.58,-81.48,1010.19,-217,-52,-69
1512177386,0.0443,0.0196,0.2280,53.89,-80.32,1021.85,-210,-42,-72
1512177386,0.0281,0.0196,0.2254,39.12,-41.14,1029.60,-210,-42,-72
1512177386,0.0161,-0.0001,0.2221,51.64,-53.71,976.44,-210,-42,-72
1512177386,0.0430,0.0100,0.2282,70.62,-20.02,1068.42,-210,-42,-72
1512177386,0.0202,-0.0166,0.2139,94.60,-27.59,1065.80,-221,-66,-86
1512177387,0.0194,-0.0025,0.2176,70.74,-63.35,974.67,-221,-66,-86
1512177387,0.0265,0.0048,0.2131,89.66,-61.52,975.28,-221,-66,-86
1512177387,-0.0217,-0.0161,0.2080,22.71,-64.39,1025.70,-221,-66,-86
1512177387,0.0117,-0.0027,0.2055,31.68,-47.67,962.22,-221,-66,-86
1512177387,-0.0073,-0.0161,0.2040,13.06,-48.03,1045.90,-224,-63,-69
1512177387,0.0040,0.0013,0.1952,19.84,-85.94,1017.64,-224,-63,-69
1512177387,0.0057,0.0089,0.1933,-0.18,-31.56,1031.68,-224,-63,-69
1512177387,0.0009,0.0041,0.1900,56.09,-25.82,1029.42,-224,-63,-69
1512177387,-0.0005,-0.0107,0.1834,16.54,-14.83,1080.26,-224,-63,-69
1512177387,-0.0013,-0.0127,0.1738,10.62,-47.61,967.16,-228,-70,-69
1512177387,-0.0200,-0.0008,0.1637,-69.34,-112.37,1043.95,-228,-70,-69
1512177387,0.0043,0.0522,0.1567,-4.58,-53.71,1061.83,-228,-70,-69
1512177387,-0.0073,0.0304,0.1578,11.72,-48.58,988.83,-228,-70,-69
1512177387,-0.0088,0.0254,0.1495,4.21,-46.39,989.50,-221,-81,-72
1512177387,-0.0092,-0.0069,0.1474,2.75,-47.55,919.07,-221,-81,-72
1512177387,-0.0095,-0.0127,0.1395,0.06,-43.46,1049.62,-221,-81,-72
1512177387,-0.0178,-0.0234,0.1342,-16.48,-73.00,1015.75,-221,-81,-72
1512177387,0.0808,0.0286,0.1385,-35.10,-67.08,1064.82,-221,-81,-72
1512177387,0.0208,0.0059,0.1140,11.84,-34.97,1024.05,-233,-82,-77
1512177387,-0.0232,-0.0073,0.0738,-24.78,-29.60,943.05,-233,-82,-77
1512177387,-0.0209,-0.0112,0.1017,-16.42,-18.74,1000.79,-233,-82,-77
1512177387,-0.0360,-0.0261,0.0964,16.97,-11.47,967.53,-233,-82,-77
1512177387,-0.0539,-0.0398,0.1061,-3.85,-60.49,1006.47,-233,-82,-77
1512177387,0.0001,-0.0274,0.0909,11.90,-50.48,1004.15,-230,-82,-74
1512177387,0.0469,-0.0001,0.0921,10.13,-45.47,1063.66,-230,-82,-74
1512177387,-0.0324,-0.0186,0.0904,14.71,-47.61,986.39,-230,-82,-74
1512177387,-0.0698,-0.0253,0.0820,25.21,-32.35,987.67,-230,-82,-74
1512177387,0.0000,0.0226,0.0767,-33.87,-13.37,1149.96,-240,-82,-74
1512177387,0.0332,0.0300,0.0850,-47.24,-23.68,1053.77,-240,-82,-74
1512177387,0.0831,0.0304,0.0629,-15.32,-18.55,1016.78,-240,-82,-74
1512177387,0.0061,0.0052,0.0775,-10.38,-26.37,971.31,-240,-82,-74
1512177387,-0.0205,0.0150,0.0734,-22.95,-49.19,924.99,-240,-82,-74
1512177387,-0.0322,0.0407,0.0676,-4.76,-31.86,984.44,-226,-96,-81
1512177387,-0.0842,-0.0153,0.0654,-27.16,-29.91,991.09,-226,-96,-81
1512177387,-0.0487,-0.0338,0.0635,-39.18,-90.94,1044.62,-226,-96,-81
1512177387,0.0455,0.0146,0.0754,-18.98,-51.33,1067.20,-226,-96,-81
1512177387,0.0417,-0.0196,0.0702,-45.35,-56.40,1043.70,-228,-91,-79
1512177388,0.0640,-0.0161,0.0782,-0.49,-39.49,1053.65,-228,-91,-79
1512177388,0.0684,0.0254,0.0740,-8.48,-42.48,1042.24,-228,-91,-79
1512177388,-0.0051,-0.0125,0.0545,-11.72,-46.08,1001.89,-228,-91,-79
1512177388,-0.0758,-0.0459,0.0433,66.53,-69.03,935.97,-228,-91,-79
1512177388,-0.0470,-0.0293,0.0300,20.94,-32.04,975.34,-231,-81,-76
1512177388,-0.0736,-0.0284,0.0372,35.40,-50.96,1007.63,-231,-81,-76
1512177388,0.0184,0.0361,0.0541,29.91,-72.14,1015.81,-231,-81,-76
1512177388,0.0101,0.0393,0.0710,7.81,-41.99,1008.85,-231,-81,-76
1512177388,-0.0093,0.0111,0.0586,9.83,-46.33,978.94,-231,-81,-76
1512177388,0.0044,0.0443,0.0597,-33.08,-34.36,973.33,-249,-91,-66
